"","image","trialnum","condition","l_block_trial_key_resp.keys","l_block_trial_key_resp.rt","v_block_trial_key_resp.keys","v_block_trial_key_resp.rt","vtarget","Run","PartID","ltarget","expName"
"1","M.png",1,"S","3",0.123610775918,"",NA,3,1,1,"H","visual"
"2","K.png",2,"S","None",NA,"",NA,3,1,1,"H","visual"
"3","B.png",3,"S","None",NA,"",NA,3,1,1,"H","visual"
"4","A.png",4,"S","None",NA,"",NA,3,1,1,"H","visual"
"5","J.png",5,"S","None",NA,"",NA,3,1,1,"H","visual"
"6","F.png",6,"S","None",NA,"",NA,3,1,1,"H","visual"
"7","D.png",7,"S","None",NA,"",NA,3,1,1,"H","visual"
"8","G.png",8,"S","None",NA,"",NA,3,1,1,"H","visual"
"9","C.png",9,"S","None",NA,"",NA,3,1,1,"H","visual"
"10","M.png",10,"S","None",NA,"",NA,3,1,1,"H","visual"
"11","K.png",11,"S","None",NA,"",NA,3,1,1,"H","visual"
"12","B.png",12,"S","None",NA,"",NA,3,1,1,"H","visual"
"13","E.png",13,"S","None",NA,"",NA,3,1,1,"H","visual"
"14","L.png",14,"S","None",NA,"",NA,3,1,1,"H","visual"
"15","H.png",15,"S","3",0.330715785967,"",NA,3,1,1,"H","visual"
"16","A.png",16,"S","None",NA,"",NA,3,1,1,"H","visual"
"17","J.png",17,"S","None",NA,"",NA,3,1,1,"H","visual"
"18","F.png",18,"S","None",NA,"",NA,3,1,1,"H","visual"
"19","D.png",19,"S","None",NA,"",NA,3,1,1,"H","visual"
"20","G.png",20,"S","None",NA,"",NA,3,1,1,"H","visual"
"21","C.png",21,"S","None",NA,"",NA,3,1,1,"H","visual"
"22","M.png",22,"S","None",NA,"",NA,3,1,1,"H","visual"
"23","K.png",23,"S","None",NA,"",NA,3,1,1,"H","visual"
"24","B.png",24,"S","None",NA,"",NA,3,1,1,"H","visual"
"25","blank.png",0,"B","",NA,"",NA,3,1,1,"H","visual"
"26","blank.png",0,"B","",NA,"",NA,3,1,1,"H","visual"
"27","blank.png",0,"B","",NA,"",NA,3,1,1,"H","visual"
"28","blank.png",0,"B","",NA,"",NA,3,1,1,"H","visual"
"29","blank.png",0,"B","",NA,"",NA,3,1,1,"H","visual"
"30","blank.png",0,"B","",NA,"",NA,3,1,1,"H","visual"
"31","blank.png",0,"B","",NA,"",NA,3,1,1,"H","visual"
"32","blank.png",0,"B","",NA,"",NA,3,1,1,"H","visual"
"33","blank.png",0,"B","",NA,"",NA,3,1,1,"H","visual"
"34","blank.png",0,"B","",NA,"",NA,3,1,1,"H","visual"
"35","blank.png",0,"B","",NA,"",NA,3,1,1,"H","visual"
"36","blank.png",0,"B","",NA,"",NA,3,1,1,"H","visual"
"37","Alien9.bmp",1,"R","",NA,"3",0.0455226826016,3,1,1,"H","visual"
"38","Alien6.bmp",2,"R","",NA,"3",0.591962981503,3,1,1,"H","visual"
"39","Alien5.bmp",3,"R","",NA,"None",NA,3,1,1,"H","visual"
"40","Alien12.bmp",4,"R","",NA,"None",NA,3,1,1,"H","visual"
"41","Alien2.bmp",5,"R","",NA,"None",NA,3,1,1,"H","visual"
"42","Alien3.bmp",6,"R","",NA,"3",0.416868147673,3,1,1,"H","visual"
"43","Alien5.bmp",7,"R","",NA,"None",NA,3,1,1,"H","visual"
"44","Alien11.bmp",8,"R","",NA,"None",NA,3,1,1,"H","visual"
"45","Alien8.bmp",9,"R","",NA,"None",NA,3,1,1,"H","visual"
"46","Alien4.bmp",10,"R","",NA,"None",NA,3,1,1,"H","visual"
"47","Alien12.bmp",11,"R","",NA,"None",NA,3,1,1,"H","visual"
"48","Alien10.bmp",12,"R","",NA,"None",NA,3,1,1,"H","visual"
"49","Alien6.bmp",13,"R","",NA,"None",NA,3,1,1,"H","visual"
"50","Alien5.bmp",14,"R","",NA,"None",NA,3,1,1,"H","visual"
"51","Alien1.bmp",15,"R","",NA,"None",NA,3,1,1,"H","visual"
"52","Alien1.bmp",16,"R","",NA,"None",NA,3,1,1,"H","visual"
"53","Alien11.bmp",17,"R","",NA,"None",NA,3,1,1,"H","visual"
"54","Alien10.bmp",18,"R","",NA,"None",NA,3,1,1,"H","visual"
"55","Alien3.bmp",19,"R","",NA,"3",0.375200532842,3,1,1,"H","visual"
"56","Alien2.bmp",20,"R","",NA,"None",NA,3,1,1,"H","visual"
"57","Alien6.bmp",21,"R","",NA,"None",NA,3,1,1,"H","visual"
"58","Alien4.bmp",22,"R","",NA,"None",NA,3,1,1,"H","visual"
"59","Alien7.bmp",23,"R","",NA,"None",NA,3,1,1,"H","visual"
"60","Alien4.bmp",24,"R","",NA,"None",NA,3,1,1,"H","visual"
"61","E.png",25,"S","None",NA,"",NA,3,1,1,"H","visual"
"62","L.png",26,"S","None",NA,"",NA,3,1,1,"H","visual"
"63","H.png",27,"S","3",0.664181859931,"",NA,3,1,1,"H","visual"
"64","A.png",28,"S","None",NA,"",NA,3,1,1,"H","visual"
"65","J.png",29,"S","None",NA,"",NA,3,1,1,"H","visual"
"66","F.png",30,"S","None",NA,"",NA,3,1,1,"H","visual"
"67","E.png",31,"S","None",NA,"",NA,3,1,1,"H","visual"
"68","L.png",32,"S","None",NA,"",NA,3,1,1,"H","visual"
"69","H.png",33,"S","3",0.389223047299,"",NA,3,1,1,"H","visual"
"70","D.png",34,"S","None",NA,"",NA,3,1,1,"H","visual"
"71","G.png",35,"S","None",NA,"",NA,3,1,1,"H","visual"
"72","C.png",36,"S","None",NA,"",NA,3,1,1,"H","visual"
"73","M.png",37,"S","None",NA,"",NA,3,1,1,"H","visual"
"74","K.png",38,"S","None",NA,"",NA,3,1,1,"H","visual"
"75","B.png",39,"S","None",NA,"",NA,3,1,1,"H","visual"
"76","D.png",40,"S","None",NA,"",NA,3,1,1,"H","visual"
"77","G.png",41,"S","None",NA,"",NA,3,1,1,"H","visual"
"78","C.png",42,"S","None",NA,"",NA,3,1,1,"H","visual"
"79","M.png",43,"S","None",NA,"",NA,3,1,1,"H","visual"
"80","K.png",44,"S","None",NA,"",NA,3,1,1,"H","visual"
"81","B.png",45,"S","None",NA,"",NA,3,1,1,"H","visual"
"82","E.png",46,"S","None",NA,"",NA,3,1,1,"H","visual"
"83","L.png",47,"S","None",NA,"",NA,3,1,1,"H","visual"
"84","H.png",48,"S","3",0.364480696619,"",NA,3,1,1,"H","visual"
"85","blank.png",0,"B","",NA,"",NA,3,1,1,"H","visual"
"86","blank.png",0,"B","",NA,"",NA,3,1,1,"H","visual"
"87","blank.png",0,"B","",NA,"",NA,3,1,1,"H","visual"
"88","blank.png",0,"B","",NA,"",NA,3,1,1,"H","visual"
"89","blank.png",0,"B","",NA,"",NA,3,1,1,"H","visual"
"90","blank.png",0,"B","",NA,"",NA,3,1,1,"H","visual"
"91","blank.png",0,"B","",NA,"",NA,3,1,1,"H","visual"
"92","blank.png",0,"B","",NA,"",NA,3,1,1,"H","visual"
"93","blank.png",0,"B","",NA,"",NA,3,1,1,"H","visual"
"94","blank.png",0,"B","",NA,"",NA,3,1,1,"H","visual"
"95","blank.png",0,"B","",NA,"",NA,3,1,1,"H","visual"
"96","blank.png",0,"B","",NA,"",NA,3,1,1,"H","visual"
"97","A.png",49,"S","None",NA,"",NA,3,1,1,"H","visual"
"98","J.png",50,"S","None",NA,"",NA,3,1,1,"H","visual"
"99","F.png",51,"S","None",NA,"",NA,3,1,1,"H","visual"
"100","D.png",52,"S","None",NA,"",NA,3,1,1,"H","visual"
"101","G.png",53,"S","None",NA,"",NA,3,1,1,"H","visual"
"102","C.png",54,"S","None",NA,"",NA,3,1,1,"H","visual"
"103","M.png",55,"S","None",NA,"",NA,3,1,1,"H","visual"
"104","K.png",56,"S","None",NA,"",NA,3,1,1,"H","visual"
"105","B.png",57,"S","None",NA,"",NA,3,1,1,"H","visual"
"106","E.png",58,"S","None",NA,"",NA,3,1,1,"H","visual"
"107","L.png",59,"S","None",NA,"",NA,3,1,1,"H","visual"
"108","H.png",60,"S","3",0.36444201204,"",NA,3,1,1,"H","visual"
"109","A.png",61,"S","None",NA,"",NA,3,1,1,"H","visual"
"110","J.png",62,"S","None",NA,"",NA,3,1,1,"H","visual"
"111","F.png",63,"S","None",NA,"",NA,3,1,1,"H","visual"
"112","E.png",64,"S","None",NA,"",NA,3,1,1,"H","visual"
"113","L.png",65,"S","None",NA,"",NA,3,1,1,"H","visual"
"114","H.png",66,"S","3",0.47241833061,"",NA,3,1,1,"H","visual"
"115","M.png",67,"S","None",NA,"",NA,3,1,1,"H","visual"
"116","K.png",68,"S","None",NA,"",NA,3,1,1,"H","visual"
"117","B.png",69,"S","None",NA,"",NA,3,1,1,"H","visual"
"118","D.png",70,"S","None",NA,"",NA,3,1,1,"H","visual"
"119","G.png",71,"S","None",NA,"",NA,3,1,1,"H","visual"
"120","C.png",72,"S","None",NA,"",NA,3,1,1,"H","visual"
"121","Alien8.bmp",25,"R","",NA,"None",NA,3,1,1,"H","visual"
"122","Alien6.bmp",26,"R","",NA,"None",NA,3,1,1,"H","visual"
"123","Alien5.bmp",27,"R","",NA,"None",NA,3,1,1,"H","visual"
"124","Alien8.bmp",28,"R","",NA,"None",NA,3,1,1,"H","visual"
"125","Alien6.bmp",29,"R","",NA,"None",NA,3,1,1,"H","visual"
"126","Alien5.bmp",30,"R","",NA,"None",NA,3,1,1,"H","visual"
"127","Alien10.bmp",31,"R","",NA,"None",NA,3,1,1,"H","visual"
"128","Alien12.bmp",32,"R","",NA,"None",NA,3,1,1,"H","visual"
"129","Alien2.bmp",33,"R","",NA,"None",NA,3,1,1,"H","visual"
"130","Alien11.bmp",34,"R","",NA,"None",NA,3,1,1,"H","visual"
"131","Alien7.bmp",35,"R","",NA,"None",NA,3,1,1,"H","visual"
"132","Alien9.bmp",36,"R","",NA,"None",NA,3,1,1,"H","visual"
"133","Alien4.bmp",37,"R","",NA,"None",NA,3,1,1,"H","visual"
"134","Alien12.bmp",38,"R","",NA,"None",NA,3,1,1,"H","visual"
"135","Alien8.bmp",39,"R","",NA,"None",NA,3,1,1,"H","visual"
"136","Alien11.bmp",40,"R","",NA,"None",NA,3,1,1,"H","visual"
"137","Alien3.bmp",41,"R","",NA,"3",0.417012076359,3,1,1,"H","visual"
"138","Alien9.bmp",42,"R","",NA,"None",NA,3,1,1,"H","visual"
"139","Alien4.bmp",43,"R","",NA,"None",NA,3,1,1,"H","visual"
"140","Alien1.bmp",44,"R","",NA,"None",NA,3,1,1,"H","visual"
"141","Alien10.bmp",45,"R","",NA,"None",NA,3,1,1,"H","visual"
"142","Alien7.bmp",46,"R","",NA,"None",NA,3,1,1,"H","visual"
"143","Alien7.bmp",47,"R","",NA,"None",NA,3,1,1,"H","visual"
"144","Alien9.bmp",48,"R","",NA,"None",NA,3,1,1,"H","visual"
"145","blank.png",0,"B","",NA,"None",NA,3,1,1,"H","visual"
"146","blank.png",0,"B","",NA,"None",NA,3,1,1,"H","visual"
"147","blank.png",0,"B","",NA,"3",0.691953537986,3,1,1,"H","visual"
"148","blank.png",0,"B","",NA,"None",NA,3,1,1,"H","visual"
"149","blank.png",0,"B","",NA,"None",NA,3,1,1,"H","visual"
"150","blank.png",0,"B","",NA,"None",NA,3,1,1,"H","visual"
"151","blank.png",0,"B","",NA,"None",NA,3,1,1,"H","visual"
"152","blank.png",0,"B","",NA,"None",NA,3,1,1,"H","visual"
"153","blank.png",0,"B","",NA,"None",NA,3,1,1,"H","visual"
"154","blank.png",0,"B","",NA,"None",NA,3,1,1,"H","visual"
"155","blank.png",0,"B","",NA,"None",NA,3,1,1,"H","visual"
"156","blank.png",0,"B","",NA,"None",NA,3,1,1,"H","visual"
"157","Alien7.bmp",49,"R","",NA,"None",NA,3,1,1,"H","visual"
"158","Alien1.bmp",50,"R","",NA,"None",NA,3,1,1,"H","visual"
"159","Alien3.bmp",51,"R","",NA,"3",0.550301908748,3,1,1,"H","visual"
"160","Alien10.bmp",52,"R","",NA,"None",NA,3,1,1,"H","visual"
"161","Alien4.bmp",53,"R","",NA,"None",NA,3,1,1,"H","visual"
"162","Alien5.bmp",54,"R","",NA,"None",NA,3,1,1,"H","visual"
"163","Alien12.bmp",55,"R","",NA,"None",NA,3,1,1,"H","visual"
"164","Alien11.bmp",56,"R","",NA,"None",NA,3,1,1,"H","visual"
"165","Alien9.bmp",57,"R","",NA,"None",NA,3,1,1,"H","visual"
"166","Alien10.bmp",58,"R","",NA,"None",NA,3,1,1,"H","visual"
"167","Alien2.bmp",59,"R","",NA,"None",NA,3,1,1,"H","visual"
"168","Alien8.bmp",60,"R","",NA,"None",NA,3,1,1,"H","visual"
"169","Alien7.bmp",61,"R","",NA,"None",NA,3,1,1,"H","visual"
"170","Alien5.bmp",62,"R","",NA,"None",NA,3,1,1,"H","visual"
"171","Alien11.bmp",63,"R","",NA,"None",NA,3,1,1,"H","visual"
"172","Alien12.bmp",64,"R","",NA,"None",NA,3,1,1,"H","visual"
"173","Alien1.bmp",65,"R","",NA,"None",NA,3,1,1,"H","visual"
"174","Alien4.bmp",66,"R","",NA,"None",NA,3,1,1,"H","visual"
"175","Alien9.bmp",67,"R","",NA,"None",NA,3,1,1,"H","visual"
"176","Alien6.bmp",68,"R","",NA,"3",0.38361552055,3,1,1,"H","visual"
"177","Alien8.bmp",69,"R","",NA,"None",NA,3,1,1,"H","visual"
"178","Alien2.bmp",70,"R","",NA,"None",NA,3,1,1,"H","visual"
"179","Alien3.bmp",71,"R","",NA,"3",0.541980218608,3,1,1,"H","visual"
"180","Alien6.bmp",72,"R","",NA,"None",NA,3,1,1,"H","visual"
"181","A.png",73,"S","None",NA,"",NA,3,1,1,"H","visual"
"182","J.png",74,"S","None",NA,"",NA,3,1,1,"H","visual"
"183","F.png",75,"S","None",NA,"",NA,3,1,1,"H","visual"
"184","M.png",76,"S","None",NA,"",NA,3,1,1,"H","visual"
"185","K.png",77,"S","None",NA,"",NA,3,1,1,"H","visual"
"186","B.png",78,"S","None",NA,"",NA,3,1,1,"H","visual"
"187","E.png",79,"S","None",NA,"",NA,3,1,1,"H","visual"
"188","L.png",80,"S","None",NA,"",NA,3,1,1,"H","visual"
"189","H.png",81,"S","3",0.35516971047,"",NA,3,1,1,"H","visual"
"190","D.png",82,"S","None",NA,"",NA,3,1,1,"H","visual"
"191","G.png",83,"S","None",NA,"",NA,3,1,1,"H","visual"
"192","C.png",84,"S","None",NA,"",NA,3,1,1,"H","visual"
"193","A.png",85,"S","None",NA,"",NA,3,1,1,"H","visual"
"194","J.png",86,"S","None",NA,"",NA,3,1,1,"H","visual"
"195","F.png",87,"S","None",NA,"",NA,3,1,1,"H","visual"
"196","E.png",88,"S","None",NA,"",NA,3,1,1,"H","visual"
"197","L.png",89,"S","None",NA,"",NA,3,1,1,"H","visual"
"198","H.png",90,"S","3",0.372878617374,"",NA,3,1,1,"H","visual"
"199","M.png",91,"S","None",NA,"",NA,3,1,1,"H","visual"
"200","K.png",92,"S","None",NA,"",NA,3,1,1,"H","visual"
"201","B.png",93,"S","None",NA,"",NA,3,1,1,"H","visual"
"202","D.png",94,"S","None",NA,"",NA,3,1,1,"H","visual"
"203","G.png",95,"S","None",NA,"",NA,3,1,1,"H","visual"
"204","C.png",96,"S","None",NA,"",NA,3,1,1,"H","visual"
"205","blank.png",0,"B","",NA,"",NA,3,1,1,"H","visual"
"206","blank.png",0,"B","",NA,"",NA,3,1,1,"H","visual"
"207","blank.png",0,"B","",NA,"",NA,3,1,1,"H","visual"
"208","blank.png",0,"B","",NA,"",NA,3,1,1,"H","visual"
"209","blank.png",0,"B","",NA,"",NA,3,1,1,"H","visual"
"210","blank.png",0,"B","",NA,"",NA,3,1,1,"H","visual"
"211","blank.png",0,"B","",NA,"",NA,3,1,1,"H","visual"
"212","blank.png",0,"B","",NA,"",NA,3,1,1,"H","visual"
"213","blank.png",0,"B","",NA,"",NA,3,1,1,"H","visual"
"214","blank.png",0,"B","",NA,"",NA,3,1,1,"H","visual"
"215","blank.png",0,"B","",NA,"",NA,3,1,1,"H","visual"
"216","blank.png",0,"B","",NA,"",NA,3,1,1,"H","visual"
"217","Alien7.bmp",73,"R","",NA,"None",NA,3,1,1,"H","visual"
"218","Alien6.bmp",74,"R","",NA,"None",NA,3,1,1,"H","visual"
"219","Alien2.bmp",75,"R","",NA,"None",NA,3,1,1,"H","visual"
"220","Alien8.bmp",76,"R","",NA,"None",NA,3,1,1,"H","visual"
"221","Alien8.bmp",77,"R","",NA,"None",NA,3,1,1,"H","visual"
"222","Alien3.bmp",78,"R","",NA,"3",0.867003713734,3,1,1,"H","visual"
"223","Alien10.bmp",79,"R","",NA,"None",NA,3,1,1,"H","visual"
"224","Alien11.bmp",80,"R","",NA,"None",NA,3,1,1,"H","visual"
"225","Alien3.bmp",81,"R","",NA,"3",0.791933854343,3,1,1,"H","visual"
"226","Alien2.bmp",82,"R","",NA,"None",NA,3,1,1,"H","visual"
"227","Alien4.bmp",83,"R","",NA,"None",NA,3,1,1,"H","visual"
"228","Alien6.bmp",84,"R","",NA,"None",NA,3,1,1,"H","visual"
"229","Alien11.bmp",85,"R","",NA,"None",NA,3,1,1,"H","visual"
"230","Alien9.bmp",86,"R","",NA,"None",NA,3,1,1,"H","visual"
"231","Alien9.bmp",87,"R","",NA,"None",NA,3,1,1,"H","visual"
"232","Alien7.bmp",88,"R","",NA,"None",NA,3,1,1,"H","visual"
"233","Alien12.bmp",89,"R","",NA,"None",NA,3,1,1,"H","visual"
"234","Alien1.bmp",90,"R","",NA,"None",NA,3,1,1,"H","visual"
"235","Alien4.bmp",91,"R","",NA,"None",NA,3,1,1,"H","visual"
"236","Alien10.bmp",92,"R","",NA,"None",NA,3,1,1,"H","visual"
"237","Alien12.bmp",93,"R","",NA,"None",NA,3,1,1,"H","visual"
"238","Alien5.bmp",94,"R","",NA,"None",NA,3,1,1,"H","visual"
"239","Alien5.bmp",95,"R","",NA,"None",NA,3,1,1,"H","visual"
"240","Alien1.bmp",96,"R","",NA,"None",NA,3,1,1,"H","visual"
"241","M.png",97,"S","None",NA,"",NA,3,1,1,"H","visual"
"242","K.png",98,"S","None",NA,"",NA,3,1,1,"H","visual"
"243","B.png",99,"S","None",NA,"",NA,3,1,1,"H","visual"
"244","A.png",100,"S","None",NA,"",NA,3,1,1,"H","visual"
"245","J.png",101,"S","None",NA,"",NA,3,1,1,"H","visual"
"246","F.png",102,"S","None",NA,"",NA,3,1,1,"H","visual"
"247","E.png",103,"S","None",NA,"",NA,3,1,1,"H","visual"
"248","L.png",104,"S","None",NA,"",NA,3,1,1,"H","visual"
"249","H.png",105,"S","3",0.513949127868,"",NA,3,1,1,"H","visual"
"250","D.png",106,"S","None",NA,"",NA,3,1,1,"H","visual"
"251","G.png",107,"S","None",NA,"",NA,3,1,1,"H","visual"
"252","C.png",108,"S","None",NA,"",NA,3,1,1,"H","visual"
"253","A.png",109,"S","None",NA,"",NA,3,1,1,"H","visual"
"254","J.png",110,"S","None",NA,"",NA,3,1,1,"H","visual"
"255","F.png",111,"S","None",NA,"",NA,3,1,1,"H","visual"
"256","M.png",112,"S","None",NA,"",NA,3,1,1,"H","visual"
"257","K.png",113,"S","None",NA,"",NA,3,1,1,"H","visual"
"258","B.png",114,"S","None",NA,"",NA,3,1,1,"H","visual"
"259","D.png",115,"S","None",NA,"",NA,3,1,1,"H","visual"
"260","G.png",116,"S","None",NA,"",NA,3,1,1,"H","visual"
"261","C.png",117,"S","None",NA,"",NA,3,1,1,"H","visual"
"262","E.png",118,"S","None",NA,"",NA,3,1,1,"H","visual"
"263","L.png",119,"S","None",NA,"",NA,3,1,1,"H","visual"
"264","H.png",120,"S","3",0.397342497716,"",NA,3,1,1,"H","visual"
"265","Alien7.bmp",97,"R","",NA,"None",NA,3,1,1,"H","visual"
"266","Alien4.bmp",98,"R","",NA,"None",NA,3,1,1,"H","visual"
"267","Alien9.bmp",99,"R","",NA,"None",NA,3,1,1,"H","visual"
"268","Alien11.bmp",100,"R","",NA,"None",NA,3,1,1,"H","visual"
"269","Alien3.bmp",101,"R","",NA,"3",0.516896250658,3,1,1,"H","visual"
"270","Alien5.bmp",102,"R","",NA,"None",NA,3,1,1,"H","visual"
"271","Alien8.bmp",103,"R","",NA,"None",NA,3,1,1,"H","visual"
"272","Alien12.bmp",104,"R","",NA,"None",NA,3,1,1,"H","visual"
"273","Alien9.bmp",105,"R","",NA,"None",NA,3,1,1,"H","visual"
"274","Alien8.bmp",106,"R","",NA,"None",NA,3,1,1,"H","visual"
"275","Alien5.bmp",107,"R","",NA,"None",NA,3,1,1,"H","visual"
"276","Alien1.bmp",108,"R","",NA,"None",NA,3,1,1,"H","visual"
"277","Alien10.bmp",109,"R","",NA,"None",NA,3,1,1,"H","visual"
"278","Alien12.bmp",110,"R","",NA,"None",NA,3,1,1,"H","visual"
"279","Alien2.bmp",111,"R","",NA,"None",NA,3,1,1,"H","visual"
"280","Alien10.bmp",112,"R","",NA,"None",NA,3,1,1,"H","visual"
"281","Alien7.bmp",113,"R","",NA,"None",NA,3,1,1,"H","visual"
"282","Alien6.bmp",114,"R","",NA,"None",NA,3,1,1,"H","visual"
"283","Alien2.bmp",115,"R","",NA,"None",NA,3,1,1,"H","visual"
"284","Alien4.bmp",116,"R","",NA,"None",NA,3,1,1,"H","visual"
"285","Alien6.bmp",117,"R","",NA,"None",NA,3,1,1,"H","visual"
"286","Alien3.bmp",118,"R","",NA,"3",0.500278186286,3,1,1,"H","visual"
"287","Alien1.bmp",119,"R","",NA,"None",NA,3,1,1,"H","visual"
"288","Alien11.bmp",120,"R","",NA,"None",NA,3,1,1,"H","visual"
"289","blank.png",0,"B","",NA,"None",NA,3,1,1,"H","visual"
"290","blank.png",0,"B","",NA,"None",NA,3,1,1,"H","visual"
"291","blank.png",0,"B","",NA,"None",NA,3,1,1,"H","visual"
"292","blank.png",0,"B","",NA,"None",NA,3,1,1,"H","visual"
"293","blank.png",0,"B","",NA,"None",NA,3,1,1,"H","visual"
"294","blank.png",0,"B","",NA,"None",NA,3,1,1,"H","visual"
"295","blank.png",0,"B","",NA,"None",NA,3,1,1,"H","visual"
"296","blank.png",0,"B","",NA,"None",NA,3,1,1,"H","visual"
"297","blank.png",0,"B","",NA,"None",NA,3,1,1,"H","visual"
"298","blank.png",0,"B","",NA,"None",NA,3,1,1,"H","visual"
"299","blank.png",0,"B","",NA,"None",NA,3,1,1,"H","visual"
"300","blank.png",0,"B","",NA,"None",NA,3,1,1,"H","visual"
"301","A.png",121,"S","None",NA,"",NA,3,1,1,"H","visual"
"302","J.png",122,"S","None",NA,"",NA,3,1,1,"H","visual"
"303","F.png",123,"S","None",NA,"",NA,3,1,1,"H","visual"
"304","M.png",124,"S","None",NA,"",NA,3,1,1,"H","visual"
"305","K.png",125,"S","None",NA,"",NA,3,1,1,"H","visual"
"306","B.png",126,"S","None",NA,"",NA,3,1,1,"H","visual"
"307","A.png",127,"S","None",NA,"",NA,3,1,1,"H","visual"
"308","J.png",128,"S","None",NA,"",NA,3,1,1,"H","visual"
"309","F.png",129,"S","None",NA,"",NA,3,1,1,"H","visual"
"310","E.png",130,"S","None",NA,"",NA,3,1,1,"H","visual"
"311","L.png",131,"S","None",NA,"",NA,3,1,1,"H","visual"
"312","H.png",132,"S","3",0.322797721718,"",NA,3,1,1,"H","visual"
"313","D.png",133,"S","None",NA,"",NA,3,1,1,"H","visual"
"314","G.png",134,"S","None",NA,"",NA,3,1,1,"H","visual"
"315","C.png",135,"S","None",NA,"",NA,3,1,1,"H","visual"
"316","E.png",136,"S","None",NA,"",NA,3,1,1,"H","visual"
"317","L.png",137,"S","None",NA,"",NA,3,1,1,"H","visual"
"318","H.png",138,"S","3",0.514212807175,"",NA,3,1,1,"H","visual"
"319","D.png",139,"S","None",NA,"",NA,3,1,1,"H","visual"
"320","G.png",140,"S","None",NA,"",NA,3,1,1,"H","visual"
"321","C.png",141,"S","None",NA,"",NA,3,1,1,"H","visual"
"322","A.png",142,"S","None",NA,"",NA,3,1,1,"H","visual"
"323","J.png",143,"S","None",NA,"",NA,3,1,1,"H","visual"
"324","F.png",144,"S","None",NA,"",NA,3,1,1,"H","visual"
"325","Alien1.bmp",121,"R","",NA,"None",NA,3,1,1,"H","visual"
"326","Alien7.bmp",122,"R","",NA,"None",NA,3,1,1,"H","visual"
"327","Alien12.bmp",123,"R","",NA,"None",NA,3,1,1,"H","visual"
"328","Alien4.bmp",124,"R","",NA,"None",NA,3,1,1,"H","visual"
"329","Alien1.bmp",125,"R","",NA,"None",NA,3,1,1,"H","visual"
"330","Alien5.bmp",126,"R","",NA,"None",NA,3,1,1,"H","visual"
"331","Alien3.bmp",127,"R","",NA,"3",0.491888798308,3,1,1,"H","visual"
"332","Alien7.bmp",128,"R","",NA,"None",NA,3,1,1,"H","visual"
"333","Alien8.bmp",129,"R","",NA,"None",NA,3,1,1,"H","visual"
"334","Alien3.bmp",130,"R","",NA,"3",0.433513234602,3,1,1,"H","visual"
"335","Alien3.bmp",131,"R","",NA,"3",0.716995976865,3,1,1,"H","visual"
"336","Alien2.bmp",132,"R","",NA,"None",NA,3,1,1,"H","visual"
"337","Alien10.bmp",133,"R","",NA,"None",NA,3,1,1,"H","visual"
"338","Alien2.bmp",134,"R","",NA,"None",NA,3,1,1,"H","visual"
"339","Alien9.bmp",135,"R","",NA,"None",NA,3,1,1,"H","visual"
"340","Alien2.bmp",136,"R","",NA,"None",NA,3,1,1,"H","visual"
"341","Alien9.bmp",137,"R","",NA,"None",NA,3,1,1,"H","visual"
"342","Alien1.bmp",138,"R","",NA,"None",NA,3,1,1,"H","visual"
"343","Alien11.bmp",139,"R","",NA,"None",NA,3,1,1,"H","visual"
"344","Alien8.bmp",140,"R","",NA,"None",NA,3,1,1,"H","visual"
"345","Alien11.bmp",141,"R","",NA,"None",NA,3,1,1,"H","visual"
"346","Alien6.bmp",142,"R","",NA,"None",NA,3,1,1,"H","visual"
"347","Alien12.bmp",143,"R","",NA,"None",NA,3,1,1,"H","visual"
"348","Alien10.bmp",144,"R","",NA,"None",NA,3,1,1,"H","visual"
"349","blank.png",0,"B","",NA,"None",NA,3,1,1,"H","visual"
"350","blank.png",0,"B","",NA,"None",NA,3,1,1,"H","visual"
"351","blank.png",0,"B","",NA,"None",NA,3,1,1,"H","visual"
"352","blank.png",0,"B","",NA,"None",NA,3,1,1,"H","visual"
"353","blank.png",0,"B","",NA,"None",NA,3,1,1,"H","visual"
"354","blank.png",0,"B","",NA,"None",NA,3,1,1,"H","visual"
"355","blank.png",0,"B","",NA,"None",NA,3,1,1,"H","visual"
"356","blank.png",0,"B","",NA,"None",NA,3,1,1,"H","visual"
"357","blank.png",0,"B","",NA,"None",NA,3,1,1,"H","visual"
"358","blank.png",0,"B","",NA,"None",NA,3,1,1,"H","visual"
"359","blank.png",0,"B","",NA,"None",NA,3,1,1,"H","visual"
"360","blank.png",0,"B","",NA,"None",NA,3,1,1,"H","visual"
"361","Alien1.bmp",145,"R","",NA,"None",NA,3,1,1,"H","visual"
"362","Alien6.bmp",146,"R","",NA,"None",NA,3,1,1,"H","visual"
"363","Alien6.bmp",147,"R","",NA,"None",NA,3,1,1,"H","visual"
"364","Alien2.bmp",148,"R","",NA,"None",NA,3,1,1,"H","visual"
"365","Alien3.bmp",149,"R","",NA,"3",0.541907685576,3,1,1,"H","visual"
"366","Alien11.bmp",150,"R","",NA,"None",NA,3,1,1,"H","visual"
"367","Alien7.bmp",151,"R","",NA,"None",NA,3,1,1,"H","visual"
"368","Alien5.bmp",152,"R","",NA,"None",NA,3,1,1,"H","visual"
"369","Alien5.bmp",153,"R","",NA,"None",NA,3,1,1,"H","visual"
"370","Alien5.bmp",154,"R","",NA,"None",NA,3,1,1,"H","visual"
"371","Alien8.bmp",155,"R","",NA,"None",NA,3,1,1,"H","visual"
"372","Alien7.bmp",156,"R","",NA,"None",NA,3,1,1,"H","visual"
"373","Alien3.bmp",157,"R","",NA,"None",NA,3,1,1,"H","visual"
"374","Alien6.bmp",158,"R","",NA,"None",NA,3,1,1,"H","visual"
"375","Alien4.bmp",159,"R","",NA,"None",NA,3,1,1,"H","visual"
"376","Alien10.bmp",160,"R","",NA,"None",NA,3,1,1,"H","visual"
"377","Alien1.bmp",161,"R","",NA,"None",NA,3,1,1,"H","visual"
"378","Alien8.bmp",162,"R","",NA,"None",NA,3,1,1,"H","visual"
"379","Alien9.bmp",163,"R","",NA,"None",NA,3,1,1,"H","visual"
"380","Alien9.bmp",164,"R","",NA,"None",NA,3,1,1,"H","visual"
"381","Alien2.bmp",165,"R","",NA,"None",NA,3,1,1,"H","visual"
"382","Alien4.bmp",166,"R","",NA,"None",NA,3,1,1,"H","visual"
"383","Alien12.bmp",167,"R","",NA,"None",NA,3,1,1,"H","visual"
"384","Alien4.bmp",168,"R","",NA,"None",NA,3,1,1,"H","visual"
"385","M.png",145,"S","None",NA,"",NA,3,1,1,"H","visual"
"386","K.png",146,"S","None",NA,"",NA,3,1,1,"H","visual"
"387","B.png",147,"S","None",NA,"",NA,3,1,1,"H","visual"
"388","D.png",148,"S","None",NA,"",NA,3,1,1,"H","visual"
"389","G.png",149,"S","None",NA,"",NA,3,1,1,"H","visual"
"390","C.png",150,"S","None",NA,"",NA,3,1,1,"H","visual"
"391","M.png",151,"S","None",NA,"",NA,3,1,1,"H","visual"
"392","K.png",152,"S","None",NA,"",NA,3,1,1,"H","visual"
"393","B.png",153,"S","None",NA,"",NA,3,1,1,"H","visual"
"394","E.png",154,"S","None",NA,"",NA,3,1,1,"H","visual"
"395","L.png",155,"S","None",NA,"",NA,3,1,1,"H","visual"
"396","H.png",156,"S","3",0.497992394958,"",NA,3,1,1,"H","visual"
"397","A.png",157,"S","None",NA,"",NA,3,1,1,"H","visual"
"398","J.png",158,"S","None",NA,"",NA,3,1,1,"H","visual"
"399","F.png",159,"S","None",NA,"",NA,3,1,1,"H","visual"
"400","M.png",160,"S","None",NA,"",NA,3,1,1,"H","visual"
"401","K.png",161,"S","None",NA,"",NA,3,1,1,"H","visual"
"402","B.png",162,"S","None",NA,"",NA,3,1,1,"H","visual"
"403","E.png",163,"S","None",NA,"",NA,3,1,1,"H","visual"
"404","L.png",164,"S","None",NA,"",NA,3,1,1,"H","visual"
"405","H.png",165,"S","3",0.606324268272,"",NA,3,1,1,"H","visual"
"406","A.png",166,"S","None",NA,"",NA,3,1,1,"H","visual"
"407","J.png",167,"S","None",NA,"",NA,3,1,1,"H","visual"
"408","F.png",168,"S","None",NA,"",NA,3,1,1,"H","visual"
"409","blank.png",0,"B","",NA,"",NA,3,1,1,"H","visual"
"410","blank.png",0,"B","",NA,"",NA,3,1,1,"H","visual"
"411","blank.png",0,"B","",NA,"",NA,3,1,1,"H","visual"
"412","blank.png",0,"B","",NA,"",NA,3,1,1,"H","visual"
"413","blank.png",0,"B","",NA,"",NA,3,1,1,"H","visual"
"414","blank.png",0,"B","",NA,"",NA,3,1,1,"H","visual"
"415","blank.png",0,"B","",NA,"",NA,3,1,1,"H","visual"
"416","blank.png",0,"B","",NA,"",NA,3,1,1,"H","visual"
"417","blank.png",0,"B","",NA,"",NA,3,1,1,"H","visual"
"418","blank.png",0,"B","",NA,"",NA,3,1,1,"H","visual"
"419","blank.png",0,"B","",NA,"",NA,3,1,1,"H","visual"
"420","blank.png",0,"B","",NA,"",NA,3,1,1,"H","visual"
"421","D.png",169,"S","None",NA,"",NA,3,1,1,"H","visual"
"422","G.png",170,"S","None",NA,"",NA,3,1,1,"H","visual"
"423","C.png",171,"S","None",NA,"",NA,3,1,1,"H","visual"
"424","A.png",172,"S","None",NA,"",NA,3,1,1,"H","visual"
"425","J.png",173,"S","None",NA,"",NA,3,1,1,"H","visual"
"426","F.png",174,"S","None",NA,"",NA,3,1,1,"H","visual"
"427","M.png",175,"S","None",NA,"",NA,3,1,1,"H","visual"
"428","K.png",176,"S","None",NA,"",NA,3,1,1,"H","visual"
"429","B.png",177,"S","None",NA,"",NA,3,1,1,"H","visual"
"430","D.png",178,"S","None",NA,"",NA,3,1,1,"H","visual"
"431","G.png",179,"S","None",NA,"",NA,3,1,1,"H","visual"
"432","C.png",180,"S","None",NA,"",NA,3,1,1,"H","visual"
"433","E.png",181,"S","None",NA,"",NA,3,1,1,"H","visual"
"434","L.png",182,"S","None",NA,"",NA,3,1,1,"H","visual"
"435","H.png",183,"S","3",0.48957626964,"",NA,3,1,1,"H","visual"
"436","D.png",184,"S","None",NA,"",NA,3,1,1,"H","visual"
"437","G.png",185,"S","None",NA,"",NA,3,1,1,"H","visual"
"438","C.png",186,"S","None",NA,"",NA,3,1,1,"H","visual"
"439","A.png",187,"S","None",NA,"",NA,3,1,1,"H","visual"
"440","J.png",188,"S","None",NA,"",NA,3,1,1,"H","visual"
"441","F.png",189,"S","None",NA,"",NA,3,1,1,"H","visual"
"442","E.png",190,"S","None",NA,"",NA,3,1,1,"H","visual"
"443","L.png",191,"S","None",NA,"",NA,3,1,1,"H","visual"
"444","H.png",192,"S","3",0.34789050743,"",NA,3,1,1,"H","visual"
"445","blank.png",0,"B","",NA,"",NA,3,1,1,"H","visual"
"446","blank.png",0,"B","",NA,"",NA,3,1,1,"H","visual"
"447","blank.png",0,"B","",NA,"",NA,3,1,1,"H","visual"
"448","blank.png",0,"B","",NA,"",NA,3,1,1,"H","visual"
"449","blank.png",0,"B","",NA,"",NA,3,1,1,"H","visual"
"450","blank.png",0,"B","",NA,"",NA,3,1,1,"H","visual"
"451","blank.png",0,"B","",NA,"",NA,3,1,1,"H","visual"
"452","blank.png",0,"B","",NA,"",NA,3,1,1,"H","visual"
"453","blank.png",0,"B","",NA,"",NA,3,1,1,"H","visual"
"454","blank.png",0,"B","",NA,"",NA,3,1,1,"H","visual"
"455","blank.png",0,"B","",NA,"",NA,3,1,1,"H","visual"
"456","blank.png",0,"B","",NA,"",NA,3,1,1,"H","visual"
"457","Alien12.bmp",169,"R","",NA,"None",NA,3,1,1,"H","visual"
"458","Alien1.bmp",170,"R","",NA,"None",NA,3,1,1,"H","visual"
"459","Alien7.bmp",171,"R","",NA,"None",NA,3,1,1,"H","visual"
"460","Alien5.bmp",172,"R","",NA,"None",NA,3,1,1,"H","visual"
"461","Alien12.bmp",173,"R","",NA,"None",NA,3,1,1,"H","visual"
"462","Alien4.bmp",174,"R","",NA,"None",NA,3,1,1,"H","visual"
"463","Alien8.bmp",175,"R","",NA,"None",NA,3,1,1,"H","visual"
"464","Alien6.bmp",176,"R","",NA,"3",0.458617966855,3,1,1,"H","visual"
"465","Alien11.bmp",177,"R","",NA,"None",NA,3,1,1,"H","visual"
"466","Alien7.bmp",178,"R","",NA,"None",NA,3,1,1,"H","visual"
"467","Alien1.bmp",179,"R","",NA,"None",NA,3,1,1,"H","visual"
"468","Alien11.bmp",180,"R","",NA,"None",NA,3,1,1,"H","visual"
"469","Alien9.bmp",181,"R","",NA,"None",NA,3,1,1,"H","visual"
"470","Alien10.bmp",182,"R","",NA,"None",NA,3,1,1,"H","visual"
"471","Alien2.bmp",183,"R","",NA,"None",NA,3,1,1,"H","visual"
"472","Alien2.bmp",184,"R","",NA,"None",NA,3,1,1,"H","visual"
"473","Alien8.bmp",185,"R","",NA,"None",NA,3,1,1,"H","visual"
"474","Alien11.bmp",186,"R","",NA,"None",NA,3,1,1,"H","visual"
"475","Alien3.bmp",187,"R","",NA,"3",0.542010369711,3,1,1,"H","visual"
"476","Alien3.bmp",188,"R","",NA,"None",NA,3,1,1,"H","visual"
"477","Alien9.bmp",189,"R","",NA,"None",NA,3,1,1,"H","visual"
"478","Alien10.bmp",190,"R","",NA,"None",NA,3,1,1,"H","visual"
"479","Alien10.bmp",191,"R","",NA,"None",NA,3,1,1,"H","visual"
"480","Alien12.bmp",192,"R","",NA,"None",NA,3,1,1,"H","visual"
