"","image","trialnum","condition","l_block_trial_key_resp.keys","l_block_trial_key_resp.rt","v_block_trial_key_resp.keys","v_block_trial_key_resp.rt","vtarget","Run","PartID","ltarget","expName"
"1","Alien12.bmp",193,"R","",NA,"None",NA,3,2,1,"H","visual"
"2","Alien1.bmp",194,"R","",NA,"None",NA,3,2,1,"H","visual"
"3","Alien1.bmp",195,"R","",NA,"None",NA,3,2,1,"H","visual"
"4","Alien2.bmp",196,"R","",NA,"None",NA,3,2,1,"H","visual"
"5","Alien7.bmp",197,"R","",NA,"None",NA,3,2,1,"H","visual"
"6","Alien8.bmp",198,"R","",NA,"None",NA,3,2,1,"H","visual"
"7","Alien3.bmp",199,"R","",NA,"3",0.458762748865,3,2,1,"H","visual"
"8","Alien5.bmp",200,"R","",NA,"None",NA,3,2,1,"H","visual"
"9","Alien2.bmp",201,"R","",NA,"None",NA,3,2,1,"H","visual"
"10","Alien4.bmp",202,"R","",NA,"None",NA,3,2,1,"H","visual"
"11","Alien9.bmp",203,"R","",NA,"None",NA,3,2,1,"H","visual"
"12","Alien6.bmp",204,"R","",NA,"None",NA,3,2,1,"H","visual"
"13","Alien3.bmp",205,"R","",NA,"3",0.383632587269,3,2,1,"H","visual"
"14","Alien11.bmp",206,"R","",NA,"None",NA,3,2,1,"H","visual"
"15","Alien10.bmp",207,"R","",NA,"None",NA,3,2,1,"H","visual"
"16","Alien4.bmp",208,"R","",NA,"None",NA,3,2,1,"H","visual"
"17","Alien8.bmp",209,"R","",NA,"None",NA,3,2,1,"H","visual"
"18","Alien5.bmp",210,"R","",NA,"None",NA,3,2,1,"H","visual"
"19","Alien9.bmp",211,"R","",NA,"None",NA,3,2,1,"H","visual"
"20","Alien11.bmp",212,"R","",NA,"None",NA,3,2,1,"H","visual"
"21","Alien7.bmp",213,"R","",NA,"None",NA,3,2,1,"H","visual"
"22","Alien10.bmp",214,"R","",NA,"None",NA,3,2,1,"H","visual"
"23","Alien6.bmp",215,"R","",NA,"None",NA,3,2,1,"H","visual"
"24","Alien12.bmp",216,"R","",NA,"None",NA,3,2,1,"H","visual"
"25","M.png",193,"S","None",NA,"",NA,3,2,1,"H","visual"
"26","K.png",194,"S","None",NA,"",NA,3,2,1,"H","visual"
"27","B.png",195,"S","None",NA,"",NA,3,2,1,"H","visual"
"28","E.png",196,"S","None",NA,"",NA,3,2,1,"H","visual"
"29","L.png",197,"S","None",NA,"",NA,3,2,1,"H","visual"
"30","H.png",198,"S","3",0.389179527294,"",NA,3,2,1,"H","visual"
"31","A.png",199,"S","None",NA,"",NA,3,2,1,"H","visual"
"32","J.png",200,"S","None",NA,"",NA,3,2,1,"H","visual"
"33","F.png",201,"S","None",NA,"",NA,3,2,1,"H","visual"
"34","D.png",202,"S","None",NA,"",NA,3,2,1,"H","visual"
"35","G.png",203,"S","None",NA,"",NA,3,2,1,"H","visual"
"36","C.png",204,"S","None",NA,"",NA,3,2,1,"H","visual"
"37","E.png",205,"S","None",NA,"",NA,3,2,1,"H","visual"
"38","L.png",206,"S","None",NA,"",NA,3,2,1,"H","visual"
"39","H.png",207,"S","None",NA,"",NA,3,2,1,"H","visual"
"40","M.png",208,"S","None",NA,"",NA,3,2,1,"H","visual"
"41","K.png",209,"S","None",NA,"",NA,3,2,1,"H","visual"
"42","B.png",210,"S","None",NA,"",NA,3,2,1,"H","visual"
"43","A.png",211,"S","None",NA,"",NA,3,2,1,"H","visual"
"44","J.png",212,"S","None",NA,"",NA,3,2,1,"H","visual"
"45","F.png",213,"S","None",NA,"",NA,3,2,1,"H","visual"
"46","D.png",214,"S","None",NA,"",NA,3,2,1,"H","visual"
"47","G.png",215,"S","None",NA,"",NA,3,2,1,"H","visual"
"48","C.png",216,"S","None",NA,"",NA,3,2,1,"H","visual"
"49","Alien7.bmp",217,"R","",NA,"None",NA,3,2,1,"H","visual"
"50","Alien5.bmp",218,"R","",NA,"None",NA,3,2,1,"H","visual"
"51","Alien2.bmp",219,"R","",NA,"None",NA,3,2,1,"H","visual"
"52","Alien4.bmp",220,"R","",NA,"None",NA,3,2,1,"H","visual"
"53","Alien5.bmp",221,"R","",NA,"None",NA,3,2,1,"H","visual"
"54","Alien11.bmp",222,"R","",NA,"None",NA,3,2,1,"H","visual"
"55","Alien11.bmp",223,"R","",NA,"None",NA,3,2,1,"H","visual"
"56","Alien12.bmp",224,"R","",NA,"None",NA,3,2,1,"H","visual"
"57","Alien9.bmp",225,"R","",NA,"None",NA,3,2,1,"H","visual"
"58","Alien4.bmp",226,"R","",NA,"None",NA,3,2,1,"H","visual"
"59","Alien8.bmp",227,"R","",NA,"None",NA,3,2,1,"H","visual"
"60","Alien9.bmp",228,"R","",NA,"None",NA,3,2,1,"H","visual"
"61","Alien6.bmp",229,"R","",NA,"None",NA,3,2,1,"H","visual"
"62","Alien10.bmp",230,"R","",NA,"None",NA,3,2,1,"H","visual"
"63","Alien3.bmp",231,"R","",NA,"3",0.39191445522,3,2,1,"H","visual"
"64","Alien12.bmp",232,"R","",NA,"None",NA,3,2,1,"H","visual"
"65","Alien6.bmp",233,"R","",NA,"None",NA,3,2,1,"H","visual"
"66","Alien3.bmp",234,"R","",NA,"3",0.600314822514,3,2,1,"H","visual"
"67","Alien8.bmp",235,"R","",NA,"None",NA,3,2,1,"H","visual"
"68","Alien2.bmp",236,"R","",NA,"None",NA,3,2,1,"H","visual"
"69","Alien7.bmp",237,"R","",NA,"None",NA,3,2,1,"H","visual"
"70","Alien1.bmp",238,"R","",NA,"None",NA,3,2,1,"H","visual"
"71","Alien1.bmp",239,"R","",NA,"None",NA,3,2,1,"H","visual"
"72","Alien10.bmp",240,"R","",NA,"None",NA,3,2,1,"H","visual"
"73","M.png",217,"S","None",NA,"",NA,3,2,1,"H","visual"
"74","K.png",218,"S","None",NA,"",NA,3,2,1,"H","visual"
"75","B.png",219,"S","None",NA,"",NA,3,2,1,"H","visual"
"76","D.png",220,"S","None",NA,"",NA,3,2,1,"H","visual"
"77","G.png",221,"S","None",NA,"",NA,3,2,1,"H","visual"
"78","C.png",222,"S","None",NA,"",NA,3,2,1,"H","visual"
"79","E.png",223,"S","None",NA,"",NA,3,2,1,"H","visual"
"80","L.png",224,"S","None",NA,"",NA,3,2,1,"H","visual"
"81","H.png",225,"S","3",0.388961643213,"",NA,3,2,1,"H","visual"
"82","A.png",226,"S","None",NA,"",NA,3,2,1,"H","visual"
"83","J.png",227,"S","None",NA,"",NA,3,2,1,"H","visual"
"84","F.png",228,"S","None",NA,"",NA,3,2,1,"H","visual"
"85","E.png",229,"S","None",NA,"",NA,3,2,1,"H","visual"
"86","L.png",230,"S","None",NA,"",NA,3,2,1,"H","visual"
"87","H.png",231,"S","3",0.572369633708,"",NA,3,2,1,"H","visual"
"88","D.png",232,"S","None",NA,"",NA,3,2,1,"H","visual"
"89","G.png",233,"S","None",NA,"",NA,3,2,1,"H","visual"
"90","C.png",234,"S","None",NA,"",NA,3,2,1,"H","visual"
"91","M.png",235,"S","None",NA,"",NA,3,2,1,"H","visual"
"92","K.png",236,"S","None",NA,"",NA,3,2,1,"H","visual"
"93","B.png",237,"S","None",NA,"",NA,3,2,1,"H","visual"
"94","A.png",238,"S","None",NA,"",NA,3,2,1,"H","visual"
"95","J.png",239,"S","None",NA,"",NA,3,2,1,"H","visual"
"96","F.png",240,"S","None",NA,"",NA,3,2,1,"H","visual"
"97","blank.png",0,"B","",NA,"",NA,3,2,1,"H","visual"
"98","blank.png",0,"B","",NA,"",NA,3,2,1,"H","visual"
"99","blank.png",0,"B","",NA,"",NA,3,2,1,"H","visual"
"100","blank.png",0,"B","",NA,"",NA,3,2,1,"H","visual"
"101","blank.png",0,"B","",NA,"",NA,3,2,1,"H","visual"
"102","blank.png",0,"B","",NA,"",NA,3,2,1,"H","visual"
"103","blank.png",0,"B","",NA,"",NA,3,2,1,"H","visual"
"104","blank.png",0,"B","",NA,"",NA,3,2,1,"H","visual"
"105","blank.png",0,"B","",NA,"",NA,3,2,1,"H","visual"
"106","blank.png",0,"B","",NA,"",NA,3,2,1,"H","visual"
"107","blank.png",0,"B","",NA,"",NA,3,2,1,"H","visual"
"108","blank.png",0,"B","",NA,"",NA,3,2,1,"H","visual"
"109","Alien10.bmp",241,"R","",NA,"None",NA,3,2,1,"H","visual"
"110","Alien8.bmp",242,"R","",NA,"None",NA,3,2,1,"H","visual"
"111","Alien9.bmp",243,"R","",NA,"None",NA,3,2,1,"H","visual"
"112","Alien8.bmp",244,"R","",NA,"None",NA,3,2,1,"H","visual"
"113","Alien4.bmp",245,"R","",NA,"None",NA,3,2,1,"H","visual"
"114","Alien7.bmp",246,"R","",NA,"None",NA,3,2,1,"H","visual"
"115","Alien5.bmp",247,"R","",NA,"None",NA,3,2,1,"H","visual"
"116","Alien4.bmp",248,"R","",NA,"None",NA,3,2,1,"H","visual"
"117","Alien8.bmp",249,"R","",NA,"None",NA,3,2,1,"H","visual"
"118","Alien2.bmp",250,"R","",NA,"None",NA,3,2,1,"H","visual"
"119","Alien12.bmp",251,"R","",NA,"None",NA,3,2,1,"H","visual"
"120","Alien12.bmp",252,"R","",NA,"None",NA,3,2,1,"H","visual"
"121","Alien6.bmp",253,"R","",NA,"None",NA,3,2,1,"H","visual"
"122","Alien7.bmp",254,"R","",NA,"None",NA,3,2,1,"H","visual"
"123","Alien9.bmp",255,"R","",NA,"None",NA,3,2,1,"H","visual"
"124","Alien10.bmp",256,"R","",NA,"None",NA,3,2,1,"H","visual"
"125","Alien3.bmp",257,"R","",NA,"3",0.400320625165,3,2,1,"H","visual"
"126","Alien11.bmp",258,"R","",NA,"None",NA,3,2,1,"H","visual"
"127","Alien9.bmp",259,"R","",NA,"None",NA,3,2,1,"H","visual"
"128","Alien6.bmp",260,"R","",NA,"None",NA,3,2,1,"H","visual"
"129","Alien7.bmp",261,"R","",NA,"None",NA,3,2,1,"H","visual"
"130","Alien1.bmp",262,"R","",NA,"None",NA,3,2,1,"H","visual"
"131","Alien11.bmp",263,"R","",NA,"None",NA,3,2,1,"H","visual"
"132","Alien5.bmp",264,"R","",NA,"None",NA,3,2,1,"H","visual"
"133","E.png",241,"S","None",NA,"",NA,3,2,1,"H","visual"
"134","L.png",242,"S","None",NA,"",NA,3,2,1,"H","visual"
"135","H.png",243,"S","3",0.447968956782,"",NA,3,2,1,"H","visual"
"136","M.png",244,"S","None",NA,"",NA,3,2,1,"H","visual"
"137","K.png",245,"S","None",NA,"",NA,3,2,1,"H","visual"
"138","B.png",246,"S","None",NA,"",NA,3,2,1,"H","visual"
"139","D.png",247,"S","None",NA,"",NA,3,2,1,"H","visual"
"140","G.png",248,"S","None",NA,"",NA,3,2,1,"H","visual"
"141","C.png",249,"S","None",NA,"",NA,3,2,1,"H","visual"
"142","E.png",250,"S","None",NA,"",NA,3,2,1,"H","visual"
"143","L.png",251,"S","None",NA,"",NA,3,2,1,"H","visual"
"144","H.png",252,"S","3",0.472997173667,"",NA,3,2,1,"H","visual"
"145","M.png",253,"S","None",NA,"",NA,3,2,1,"H","visual"
"146","K.png",254,"S","None",NA,"",NA,3,2,1,"H","visual"
"147","B.png",255,"S","None",NA,"",NA,3,2,1,"H","visual"
"148","D.png",256,"S","None",NA,"",NA,3,2,1,"H","visual"
"149","G.png",257,"S","None",NA,"",NA,3,2,1,"H","visual"
"150","C.png",258,"S","None",NA,"",NA,3,2,1,"H","visual"
"151","A.png",259,"S","None",NA,"",NA,3,2,1,"H","visual"
"152","J.png",260,"S","None",NA,"",NA,3,2,1,"H","visual"
"153","F.png",261,"S","None",NA,"",NA,3,2,1,"H","visual"
"154","E.png",262,"S","None",NA,"",NA,3,2,1,"H","visual"
"155","L.png",263,"S","None",NA,"",NA,3,2,1,"H","visual"
"156","H.png",264,"S","None",NA,"",NA,3,2,1,"H","visual"
"157","blank.png",0,"B","",NA,"",NA,3,2,1,"H","visual"
"158","blank.png",0,"B","",NA,"",NA,3,2,1,"H","visual"
"159","blank.png",0,"B","",NA,"",NA,3,2,1,"H","visual"
"160","blank.png",0,"B","",NA,"",NA,3,2,1,"H","visual"
"161","blank.png",0,"B","",NA,"",NA,3,2,1,"H","visual"
"162","blank.png",0,"B","",NA,"",NA,3,2,1,"H","visual"
"163","blank.png",0,"B","",NA,"",NA,3,2,1,"H","visual"
"164","blank.png",0,"B","",NA,"",NA,3,2,1,"H","visual"
"165","blank.png",0,"B","",NA,"",NA,3,2,1,"H","visual"
"166","blank.png",0,"B","",NA,"",NA,3,2,1,"H","visual"
"167","blank.png",0,"B","",NA,"",NA,3,2,1,"H","visual"
"168","blank.png",0,"B","",NA,"",NA,3,2,1,"H","visual"
"169","A.png",265,"S","None",NA,"",NA,3,2,1,"H","visual"
"170","J.png",266,"S","None",NA,"",NA,3,2,1,"H","visual"
"171","F.png",267,"S","None",NA,"",NA,3,2,1,"H","visual"
"172","D.png",268,"S","None",NA,"",NA,3,2,1,"H","visual"
"173","G.png",269,"S","None",NA,"",NA,3,2,1,"H","visual"
"174","C.png",270,"S","None",NA,"",NA,3,2,1,"H","visual"
"175","M.png",271,"S","None",NA,"",NA,3,2,1,"H","visual"
"176","K.png",272,"S","None",NA,"",NA,3,2,1,"H","visual"
"177","B.png",273,"S","None",NA,"",NA,3,2,1,"H","visual"
"178","A.png",274,"S","None",NA,"",NA,3,2,1,"H","visual"
"179","J.png",275,"S","None",NA,"",NA,3,2,1,"H","visual"
"180","F.png",276,"S","None",NA,"",NA,3,2,1,"H","visual"
"181","D.png",277,"S","None",NA,"",NA,3,2,1,"H","visual"
"182","G.png",278,"S","None",NA,"",NA,3,2,1,"H","visual"
"183","C.png",279,"S","None",NA,"",NA,3,2,1,"H","visual"
"184","E.png",280,"S","None",NA,"",NA,3,2,1,"H","visual"
"185","L.png",281,"S","None",NA,"",NA,3,2,1,"H","visual"
"186","H.png",282,"S","3",0.397912807763,"",NA,3,2,1,"H","visual"
"187","M.png",283,"S","None",NA,"",NA,3,2,1,"H","visual"
"188","K.png",284,"S","None",NA,"",NA,3,2,1,"H","visual"
"189","B.png",285,"S","None",NA,"",NA,3,2,1,"H","visual"
"190","A.png",286,"S","None",NA,"",NA,3,2,1,"H","visual"
"191","J.png",287,"S","None",NA,"",NA,3,2,1,"H","visual"
"192","F.png",288,"S","None",NA,"",NA,3,2,1,"H","visual"
"193","blank.png",0,"B","",NA,"",NA,3,2,1,"H","visual"
"194","blank.png",0,"B","",NA,"",NA,3,2,1,"H","visual"
"195","blank.png",0,"B","",NA,"",NA,3,2,1,"H","visual"
"196","blank.png",0,"B","",NA,"",NA,3,2,1,"H","visual"
"197","blank.png",0,"B","",NA,"",NA,3,2,1,"H","visual"
"198","blank.png",0,"B","",NA,"",NA,3,2,1,"H","visual"
"199","blank.png",0,"B","",NA,"",NA,3,2,1,"H","visual"
"200","blank.png",0,"B","",NA,"",NA,3,2,1,"H","visual"
"201","blank.png",0,"B","",NA,"",NA,3,2,1,"H","visual"
"202","blank.png",0,"B","",NA,"",NA,3,2,1,"H","visual"
"203","blank.png",0,"B","",NA,"",NA,3,2,1,"H","visual"
"204","blank.png",0,"B","",NA,"",NA,3,2,1,"H","visual"
"205","M.png",289,"S","None",NA,"",NA,3,2,1,"H","visual"
"206","K.png",290,"S","None",NA,"",NA,3,2,1,"H","visual"
"207","B.png",291,"S","None",NA,"",NA,3,2,1,"H","visual"
"208","A.png",292,"S","None",NA,"",NA,3,2,1,"H","visual"
"209","J.png",293,"S","None",NA,"",NA,3,2,1,"H","visual"
"210","F.png",294,"S","None",NA,"",NA,3,2,1,"H","visual"
"211","D.png",295,"S","None",NA,"",NA,3,2,1,"H","visual"
"212","G.png",296,"S","None",NA,"",NA,3,2,1,"H","visual"
"213","C.png",297,"S","None",NA,"",NA,3,2,1,"H","visual"
"214","M.png",298,"S","None",NA,"",NA,3,2,1,"H","visual"
"215","K.png",299,"S","None",NA,"",NA,3,2,1,"H","visual"
"216","B.png",300,"S","None",NA,"",NA,3,2,1,"H","visual"
"217","E.png",301,"S","None",NA,"",NA,3,2,1,"H","visual"
"218","L.png",302,"S","None",NA,"",NA,3,2,1,"H","visual"
"219","H.png",303,"S","3",0.481238935143,"",NA,3,2,1,"H","visual"
"220","A.png",304,"S","None",NA,"",NA,3,2,1,"H","visual"
"221","J.png",305,"S","None",NA,"",NA,3,2,1,"H","visual"
"222","F.png",306,"S","None",NA,"",NA,3,2,1,"H","visual"
"223","D.png",307,"S","None",NA,"",NA,3,2,1,"H","visual"
"224","G.png",308,"S","None",NA,"",NA,3,2,1,"H","visual"
"225","C.png",309,"S","None",NA,"",NA,3,2,1,"H","visual"
"226","M.png",310,"S","None",NA,"",NA,3,2,1,"H","visual"
"227","K.png",311,"S","None",NA,"",NA,3,2,1,"H","visual"
"228","B.png",312,"S","None",NA,"",NA,3,2,1,"H","visual"
"229","blank.png",0,"B","",NA,"",NA,3,2,1,"H","visual"
"230","blank.png",0,"B","",NA,"",NA,3,2,1,"H","visual"
"231","blank.png",0,"B","",NA,"",NA,3,2,1,"H","visual"
"232","blank.png",0,"B","",NA,"",NA,3,2,1,"H","visual"
"233","blank.png",0,"B","",NA,"",NA,3,2,1,"H","visual"
"234","blank.png",0,"B","",NA,"",NA,3,2,1,"H","visual"
"235","blank.png",0,"B","",NA,"",NA,3,2,1,"H","visual"
"236","blank.png",0,"B","",NA,"",NA,3,2,1,"H","visual"
"237","blank.png",0,"B","",NA,"",NA,3,2,1,"H","visual"
"238","blank.png",0,"B","",NA,"",NA,3,2,1,"H","visual"
"239","blank.png",0,"B","",NA,"",NA,3,2,1,"H","visual"
"240","blank.png",0,"B","",NA,"",NA,3,2,1,"H","visual"
"241","Alien11.bmp",265,"R","",NA,"None",NA,3,2,1,"H","visual"
"242","Alien6.bmp",266,"R","",NA,"None",NA,3,2,1,"H","visual"
"243","Alien10.bmp",267,"R","",NA,"None",NA,3,2,1,"H","visual"
"244","Alien4.bmp",268,"R","",NA,"None",NA,3,2,1,"H","visual"
"245","Alien11.bmp",269,"R","",NA,"None",NA,3,2,1,"H","visual"
"246","Alien6.bmp",270,"R","",NA,"None",NA,3,2,1,"H","visual"
"247","Alien2.bmp",271,"R","",NA,"None",NA,3,2,1,"H","visual"
"248","Alien12.bmp",272,"R","",NA,"None",NA,3,2,1,"H","visual"
"249","Alien12.bmp",273,"R","",NA,"None",NA,3,2,1,"H","visual"
"250","Alien4.bmp",274,"R","",NA,"None",NA,3,2,1,"H","visual"
"251","Alien3.bmp",275,"R","",NA,"None",NA,3,2,1,"H","visual"
"252","Alien9.bmp",276,"R","",NA,"None",NA,3,2,1,"H","visual"
"253","Alien2.bmp",277,"R","",NA,"None",NA,3,2,1,"H","visual"
"254","Alien8.bmp",278,"R","",NA,"None",NA,3,2,1,"H","visual"
"255","Alien5.bmp",279,"R","",NA,"None",NA,3,2,1,"H","visual"
"256","Alien4.bmp",280,"R","",NA,"None",NA,3,2,1,"H","visual"
"257","Alien3.bmp",281,"R","",NA,"3",0.458641860168,3,2,1,"H","visual"
"258","Alien1.bmp",282,"R","",NA,"None",NA,3,2,1,"H","visual"
"259","Alien1.bmp",283,"R","",NA,"None",NA,3,2,1,"H","visual"
"260","Alien7.bmp",284,"R","",NA,"None",NA,3,2,1,"H","visual"
"261","Alien6.bmp",285,"R","",NA,"None",NA,3,2,1,"H","visual"
"262","Alien5.bmp",286,"R","",NA,"None",NA,3,2,1,"H","visual"
"263","Alien10.bmp",287,"R","",NA,"None",NA,3,2,1,"H","visual"
"264","Alien5.bmp",288,"R","",NA,"None",NA,3,2,1,"H","visual"
"265","blank.png",0,"B","",NA,"None",NA,3,2,1,"H","visual"
"266","blank.png",0,"B","",NA,"None",NA,3,2,1,"H","visual"
"267","blank.png",0,"B","",NA,"None",NA,3,2,1,"H","visual"
"268","blank.png",0,"B","",NA,"None",NA,3,2,1,"H","visual"
"269","blank.png",0,"B","",NA,"None",NA,3,2,1,"H","visual"
"270","blank.png",0,"B","",NA,"None",NA,3,2,1,"H","visual"
"271","blank.png",0,"B","",NA,"None",NA,3,2,1,"H","visual"
"272","blank.png",0,"B","",NA,"None",NA,3,2,1,"H","visual"
"273","blank.png",0,"B","",NA,"None",NA,3,2,1,"H","visual"
"274","blank.png",0,"B","",NA,"None",NA,3,2,1,"H","visual"
"275","blank.png",0,"B","",NA,"None",NA,3,2,1,"H","visual"
"276","blank.png",0,"B","",NA,"None",NA,3,2,1,"H","visual"
"277","Alien6.bmp",289,"R","",NA,"None",NA,3,2,1,"H","visual"
"278","Alien12.bmp",290,"R","",NA,"None",NA,3,2,1,"H","visual"
"279","Alien6.bmp",291,"R","",NA,"None",NA,3,2,1,"H","visual"
"280","Alien5.bmp",292,"R","",NA,"None",NA,3,2,1,"H","visual"
"281","Alien8.bmp",293,"R","",NA,"None",NA,3,2,1,"H","visual"
"282","Alien10.bmp",294,"R","",NA,"None",NA,3,2,1,"H","visual"
"283","Alien8.bmp",295,"R","",NA,"None",NA,3,2,1,"H","visual"
"284","Alien7.bmp",296,"R","",NA,"None",NA,3,2,1,"H","visual"
"285","Alien10.bmp",297,"R","",NA,"None",NA,3,2,1,"H","visual"
"286","Alien5.bmp",298,"R","",NA,"None",NA,3,2,1,"H","visual"
"287","Alien2.bmp",299,"R","",NA,"None",NA,3,2,1,"H","visual"
"288","Alien7.bmp",300,"R","",NA,"None",NA,3,2,1,"H","visual"
"289","Alien9.bmp",301,"R","",NA,"None",NA,3,2,1,"H","visual"
"290","Alien9.bmp",302,"R","",NA,"None",NA,3,2,1,"H","visual"
"291","Alien12.bmp",303,"R","",NA,"None",NA,3,2,1,"H","visual"
"292","Alien11.bmp",304,"R","",NA,"None",NA,3,2,1,"H","visual"
"293","Alien11.bmp",305,"R","",NA,"None",NA,3,2,1,"H","visual"
"294","Alien4.bmp",306,"R","",NA,"None",NA,3,2,1,"H","visual"
"295","Alien3.bmp",307,"R","",NA,"3",0.625217315275,3,2,1,"H","visual"
"296","Alien7.bmp",308,"R","",NA,"None",NA,3,2,1,"H","visual"
"297","Alien8.bmp",309,"R","",NA,"None",NA,3,2,1,"H","visual"
"298","Alien1.bmp",310,"R","",NA,"None",NA,3,2,1,"H","visual"
"299","Alien9.bmp",311,"R","",NA,"None",NA,3,2,1,"H","visual"
"300","Alien4.bmp",312,"R","",NA,"None",NA,3,2,1,"H","visual"
"301","blank.png",0,"B","",NA,"None",NA,3,2,1,"H","visual"
"302","blank.png",0,"B","",NA,"None",NA,3,2,1,"H","visual"
"303","blank.png",0,"B","",NA,"None",NA,3,2,1,"H","visual"
"304","blank.png",0,"B","",NA,"None",NA,3,2,1,"H","visual"
"305","blank.png",0,"B","",NA,"None",NA,3,2,1,"H","visual"
"306","blank.png",0,"B","",NA,"None",NA,3,2,1,"H","visual"
"307","blank.png",0,"B","",NA,"None",NA,3,2,1,"H","visual"
"308","blank.png",0,"B","",NA,"None",NA,3,2,1,"H","visual"
"309","blank.png",0,"B","",NA,"None",NA,3,2,1,"H","visual"
"310","blank.png",0,"B","",NA,"None",NA,3,2,1,"H","visual"
"311","blank.png",0,"B","",NA,"None",NA,3,2,1,"H","visual"
"312","blank.png",0,"B","",NA,"None",NA,3,2,1,"H","visual"
"313","E.png",313,"S","None",NA,"",NA,3,2,1,"H","visual"
"314","L.png",314,"S","None",NA,"",NA,3,2,1,"H","visual"
"315","H.png",315,"S","3",0.455797705799,"",NA,3,2,1,"H","visual"
"316","A.png",316,"S","None",NA,"",NA,3,2,1,"H","visual"
"317","J.png",317,"S","None",NA,"",NA,3,2,1,"H","visual"
"318","F.png",318,"S","None",NA,"",NA,3,2,1,"H","visual"
"319","E.png",319,"S","None",NA,"",NA,3,2,1,"H","visual"
"320","L.png",320,"S","None",NA,"",NA,3,2,1,"H","visual"
"321","H.png",321,"S","3",0.714119111421,"",NA,3,2,1,"H","visual"
"322","D.png",322,"S","None",NA,"",NA,3,2,1,"H","visual"
"323","G.png",323,"S","None",NA,"",NA,3,2,1,"H","visual"
"324","C.png",324,"S","None",NA,"",NA,3,2,1,"H","visual"
"325","M.png",325,"S","None",NA,"",NA,3,2,1,"H","visual"
"326","K.png",326,"S","None",NA,"",NA,3,2,1,"H","visual"
"327","B.png",327,"S","None",NA,"",NA,3,2,1,"H","visual"
"328","D.png",328,"S","None",NA,"",NA,3,2,1,"H","visual"
"329","G.png",329,"S","None",NA,"",NA,3,2,1,"H","visual"
"330","C.png",330,"S","None",NA,"",NA,3,2,1,"H","visual"
"331","M.png",331,"S","None",NA,"",NA,3,2,1,"H","visual"
"332","K.png",332,"S","None",NA,"",NA,3,2,1,"H","visual"
"333","B.png",333,"S","None",NA,"",NA,3,2,1,"H","visual"
"334","E.png",334,"S","None",NA,"",NA,3,2,1,"H","visual"
"335","L.png",335,"S","3",0.697585526621,"",NA,3,2,1,"H","visual"
"336","H.png",336,"S","3",0.564569044625,"",NA,3,2,1,"H","visual"
"337","blank.png",0,"B","",NA,"",NA,3,2,1,"H","visual"
"338","blank.png",0,"B","",NA,"",NA,3,2,1,"H","visual"
"339","blank.png",0,"B","",NA,"",NA,3,2,1,"H","visual"
"340","blank.png",0,"B","",NA,"",NA,3,2,1,"H","visual"
"341","blank.png",0,"B","",NA,"",NA,3,2,1,"H","visual"
"342","blank.png",0,"B","",NA,"",NA,3,2,1,"H","visual"
"343","blank.png",0,"B","",NA,"",NA,3,2,1,"H","visual"
"344","blank.png",0,"B","",NA,"",NA,3,2,1,"H","visual"
"345","blank.png",0,"B","",NA,"",NA,3,2,1,"H","visual"
"346","blank.png",0,"B","",NA,"",NA,3,2,1,"H","visual"
"347","blank.png",0,"B","",NA,"",NA,3,2,1,"H","visual"
"348","blank.png",0,"B","",NA,"",NA,3,2,1,"H","visual"
"349","Alien2.bmp",337,"R","",NA,"None",NA,3,2,1,"H","visual"
"350","Alien6.bmp",338,"R","",NA,"None",NA,3,2,1,"H","visual"
"351","Alien11.bmp",339,"R","",NA,"None",NA,3,2,1,"H","visual"
"352","Alien8.bmp",340,"R","",NA,"None",NA,3,2,1,"H","visual"
"353","Alien1.bmp",341,"R","",NA,"None",NA,3,2,1,"H","visual"
"354","Alien10.bmp",342,"R","",NA,"None",NA,3,2,1,"H","visual"
"355","Alien3.bmp",343,"R","",NA,"3",0.525237852009,3,2,1,"H","visual"
"356","Alien4.bmp",344,"R","",NA,"None",NA,3,2,1,"H","visual"
"357","Alien11.bmp",345,"R","",NA,"None",NA,3,2,1,"H","visual"
"358","Alien12.bmp",346,"R","",NA,"None",NA,3,2,1,"H","visual"
"359","Alien10.bmp",347,"R","",NA,"None",NA,3,2,1,"H","visual"
"360","Alien3.bmp",348,"R","",NA,"3",0.68367223884,3,2,1,"H","visual"
"361","Alien7.bmp",349,"R","",NA,"None",NA,3,2,1,"H","visual"
"362","Alien8.bmp",350,"R","",NA,"None",NA,3,2,1,"H","visual"
"363","Alien2.bmp",351,"R","",NA,"None",NA,3,2,1,"H","visual"
"364","Alien6.bmp",352,"R","",NA,"None",NA,3,2,1,"H","visual"
"365","Alien7.bmp",353,"R","",NA,"None",NA,3,2,1,"H","visual"
"366","Alien5.bmp",354,"R","",NA,"None",NA,3,2,1,"H","visual"
"367","Alien9.bmp",355,"R","",NA,"None",NA,3,2,1,"H","visual"
"368","Alien9.bmp",356,"R","",NA,"None",NA,3,2,1,"H","visual"
"369","Alien5.bmp",357,"R","",NA,"None",NA,3,2,1,"H","visual"
"370","Alien4.bmp",358,"R","",NA,"None",NA,3,2,1,"H","visual"
"371","Alien12.bmp",359,"R","",NA,"None",NA,3,2,1,"H","visual"
"372","Alien1.bmp",360,"R","",NA,"None",NA,3,2,1,"H","visual"
"373","A.png",337,"S","None",NA,"",NA,3,2,1,"H","visual"
"374","J.png",338,"S","None",NA,"",NA,3,2,1,"H","visual"
"375","F.png",339,"S","None",NA,"",NA,3,2,1,"H","visual"
"376","D.png",340,"S","None",NA,"",NA,3,2,1,"H","visual"
"377","G.png",341,"S","None",NA,"",NA,3,2,1,"H","visual"
"378","C.png",342,"S","None",NA,"",NA,3,2,1,"H","visual"
"379","M.png",343,"S","None",NA,"",NA,3,2,1,"H","visual"
"380","K.png",344,"S","None",NA,"",NA,3,2,1,"H","visual"
"381","B.png",345,"S","None",NA,"",NA,3,2,1,"H","visual"
"382","E.png",346,"S","None",NA,"",NA,3,2,1,"H","visual"
"383","L.png",347,"S","None",NA,"",NA,3,2,1,"H","visual"
"384","H.png",348,"S","3",0.464622292668,"",NA,3,2,1,"H","visual"
"385","A.png",349,"S","None",NA,"",NA,3,2,1,"H","visual"
"386","J.png",350,"S","None",NA,"",NA,3,2,1,"H","visual"
"387","F.png",351,"S","None",NA,"",NA,3,2,1,"H","visual"
"388","E.png",352,"S","None",NA,"",NA,3,2,1,"H","visual"
"389","L.png",353,"S","None",NA,"",NA,3,2,1,"H","visual"
"390","H.png",354,"S","3",0.23075338942,"",NA,3,2,1,"H","visual"
"391","M.png",355,"S","None",NA,"",NA,3,2,1,"H","visual"
"392","K.png",356,"S","None",NA,"",NA,3,2,1,"H","visual"
"393","B.png",357,"S","None",NA,"",NA,3,2,1,"H","visual"
"394","D.png",358,"S","None",NA,"",NA,3,2,1,"H","visual"
"395","G.png",359,"S","None",NA,"",NA,3,2,1,"H","visual"
"396","C.png",360,"S","None",NA,"",NA,3,2,1,"H","visual"
"397","blank.png",0,"B","",NA,"",NA,3,2,1,"H","visual"
"398","blank.png",0,"B","",NA,"",NA,3,2,1,"H","visual"
"399","blank.png",0,"B","",NA,"",NA,3,2,1,"H","visual"
"400","blank.png",0,"B","",NA,"",NA,3,2,1,"H","visual"
"401","blank.png",0,"B","",NA,"",NA,3,2,1,"H","visual"
"402","blank.png",0,"B","",NA,"",NA,3,2,1,"H","visual"
"403","blank.png",0,"B","",NA,"",NA,3,2,1,"H","visual"
"404","blank.png",0,"B","",NA,"",NA,3,2,1,"H","visual"
"405","blank.png",0,"B","",NA,"",NA,3,2,1,"H","visual"
"406","blank.png",0,"B","",NA,"",NA,3,2,1,"H","visual"
"407","blank.png",0,"B","",NA,"",NA,3,2,1,"H","visual"
"408","blank.png",0,"B","",NA,"",NA,3,2,1,"H","visual"
"409","Alien11.bmp",313,"R","",NA,"None",NA,3,2,1,"H","visual"
"410","Alien10.bmp",314,"R","",NA,"None",NA,3,2,1,"H","visual"
"411","Alien6.bmp",315,"R","",NA,"None",NA,3,2,1,"H","visual"
"412","Alien1.bmp",316,"R","",NA,"None",NA,3,2,1,"H","visual"
"413","Alien12.bmp",317,"R","",NA,"None",NA,3,2,1,"H","visual"
"414","Alien11.bmp",318,"R","",NA,"None",NA,3,2,1,"H","visual"
"415","Alien1.bmp",319,"R","",NA,"None",NA,3,2,1,"H","visual"
"416","Alien7.bmp",320,"R","",NA,"None",NA,3,2,1,"H","visual"
"417","Alien2.bmp",321,"R","",NA,"None",NA,3,2,1,"H","visual"
"418","Alien9.bmp",322,"R","",NA,"None",NA,3,2,1,"H","visual"
"419","Alien3.bmp",323,"R","",NA,"3",0.425180451246,3,2,1,"H","visual"
"420","Alien8.bmp",324,"R","",NA,"None",NA,3,2,1,"H","visual"
"421","Alien4.bmp",325,"R","",NA,"None",NA,3,2,1,"H","visual"
"422","Alien8.bmp",326,"R","",NA,"None",NA,3,2,1,"H","visual"
"423","Alien7.bmp",327,"R","",NA,"None",NA,3,2,1,"H","visual"
"424","Alien12.bmp",328,"R","",NA,"None",NA,3,2,1,"H","visual"
"425","Alien5.bmp",329,"R","",NA,"None",NA,3,2,1,"H","visual"
"426","Alien3.bmp",330,"R","",NA,"3",0.491950522875,3,2,1,"H","visual"
"427","Alien2.bmp",331,"R","",NA,"None",NA,3,2,1,"H","visual"
"428","Alien2.bmp",332,"R","",NA,"None",NA,3,2,1,"H","visual"
"429","Alien3.bmp",333,"R","",NA,"3",0.641911895247,3,2,1,"H","visual"
"430","Alien9.bmp",334,"R","",NA,"None",NA,3,2,1,"H","visual"
"431","Alien10.bmp",335,"R","",NA,"None",NA,3,2,1,"H","visual"
"432","Alien1.bmp",336,"R","",NA,"None",NA,3,2,1,"H","visual"
"433","blank.png",0,"B","",NA,"None",NA,3,2,1,"H","visual"
"434","blank.png",0,"B","",NA,"None",NA,3,2,1,"H","visual"
"435","blank.png",0,"B","",NA,"None",NA,3,2,1,"H","visual"
"436","blank.png",0,"B","",NA,"None",NA,3,2,1,"H","visual"
"437","blank.png",0,"B","",NA,"None",NA,3,2,1,"H","visual"
"438","blank.png",0,"B","",NA,"None",NA,3,2,1,"H","visual"
"439","blank.png",0,"B","",NA,"None",NA,3,2,1,"H","visual"
"440","blank.png",0,"B","",NA,"None",NA,3,2,1,"H","visual"
"441","blank.png",0,"B","",NA,"None",NA,3,2,1,"H","visual"
"442","blank.png",0,"B","",NA,"None",NA,3,2,1,"H","visual"
"443","blank.png",0,"B","",NA,"None",NA,3,2,1,"H","visual"
"444","blank.png",0,"B","",NA,"None",NA,3,2,1,"H","visual"
"445","A.png",361,"S","None",NA,"",NA,3,2,1,"H","visual"
"446","J.png",362,"S","None",NA,"",NA,3,2,1,"H","visual"
"447","F.png",363,"S","None",NA,"",NA,3,2,1,"H","visual"
"448","M.png",364,"S","None",NA,"",NA,3,2,1,"H","visual"
"449","K.png",365,"S","None",NA,"",NA,3,2,1,"H","visual"
"450","B.png",366,"S","None",NA,"",NA,3,2,1,"H","visual"
"451","E.png",367,"S","None",NA,"",NA,3,2,1,"H","visual"
"452","L.png",368,"S","3",0.372329356382,"",NA,3,2,1,"H","visual"
"453","H.png",369,"S","3",0.231212197337,"",NA,3,2,1,"H","visual"
"454","D.png",370,"S","None",NA,"",NA,3,2,1,"H","visual"
"455","G.png",371,"S","None",NA,"",NA,3,2,1,"H","visual"
"456","C.png",372,"S","None",NA,"",NA,3,2,1,"H","visual"
"457","A.png",373,"S","None",NA,"",NA,3,2,1,"H","visual"
"458","J.png",374,"S","None",NA,"",NA,3,2,1,"H","visual"
"459","F.png",375,"S","None",NA,"",NA,3,2,1,"H","visual"
"460","E.png",376,"S","None",NA,"",NA,3,2,1,"H","visual"
"461","L.png",377,"S","None",NA,"",NA,3,2,1,"H","visual"
"462","H.png",378,"S","3",0.462942367187,"",NA,3,2,1,"H","visual"
"463","D.png",382,"S","None",NA,"",NA,3,2,1,"H","visual"
"464","G.png",383,"S","None",NA,"",NA,3,2,1,"H","visual"
"465","C.png",384,"S","None",NA,"",NA,3,2,1,"H","visual"
"466","A.png",388,"S","None",NA,"",NA,3,2,1,"H","visual"
"467","J.png",389,"S","None",NA,"",NA,3,2,1,"H","visual"
"468","F.png",390,"S","None",NA,"",NA,3,2,1,"H","visual"
"469","Alien10.bmp",361,"R","",NA,"None",NA,3,2,1,"H","visual"
"470","Alien12.bmp",362,"R","",NA,"None",NA,3,2,1,"H","visual"
"471","Alien2.bmp",363,"R","",NA,"None",NA,3,2,1,"H","visual"
"472","Alien2.bmp",364,"R","",NA,"None",NA,3,2,1,"H","visual"
"473","Alien3.bmp",365,"R","",NA,"3",0.750217030756,3,2,1,"H","visual"
"474","Alien1.bmp",366,"R","",NA,"None",NA,3,2,1,"H","visual"
"475","Alien3.bmp",367,"R","",NA,"3",0.525257194182,3,2,1,"H","visual"
"476","Alien6.bmp",368,"R","",NA,"None",NA,3,2,1,"H","visual"
"477","Alien11.bmp",369,"R","",NA,"None",NA,3,2,1,"H","visual"
"478","Alien10.bmp",370,"R","",NA,"None",NA,3,2,1,"H","visual"
"479","Alien4.bmp",371,"R","",NA,"None",NA,3,2,1,"H","visual"
"480","Alien9.bmp",372,"R","",NA,"None",NA,3,2,1,"H","visual"
"481","Alien7.bmp",373,"R","",NA,"None",NA,3,2,1,"H","visual"
"482","Alien1.bmp",374,"R","",NA,"None",NA,3,2,1,"H","visual"
"483","Alien12.bmp",375,"R","",NA,"None",NA,3,2,1,"H","visual"
"484","Alien2.bmp",376,"R","",NA,"None",NA,3,2,1,"H","visual"
"485","Alien1.bmp",377,"R","",NA,"None",NA,3,2,1,"H","visual"
"486","Alien4.bmp",378,"R","",NA,"None",NA,3,2,1,"H","visual"
"487","Alien5.bmp",379,"R","",NA,"None",NA,3,2,1,"H","visual"
"488","Alien11.bmp",380,"R","",NA,"None",NA,3,2,1,"H","visual"
"489","Alien3.bmp",381,"R","",NA,"3",0.467062821146,3,2,1,"H","visual"
"490","Alien6.bmp",382,"R","",NA,"None",NA,3,2,1,"H","visual"
"491","Alien8.bmp",383,"R","",NA,"None",NA,3,2,1,"H","visual"
"492","Alien5.bmp",384,"R","",NA,"None",NA,3,2,1,"H","visual"
