"rt","responses","trial_type","trial_index","time_elapsed","internal_node_id","cond","targ","value","key_press","stimulus"
"26150","{""Q0"":""blast_a_001""}","survey-text","0","26162","0.0-0.0","lang2","do","","",""
"","","call-function","1","27166","0.0-1.0","lang2","do","Tue May 01 2018 19:54:30 GMT-0400 (EDT)","",""
"13424","","text","2","40592","0.0-2.0","lang2","do","","32",""
"15416.734693877552","","audio-keyboard-response","3","57126","0.0-3.0","lang2","do","","32","sound/ssl_instr2.wav"
"8537.823129251692","","audio-keyboard-response","4","66767","0.0-4.0","lang2","do","","32","sound/ssl_instr3.wav"
"14702.721088435383","","audio-keyboard-response","5","82632","0.0-5.0","lang2","do","","32","sound/ssl_instr4.wav"
"9890.385487528363","","audio-keyboard-response","6","93632","0.0-6.0","lang2","do","","32","sound/ssl_instr5.wav"
"6987.891156462595","","audio-keyboard-response","7","101725","0.0-7.0","lang2","do","","32","sound/do.wav"
"2860.5442176870783","","audio-keyboard-response","8","105693","0.0-8.0","lang2","do","","32","sound/ssl_instr6.wav"
"741.723356009075","","audio-keyboard-response","9","107539","0.0-9.0","lang2","do","","32","sound/do.wav"
"18023.17460317461","","audio-keyboard-response","10","126672","0.0-10.0","lang2","do","","32","sound/ssl_instr7.wav"
"-1000","","audio-keyboard-response","11","128137","0.0-11.0-0.0","lang2","do","","-1","sound/pa.wav"
"-1000","","audio-keyboard-response","12","128618","0.0-11.0-1.0","lang2","do","","-1","sound/bi.wav"
"-1000","","audio-keyboard-response","13","129099","0.0-11.0-2.0","lang2","do","","-1","sound/ku.wav"
"-1000","","audio-keyboard-response","14","129582","0.0-11.0-3.0","lang2","do","","-1","sound/go.wav"
"-1000","","audio-keyboard-response","15","130063","0.0-11.0-4.0","lang2","do","","-1","sound/la.wav"
"-1000","","audio-keyboard-response","16","130545","0.0-11.0-5.0","lang2","do","","-1","sound/tu.wav"
"-1000","","audio-keyboard-response","17","131027","0.0-11.0-6.0","lang2","do","","-1","sound/pa.wav"
"-1000","","audio-keyboard-response","18","131509","0.0-11.0-7.0","lang2","do","","-1","sound/bi.wav"
"-1000","","audio-keyboard-response","19","131991","0.0-11.0-8.0","lang2","do","","-1","sound/ku.wav"
"-1000","","audio-keyboard-response","20","132473","0.0-11.0-9.0","lang2","do","","-1","sound/da.wav"
"-1000","","audio-keyboard-response","21","132956","0.0-11.0-10.0","lang2","do","","-1","sound/ro.wav"
"-1000","","audio-keyboard-response","22","133441","0.0-11.0-11.0","lang2","do","","-1","sound/pi.wav"
"-1000","","audio-keyboard-response","23","133924","0.0-11.0-12.0","lang2","do","","-1","sound/ti.wav"
"-1000","","audio-keyboard-response","24","134408","0.0-11.0-13.0","lang2","do","","-1","sound/bu.wav"
"-1000","","audio-keyboard-response","25","134893","0.0-11.0-14.0","lang2","do","","-1","sound/do.wav"
"33.51473922904802","","audio-keyboard-response","26","135378","0.0-11.0-15.0","lang2","do","","32","sound/da.wav"
"-1000","","audio-keyboard-response","27","135862","0.0-11.0-16.0","lang2","do","","-1","sound/ro.wav"
"-1000","","audio-keyboard-response","28","136344","0.0-11.0-17.0","lang2","do","","-1","sound/pi.wav"
"-1000","","audio-keyboard-response","29","136831","0.0-11.0-18.0","lang2","do","","-1","sound/go.wav"
"-1000","","audio-keyboard-response","30","137313","0.0-11.0-19.0","lang2","do","","-1","sound/la.wav"
"-1000","","audio-keyboard-response","31","137798","0.0-11.0-20.0","lang2","do","","-1","sound/tu.wav"
"-1000","","audio-keyboard-response","32","138283","0.0-11.0-21.0","lang2","do","","-1","sound/ti.wav"
"-1000","","audio-keyboard-response","33","138768","0.0-11.0-22.0","lang2","do","","-1","sound/bu.wav"
"-1000","","audio-keyboard-response","34","139252","0.0-11.0-23.0","lang2","do","","-1","sound/do.wav"
"230.8843537414873","","audio-keyboard-response","35","139736","0.0-11.0-24.0","lang2","do","","32","sound/pa.wav"
"-1000","","audio-keyboard-response","36","140221","0.0-11.0-25.0","lang2","do","","-1","sound/bi.wav"
"-1000","","audio-keyboard-response","37","140707","0.0-11.0-26.0","lang2","do","","-1","sound/ku.wav"
"-1000","","audio-keyboard-response","38","141191","0.0-11.0-27.0","lang2","do","","-1","sound/ti.wav"
"-1000","","audio-keyboard-response","39","141676","0.0-11.0-28.0","lang2","do","","-1","sound/bu.wav"
"-1000","","audio-keyboard-response","40","142160","0.0-11.0-29.0","lang2","do","","-1","sound/do.wav"
"-1000","","audio-keyboard-response","41","142646","0.0-11.0-30.0","lang2","do","","-1","sound/da.wav"
"-1000","","audio-keyboard-response","42","143130","0.0-11.0-31.0","lang2","do","","-1","sound/ro.wav"
"-1000","","audio-keyboard-response","43","143615","0.0-11.0-32.0","lang2","do","","-1","sound/pi.wav"
"-1000","","audio-keyboard-response","44","144099","0.0-11.0-33.0","lang2","do","","-1","sound/pa.wav"
"-1000","","audio-keyboard-response","45","144582","0.0-11.0-34.0","lang2","do","","-1","sound/bi.wav"
"-1000","","audio-keyboard-response","46","145067","0.0-11.0-35.0","lang2","do","","-1","sound/ku.wav"
"-1000","","audio-keyboard-response","47","145549","0.0-11.0-36.0","lang2","do","","-1","sound/go.wav"
"-1000","","audio-keyboard-response","48","146030","0.0-11.0-37.0","lang2","do","","-1","sound/la.wav"
"-1000","","audio-keyboard-response","49","146512","0.0-11.0-38.0","lang2","do","","-1","sound/tu.wav"
"-1000","","audio-keyboard-response","50","146994","0.0-11.0-39.0","lang2","do","","-1","sound/da.wav"
"-1000","","audio-keyboard-response","51","147479","0.0-11.0-40.0","lang2","do","","-1","sound/ro.wav"
"-1000","","audio-keyboard-response","52","147963","0.0-11.0-41.0","lang2","do","","-1","sound/pi.wav"
"-1000","","audio-keyboard-response","53","148446","0.0-11.0-42.0","lang2","do","","-1","sound/ti.wav"
"283.1292517007","","audio-keyboard-response","54","148927","0.0-11.0-43.0","lang2","do","","32","sound/bu.wav"
"-1000","","audio-keyboard-response","55","149409","0.0-11.0-44.0","lang2","do","","-1","sound/do.wav"
"-1000","","audio-keyboard-response","56","149894","0.0-11.0-45.0","lang2","do","","-1","sound/go.wav"
"-1.3151927437604627","","audio-keyboard-response","57","150378","0.0-11.0-46.0","lang2","do","","32","sound/la.wav"
"-1000","","audio-keyboard-response","58","150861","0.0-11.0-47.0","lang2","do","","-1","sound/tu.wav"
"-1000","","audio-keyboard-response","59","151343","0.0-11.0-48.0","lang2","do","","-1","sound/pa.wav"
"-1000","","audio-keyboard-response","60","151824","0.0-11.0-49.0","lang2","do","","-1","sound/bi.wav"
"-1000","","audio-keyboard-response","61","152305","0.0-11.0-50.0","lang2","do","","-1","sound/ku.wav"
"-1000","","audio-keyboard-response","62","152787","0.0-11.0-51.0","lang2","do","","-1","sound/da.wav"
"-53.56009070294476","","audio-keyboard-response","63","153269","0.0-11.0-52.0","lang2","do","","32","sound/ro.wav"
"-1000","","audio-keyboard-response","64","153751","0.0-11.0-53.0","lang2","do","","-1","sound/pi.wav"
"-1000","","audio-keyboard-response","65","154232","0.0-11.0-54.0","lang2","do","","-1","sound/go.wav"
"-1000","","audio-keyboard-response","66","154714","0.0-11.0-55.0","lang2","do","","-1","sound/la.wav"
"-1000","","audio-keyboard-response","67","155196","0.0-11.0-56.0","lang2","do","","-1","sound/tu.wav"
"-1000","","audio-keyboard-response","68","155678","0.0-11.0-57.0","lang2","do","","-1","sound/ti.wav"
"-1000","","audio-keyboard-response","69","156161","0.0-11.0-58.0","lang2","do","","-1","sound/bu.wav"
"-1000","","audio-keyboard-response","70","156642","0.0-11.0-59.0","lang2","do","","-1","sound/do.wav"
"219.2743764172178","","audio-keyboard-response","71","157124","0.0-11.0-60.0","lang2","do","","32","sound/pa.wav"
"-1000","","audio-keyboard-response","72","157606","0.0-11.0-61.0","lang2","do","","-1","sound/bi.wav"
"-1000","","audio-keyboard-response","73","158088","0.0-11.0-62.0","lang2","do","","-1","sound/ku.wav"
"-1000","","audio-keyboard-response","74","158570","0.0-11.0-63.0","lang2","do","","-1","sound/go.wav"
"-1000","","audio-keyboard-response","75","159052","0.0-11.0-64.0","lang2","do","","-1","sound/la.wav"
"-1000","","audio-keyboard-response","76","159534","0.0-11.0-65.0","lang2","do","","-1","sound/tu.wav"
"-1000","","audio-keyboard-response","77","160015","0.0-11.0-66.0","lang2","do","","-1","sound/ti.wav"
"-1000","","audio-keyboard-response","78","160497","0.0-11.0-67.0","lang2","do","","-1","sound/bu.wav"
"-1000","","audio-keyboard-response","79","160982","0.0-11.0-68.0","lang2","do","","-1","sound/do.wav"
"108.97959183674288","","audio-keyboard-response","80","161465","0.0-11.0-69.0","lang2","do","","32","sound/da.wav"
"-1000","","audio-keyboard-response","81","161946","0.0-11.0-70.0","lang2","do","","-1","sound/ro.wav"
"-1000","","audio-keyboard-response","82","162428","0.0-11.0-71.0","lang2","do","","-1","sound/pi.wav"
"-1000","","audio-keyboard-response","83","162910","0.0-11.0-72.0","lang2","do","","-1","sound/pa.wav"
"-1000","","audio-keyboard-response","84","163392","0.0-11.0-73.0","lang2","do","","-1","sound/bi.wav"
"-1000","","audio-keyboard-response","85","163873","0.0-11.0-74.0","lang2","do","","-1","sound/ku.wav"
"-1000","","audio-keyboard-response","86","164354","0.0-11.0-75.0","lang2","do","","-1","sound/da.wav"
"-1000","","audio-keyboard-response","87","164837","0.0-11.0-76.0","lang2","do","","-1","sound/ro.wav"
"-1000","","audio-keyboard-response","88","165319","0.0-11.0-77.0","lang2","do","","-1","sound/pi.wav"
"-1000","","audio-keyboard-response","89","165803","0.0-11.0-78.0","lang2","do","","-1","sound/go.wav"
"-1000","","audio-keyboard-response","90","166288","0.0-11.0-79.0","lang2","do","","-1","sound/la.wav"
"-1000","","audio-keyboard-response","91","166772","0.0-11.0-80.0","lang2","do","","-1","sound/tu.wav"
"-1000","","audio-keyboard-response","92","167259","0.0-11.0-81.0","lang2","do","","-1","sound/pa.wav"
"-1000","","audio-keyboard-response","93","167742","0.0-11.0-82.0","lang2","do","","-1","sound/bi.wav"
"-1000","","audio-keyboard-response","94","168228","0.0-11.0-83.0","lang2","do","","-1","sound/ku.wav"
"-1000","","audio-keyboard-response","95","168711","0.0-11.0-84.0","lang2","do","","-1","sound/ti.wav"
"-1000","","audio-keyboard-response","96","169195","0.0-11.0-85.0","lang2","do","","-1","sound/bu.wav"
"-1000","","audio-keyboard-response","97","169680","0.0-11.0-86.0","lang2","do","","-1","sound/do.wav"
"108.97959183674288","","audio-keyboard-response","98","170165","0.0-11.0-87.0","lang2","do","","32","sound/go.wav"
"-1000","","audio-keyboard-response","99","170648","0.0-11.0-88.0","lang2","do","","-1","sound/la.wav"
"-1000","","audio-keyboard-response","100","171132","0.0-11.0-89.0","lang2","do","","-1","sound/tu.wav"
"-1000","","audio-keyboard-response","101","171617","0.0-11.0-90.0","lang2","do","","-1","sound/ti.wav"
"-1000","","audio-keyboard-response","102","172101","0.0-11.0-91.0","lang2","do","","-1","sound/bu.wav"
"-1000","","audio-keyboard-response","103","172586","0.0-11.0-92.0","lang2","do","","-1","sound/do.wav"
"149.6145124716577","","audio-keyboard-response","104","173070","0.0-11.0-93.0","lang2","do","","32","sound/da.wav"
"-1000","","audio-keyboard-response","105","173552","0.0-11.0-94.0","lang2","do","","-1","sound/ro.wav"
"-1000","","audio-keyboard-response","106","174038","0.0-11.0-95.0","lang2","do","","-1","sound/pi.wav"
"-1000","","audio-keyboard-response","107","174521","0.0-11.0-96.0","lang2","do","","-1","sound/pa.wav"
"-1000","","audio-keyboard-response","108","175006","0.0-11.0-97.0","lang2","do","","-1","sound/bi.wav"
"-1000","","audio-keyboard-response","109","175492","0.0-11.0-98.0","lang2","do","","-1","sound/ku.wav"
"-1000","","audio-keyboard-response","110","175976","0.0-11.0-99.0","lang2","do","","-1","sound/ti.wav"
"-1000","","audio-keyboard-response","111","176462","0.0-11.0-100.0","lang2","do","","-1","sound/bu.wav"
"-1000","","audio-keyboard-response","112","176945","0.0-11.0-101.0","lang2","do","","-1","sound/do.wav"
"79.95464852609757","","audio-keyboard-response","113","177431","0.0-11.0-102.0","lang2","do","","32","sound/go.wav"
"-1000","","audio-keyboard-response","114","177916","0.0-11.0-103.0","lang2","do","","-1","sound/la.wav"
"-1000","","audio-keyboard-response","115","178402","0.0-11.0-104.0","lang2","do","","-1","sound/tu.wav"
"-1000","","audio-keyboard-response","116","178884","0.0-11.0-105.0","lang2","do","","-1","sound/da.wav"
"-1000","","audio-keyboard-response","117","179371","0.0-11.0-106.0","lang2","do","","-1","sound/ro.wav"
"-1000","","audio-keyboard-response","118","179852","0.0-11.0-107.0","lang2","do","","-1","sound/pi.wav"
"-1000","","audio-keyboard-response","119","180334","0.0-11.0-108.0","lang2","do","","-1","sound/pa.wav"
"-1000","","audio-keyboard-response","120","180818","0.0-11.0-109.0","lang2","do","","-1","sound/bi.wav"
"-1000","","audio-keyboard-response","121","181303","0.0-11.0-110.0","lang2","do","","-1","sound/ku.wav"
"-1000","","audio-keyboard-response","122","181785","0.0-11.0-111.0","lang2","do","","-1","sound/da.wav"
"-1000","","audio-keyboard-response","123","182270","0.0-11.0-112.0","lang2","do","","-1","sound/ro.wav"
"-1000","","audio-keyboard-response","124","182755","0.0-11.0-113.0","lang2","do","","-1","sound/pi.wav"
"-1000","","audio-keyboard-response","125","183236","0.0-11.0-114.0","lang2","do","","-1","sound/ti.wav"
"-1000","","audio-keyboard-response","126","183718","0.0-11.0-115.0","lang2","do","","-1","sound/bu.wav"
"-1000","","audio-keyboard-response","127","184201","0.0-11.0-116.0","lang2","do","","-1","sound/do.wav"
"79.95464852606915","","audio-keyboard-response","128","184682","0.0-11.0-117.0","lang2","do","","32","sound/pa.wav"
"-1000","","audio-keyboard-response","129","185164","0.0-11.0-118.0","lang2","do","","-1","sound/bi.wav"
"-1000","","audio-keyboard-response","130","185648","0.0-11.0-119.0","lang2","do","","-1","sound/ku.wav"
"-1000","","audio-keyboard-response","131","186134","0.0-11.0-120.0","lang2","do","","-1","sound/go.wav"
"-1000","","audio-keyboard-response","132","186616","0.0-11.0-121.0","lang2","do","","-1","sound/la.wav"
"-1000","","audio-keyboard-response","133","187102","0.0-11.0-122.0","lang2","do","","-1","sound/tu.wav"
"-1000","","audio-keyboard-response","134","187587","0.0-11.0-123.0","lang2","do","","-1","sound/ti.wav"
"-1000","","audio-keyboard-response","135","188071","0.0-11.0-124.0","lang2","do","","-1","sound/bu.wav"
"-1000","","audio-keyboard-response","136","188554","0.0-11.0-125.0","lang2","do","","-1","sound/do.wav"
"201.859410430842","","audio-keyboard-response","137","189035","0.0-11.0-126.0","lang2","do","","32","sound/pa.wav"
"-1000","","audio-keyboard-response","138","189517","0.0-11.0-127.0","lang2","do","","-1","sound/bi.wav"
"-1000","","audio-keyboard-response","139","189999","0.0-11.0-128.0","lang2","do","","-1","sound/ku.wav"
"-1000","","audio-keyboard-response","140","190480","0.0-11.0-129.0","lang2","do","","-1","sound/da.wav"
"155.41950113379244","","audio-keyboard-response","141","190962","0.0-11.0-130.0","lang2","do","","32","sound/ro.wav"
"-1000","","audio-keyboard-response","142","191444","0.0-11.0-131.0","lang2","do","","-1","sound/pi.wav"
"-1000","","audio-keyboard-response","143","191925","0.0-11.0-132.0","lang2","do","","-1","sound/ti.wav"
"-1000","","audio-keyboard-response","144","192407","0.0-11.0-133.0","lang2","do","","-1","sound/bu.wav"
"-1000","","audio-keyboard-response","145","192889","0.0-11.0-134.0","lang2","do","","-1","sound/do.wav"
"27.70975056688485","","audio-keyboard-response","146","193370","0.0-11.0-135.0","lang2","do","","32","sound/go.wav"
"-1000","","audio-keyboard-response","147","193852","0.0-11.0-136.0","lang2","do","","-1","sound/la.wav"
"-1000","","audio-keyboard-response","148","194337","0.0-11.0-137.0","lang2","do","","-1","sound/tu.wav"
"-1000","","audio-keyboard-response","149","194822","0.0-11.0-138.0","lang2","do","","-1","sound/pa.wav"
"-1000","","audio-keyboard-response","150","195303","0.0-11.0-139.0","lang2","do","","-1","sound/bi.wav"
"-1000","","audio-keyboard-response","151","195785","0.0-11.0-140.0","lang2","do","","-1","sound/ku.wav"
"-1000","","audio-keyboard-response","152","196268","0.0-11.0-141.0","lang2","do","","-1","sound/da.wav"
"-1000","","audio-keyboard-response","153","196750","0.0-11.0-142.0","lang2","do","","-1","sound/ro.wav"
"-1000","","audio-keyboard-response","154","197231","0.0-11.0-143.0","lang2","do","","-1","sound/pi.wav"
"-1000","","audio-keyboard-response","155","197713","0.0-11.0-144.0","lang2","do","","-1","sound/go.wav"
"-1000","","audio-keyboard-response","156","198194","0.0-11.0-145.0","lang2","do","","-1","sound/la.wav"
"-1000","","audio-keyboard-response","157","198676","0.0-11.0-146.0","lang2","do","","-1","sound/tu.wav"
"-1000","","audio-keyboard-response","158","199158","0.0-11.0-147.0","lang2","do","","-1","sound/pa.wav"
"-1000","","audio-keyboard-response","159","199640","0.0-11.0-148.0","lang2","do","","-1","sound/bi.wav"
"-1000","","audio-keyboard-response","160","200124","0.0-11.0-149.0","lang2","do","","-1","sound/ku.wav"
"-1000","","audio-keyboard-response","161","200608","0.0-11.0-150.0","lang2","do","","-1","sound/da.wav"
"-1000","","audio-keyboard-response","162","201090","0.0-11.0-151.0","lang2","do","","-1","sound/ro.wav"
"-1000","","audio-keyboard-response","163","201573","0.0-11.0-152.0","lang2","do","","-1","sound/pi.wav"
"-1000","","audio-keyboard-response","164","202058","0.0-11.0-153.0","lang2","do","","-1","sound/ti.wav"
"-1000","","audio-keyboard-response","165","202543","0.0-11.0-154.0","lang2","do","","-1","sound/bu.wav"
"-1000","","audio-keyboard-response","166","203027","0.0-11.0-155.0","lang2","do","","-1","sound/do.wav"
"39.319727891182765","","audio-keyboard-response","167","203512","0.0-11.0-156.0","lang2","do","","32","sound/go.wav"
"-1000","","audio-keyboard-response","168","203996","0.0-11.0-157.0","lang2","do","","-1","sound/la.wav"
"-1000","","audio-keyboard-response","169","204481","0.0-11.0-158.0","lang2","do","","-1","sound/tu.wav"
"-1000","","audio-keyboard-response","170","204968","0.0-11.0-159.0","lang2","do","","-1","sound/da.wav"
"-1000","","audio-keyboard-response","171","205450","0.0-11.0-160.0","lang2","do","","-1","sound/ro.wav"
"-1000","","audio-keyboard-response","172","205935","0.0-11.0-161.0","lang2","do","","-1","sound/pi.wav"
"-1000","","audio-keyboard-response","173","206420","0.0-11.0-162.0","lang2","do","","-1","sound/pa.wav"
"-1000","","audio-keyboard-response","174","206904","0.0-11.0-163.0","lang2","do","","-1","sound/bi.wav"
"-1000","","audio-keyboard-response","175","207389","0.0-11.0-164.0","lang2","do","","-1","sound/ku.wav"
"-1000","","audio-keyboard-response","176","207874","0.0-11.0-165.0","lang2","do","","-1","sound/da.wav"
"-1000","","audio-keyboard-response","177","208358","0.0-11.0-166.0","lang2","do","","-1","sound/ro.wav"
"-1000","","audio-keyboard-response","178","208840","0.0-11.0-167.0","lang2","do","","-1","sound/pi.wav"
"-1000","","audio-keyboard-response","179","209325","0.0-11.0-168.0","lang2","do","","-1","sound/go.wav"
"-1000","","audio-keyboard-response","180","209810","0.0-11.0-169.0","lang2","do","","-1","sound/la.wav"
"-1000","","audio-keyboard-response","181","210295","0.0-11.0-170.0","lang2","do","","-1","sound/tu.wav"
"-1000","","audio-keyboard-response","182","210778","0.0-11.0-171.0","lang2","do","","-1","sound/pa.wav"
"-1000","","audio-keyboard-response","183","211260","0.0-11.0-172.0","lang2","do","","-1","sound/bi.wav"
"-1000","","audio-keyboard-response","184","211746","0.0-11.0-173.0","lang2","do","","-1","sound/ku.wav"
"-1000","","audio-keyboard-response","185","212230","0.0-11.0-174.0","lang2","do","","-1","sound/ti.wav"
"-1000","","audio-keyboard-response","186","212716","0.0-11.0-175.0","lang2","do","","-1","sound/bu.wav"
"-1000","","audio-keyboard-response","187","213198","0.0-11.0-176.0","lang2","do","","-1","sound/do.wav"
"-1000","","audio-keyboard-response","188","213684","0.0-11.0-177.0","lang2","do","","-1","sound/da.wav"
"190.2494331065725","","audio-keyboard-response","189","214167","0.0-11.0-178.0","lang2","do","","32","sound/ro.wav"
"-1000","","audio-keyboard-response","190","214649","0.0-11.0-179.0","lang2","do","","-1","sound/pi.wav"
"-1000","","audio-keyboard-response","191","215131","0.0-11.0-180.0","lang2","do","","-1","sound/go.wav"
"-1000","","audio-keyboard-response","192","215613","0.0-11.0-181.0","lang2","do","","-1","sound/la.wav"
"-1000","","audio-keyboard-response","193","216095","0.0-11.0-182.0","lang2","do","","-1","sound/tu.wav"
"-1000","","audio-keyboard-response","194","216577","0.0-11.0-183.0","lang2","do","","-1","sound/pa.wav"
"-1000","","audio-keyboard-response","195","217058","0.0-11.0-184.0","lang2","do","","-1","sound/bi.wav"
"-1000","","audio-keyboard-response","196","217540","0.0-11.0-185.0","lang2","do","","-1","sound/ku.wav"
"-1000","","audio-keyboard-response","197","218022","0.0-11.0-186.0","lang2","do","","-1","sound/ti.wav"
"-1000","","audio-keyboard-response","198","218503","0.0-11.0-187.0","lang2","do","","-1","sound/bu.wav"
"-1000","","audio-keyboard-response","199","218986","0.0-11.0-188.0","lang2","do","","-1","sound/do.wav"
"103.17460317460814","","audio-keyboard-response","200","219467","0.0-11.0-189.0","lang2","do","","32","sound/da.wav"
"-1000","","audio-keyboard-response","201","219950","0.0-11.0-190.0","lang2","do","","-1","sound/ro.wav"
"-1000","","audio-keyboard-response","202","220432","0.0-11.0-191.0","lang2","do","","-1","sound/pi.wav"
"-1000","","audio-keyboard-response","203","220913","0.0-11.0-192.0","lang2","do","","-1","sound/pa.wav"
"-1000","","audio-keyboard-response","204","221394","0.0-11.0-193.0","lang2","do","","-1","sound/bi.wav"
"-1000","","audio-keyboard-response","205","221875","0.0-11.0-194.0","lang2","do","","-1","sound/ku.wav"
"-1000","","audio-keyboard-response","206","222357","0.0-11.0-195.0","lang2","do","","-1","sound/go.wav"
"-1000","","audio-keyboard-response","207","222840","0.0-11.0-196.0","lang2","do","","-1","sound/la.wav"
"-1000","","audio-keyboard-response","208","223322","0.0-11.0-197.0","lang2","do","","-1","sound/tu.wav"
"-1000","","audio-keyboard-response","209","223803","0.0-11.0-198.0","lang2","do","","-1","sound/ti.wav"
"-1000","","audio-keyboard-response","210","224288","0.0-11.0-199.0","lang2","do","","-1","sound/bu.wav"
"-1000","","audio-keyboard-response","211","224772","0.0-11.0-200.0","lang2","do","","-1","sound/do.wav"
"120.58956916101238","","audio-keyboard-response","212","225253","0.0-11.0-201.0","lang2","do","","32","sound/pa.wav"
"-1000","","audio-keyboard-response","213","225736","0.0-11.0-202.0","lang2","do","","-1","sound/bi.wav"
"-1000","","audio-keyboard-response","214","226218","0.0-11.0-203.0","lang2","do","","-1","sound/ku.wav"
"-1000","","audio-keyboard-response","215","226699","0.0-11.0-204.0","lang2","do","","-1","sound/da.wav"
"-1000","","audio-keyboard-response","216","227182","0.0-11.0-205.0","lang2","do","","-1","sound/ro.wav"
"-1000","","audio-keyboard-response","217","227665","0.0-11.0-206.0","lang2","do","","-1","sound/pi.wav"
"-1000","","audio-keyboard-response","218","228146","0.0-11.0-207.0","lang2","do","","-1","sound/go.wav"
"-1000","","audio-keyboard-response","219","228629","0.0-11.0-208.0","lang2","do","","-1","sound/la.wav"
"-1000","","audio-keyboard-response","220","229114","0.0-11.0-209.0","lang2","do","","-1","sound/tu.wav"
"-1000","","audio-keyboard-response","221","229596","0.0-11.0-210.0","lang2","do","","-1","sound/ti.wav"
"-1000","","audio-keyboard-response","222","230077","0.0-11.0-211.0","lang2","do","","-1","sound/bu.wav"
"-1000","","audio-keyboard-response","223","230560","0.0-11.0-212.0","lang2","do","","-1","sound/do.wav"
"300.54421768707584","","audio-keyboard-response","224","231041","0.0-11.0-213.0","lang2","do","","32","sound/da.wav"
"-1000","","audio-keyboard-response","225","231523","0.0-11.0-214.0","lang2","do","","-1","sound/ro.wav"
"-1000","","audio-keyboard-response","226","232004","0.0-11.0-215.0","lang2","do","","-1","sound/pi.wav"
"-1000","","audio-keyboard-response","227","232486","0.0-11.0-216.0","lang2","do","","-1","sound/pa.wav"
"-1000","","audio-keyboard-response","228","232970","0.0-11.0-217.0","lang2","do","","-1","sound/bi.wav"
"-1000","","audio-keyboard-response","229","233452","0.0-11.0-218.0","lang2","do","","-1","sound/ku.wav"
"-1000","","audio-keyboard-response","230","233938","0.0-11.0-219.0","lang2","do","","-1","sound/go.wav"
"-1000","","audio-keyboard-response","231","234422","0.0-11.0-220.0","lang2","do","","-1","sound/la.wav"
"-1000","","audio-keyboard-response","232","234906","0.0-11.0-221.0","lang2","do","","-1","sound/tu.wav"
"-1000","","audio-keyboard-response","233","235391","0.0-11.0-222.0","lang2","do","","-1","sound/ti.wav"
"-1000","","audio-keyboard-response","234","235876","0.0-11.0-223.0","lang2","do","","-1","sound/bu.wav"
"-1000","","audio-keyboard-response","235","236363","0.0-11.0-224.0","lang2","do","","-1","sound/do.wav"
"4.489795918374284","","audio-keyboard-response","236","236845","0.0-11.0-225.0","lang2","do","","32","sound/da.wav"
"-1000","","audio-keyboard-response","237","237327","0.0-11.0-226.0","lang2","do","","-1","sound/ro.wav"
"-1000","","audio-keyboard-response","238","237813","0.0-11.0-227.0","lang2","do","","-1","sound/pi.wav"
"-1000","","audio-keyboard-response","239","238296","0.0-11.0-228.0","lang2","do","","-1","sound/pa.wav"
"-1000","","audio-keyboard-response","240","238780","0.0-11.0-229.0","lang2","do","","-1","sound/bi.wav"
"-1000","","audio-keyboard-response","241","239266","0.0-11.0-230.0","lang2","do","","-1","sound/ku.wav"
"-1000","","audio-keyboard-response","242","239749","0.0-11.0-231.0","lang2","do","","-1","sound/go.wav"
"-1000","","audio-keyboard-response","243","240232","0.0-11.0-232.0","lang2","do","","-1","sound/la.wav"
"-1000","","audio-keyboard-response","244","240717","0.0-11.0-233.0","lang2","do","","-1","sound/tu.wav"
"-1000","","audio-keyboard-response","245","241203","0.0-11.0-234.0","lang2","do","","-1","sound/ti.wav"
"-1000","","audio-keyboard-response","246","241687","0.0-11.0-235.0","lang2","do","","-1","sound/bu.wav"
"-1000","","audio-keyboard-response","247","242172","0.0-11.0-236.0","lang2","do","","-1","sound/do.wav"
"248.29931972789154","","audio-keyboard-response","248","242656","0.0-11.0-237.0","lang2","do","","32","sound/pa.wav"
"-1000","","audio-keyboard-response","249","243142","0.0-11.0-238.0","lang2","do","","-1","sound/bi.wav"
"-1000","","audio-keyboard-response","250","243625","0.0-11.0-239.0","lang2","do","","-1","sound/ku.wav"
"-1000","","audio-keyboard-response","251","244111","0.0-11.0-240.0","lang2","do","","-1","sound/da.wav"
"-1000","","audio-keyboard-response","252","244594","0.0-11.0-241.0","lang2","do","","-1","sound/ro.wav"
"-1000","","audio-keyboard-response","253","245080","0.0-11.0-242.0","lang2","do","","-1","sound/pi.wav"
"-1000","","audio-keyboard-response","254","245563","0.0-11.0-243.0","lang2","do","","-1","sound/go.wav"
"-1000","","audio-keyboard-response","255","246046","0.0-11.0-244.0","lang2","do","","-1","sound/la.wav"
"-1000","","audio-keyboard-response","256","246531","0.0-11.0-245.0","lang2","do","","-1","sound/tu.wav"
"-1000","","audio-keyboard-response","257","247014","0.0-11.0-246.0","lang2","do","","-1","sound/ti.wav"
"-1000","","audio-keyboard-response","258","247496","0.0-11.0-247.0","lang2","do","","-1","sound/bu.wav"
"-1000","","audio-keyboard-response","259","247977","0.0-11.0-248.0","lang2","do","","-1","sound/do.wav"
"-1000","","audio-keyboard-response","260","248459","0.0-11.0-249.0","lang2","do","","-1","sound/go.wav"
"-12.925170068029956","","audio-keyboard-response","261","248941","0.0-11.0-250.0","lang2","do","","32","sound/la.wav"
"-1000","","audio-keyboard-response","262","249423","0.0-11.0-251.0","lang2","do","","-1","sound/tu.wav"
"-1000","","audio-keyboard-response","263","249905","0.0-11.0-252.0","lang2","do","","-1","sound/pa.wav"
"-1000","","audio-keyboard-response","264","250387","0.0-11.0-253.0","lang2","do","","-1","sound/bi.wav"
"-1000","","audio-keyboard-response","265","250869","0.0-11.0-254.0","lang2","do","","-1","sound/ku.wav"
"-1000","","audio-keyboard-response","266","251351","0.0-11.0-255.0","lang2","do","","-1","sound/da.wav"
"-1000","","audio-keyboard-response","267","251836","0.0-11.0-256.0","lang2","do","","-1","sound/ro.wav"
"-1000","","audio-keyboard-response","268","252320","0.0-11.0-257.0","lang2","do","","-1","sound/pi.wav"
"-1000","","audio-keyboard-response","269","252801","0.0-11.0-258.0","lang2","do","","-1","sound/ti.wav"
"-1000","","audio-keyboard-response","270","253285","0.0-11.0-259.0","lang2","do","","-1","sound/bu.wav"
"-1000","","audio-keyboard-response","271","253770","0.0-11.0-260.0","lang2","do","","-1","sound/do.wav"
"56.734693877558584","","audio-keyboard-response","272","254252","0.0-11.0-261.0","lang2","do","","32","sound/da.wav"
"-1000","","audio-keyboard-response","273","254734","0.0-11.0-262.0","lang2","do","","-1","sound/ro.wav"
"-1000","","audio-keyboard-response","274","255215","0.0-11.0-263.0","lang2","do","","-1","sound/pi.wav"
"-1000","","audio-keyboard-response","275","255698","0.0-11.0-264.0","lang2","do","","-1","sound/pa.wav"
"-1000","","audio-keyboard-response","276","256179","0.0-11.0-265.0","lang2","do","","-1","sound/bi.wav"
"-1000","","audio-keyboard-response","277","256661","0.0-11.0-266.0","lang2","do","","-1","sound/ku.wav"
"-1000","","audio-keyboard-response","278","257143","0.0-11.0-267.0","lang2","do","","-1","sound/go.wav"
"-1000","","audio-keyboard-response","279","257626","0.0-11.0-268.0","lang2","do","","-1","sound/la.wav"
"-1000","","audio-keyboard-response","280","258108","0.0-11.0-269.0","lang2","do","","-1","sound/tu.wav"
"-1000","","audio-keyboard-response","281","258589","0.0-11.0-270.0","lang2","do","","-1","sound/ti.wav"
"-1000","","audio-keyboard-response","282","259072","0.0-11.0-271.0","lang2","do","","-1","sound/bu.wav"
"-1000","","audio-keyboard-response","283","259557","0.0-11.0-272.0","lang2","do","","-1","sound/do.wav"
"21.904761904750103","","audio-keyboard-response","284","260039","0.0-11.0-273.0","lang2","do","","32","sound/da.wav"
"-1000","","audio-keyboard-response","285","260520","0.0-11.0-274.0","lang2","do","","-1","sound/ro.wav"
"-1000","","audio-keyboard-response","286","261003","0.0-11.0-275.0","lang2","do","","-1","sound/pi.wav"
"-1000","","audio-keyboard-response","287","261484","0.0-11.0-276.0","lang2","do","","-1","sound/ti.wav"
"-1000","","audio-keyboard-response","288","261966","0.0-11.0-277.0","lang2","do","","-1","sound/bu.wav"
"-1000","","audio-keyboard-response","289","262447","0.0-11.0-278.0","lang2","do","","-1","sound/do.wav"
"-1000","","audio-keyboard-response","290","262929","0.0-11.0-279.0","lang2","do","","-1","sound/go.wav"
"-1000","","audio-keyboard-response","291","263411","0.0-11.0-280.0","lang2","do","","-1","sound/la.wav"
"277.32426303850843","","audio-keyboard-response","292","263893","0.0-11.0-281.0","lang2","do","","32","sound/tu.wav"
"-1000","","audio-keyboard-response","293","264375","0.0-11.0-282.0","lang2","do","","-1","sound/pa.wav"
"-1000","","audio-keyboard-response","294","264856","0.0-11.0-283.0","lang2","do","","-1","sound/bi.wav"
"-1000","","audio-keyboard-response","295","265343","0.0-11.0-284.0","lang2","do","","-1","sound/ku.wav"
"-1000","","audio-keyboard-response","296","265826","0.0-11.0-285.0","lang2","do","","-1","sound/ti.wav"
"-1000","","audio-keyboard-response","297","266308","0.0-11.0-286.0","lang2","do","","-1","sound/bu.wav"
"-1000","","audio-keyboard-response","298","266790","0.0-11.0-287.0","lang2","do","","-1","sound/do.wav"
"33.5147392290196","","audio-keyboard-response","299","267271","0.0-11.0-288.0","lang2","do","","32","sound/go.wav"
"-1000","","audio-keyboard-response","300","267753","0.0-11.0-289.0","lang2","do","","-1","sound/la.wav"
"-1000","","audio-keyboard-response","301","268236","0.0-11.0-290.0","lang2","do","","-1","sound/tu.wav"
"-1000","","audio-keyboard-response","302","268720","0.0-11.0-291.0","lang2","do","","-1","sound/da.wav"
"-1000","","audio-keyboard-response","303","269205","0.0-11.0-292.0","lang2","do","","-1","sound/ro.wav"
"-1000","","audio-keyboard-response","304","269689","0.0-11.0-293.0","lang2","do","","-1","sound/pi.wav"
"-1000","","audio-keyboard-response","305","270174","0.0-11.0-294.0","lang2","do","","-1","sound/pa.wav"
"-1000","","audio-keyboard-response","306","270659","0.0-11.0-295.0","lang2","do","","-1","sound/bi.wav"
"-1000","","audio-keyboard-response","307","271144","0.0-11.0-296.0","lang2","do","","-1","sound/ku.wav"
"-1000","","audio-keyboard-response","308","271629","0.0-11.0-297.0","lang2","do","","-1","sound/ti.wav"
"-1000","","audio-keyboard-response","309","272113","0.0-11.0-298.0","lang2","do","","-1","sound/bu.wav"
"-1000","","audio-keyboard-response","310","272598","0.0-11.0-299.0","lang2","do","","-1","sound/do.wav"
"103.17460317457972","","audio-keyboard-response","311","273083","0.0-11.0-300.0","lang2","do","","32","sound/go.wav"
"-1000","","audio-keyboard-response","312","273567","0.0-11.0-301.0","lang2","do","","-1","sound/la.wav"
"-1000","","audio-keyboard-response","313","274052","0.0-11.0-302.0","lang2","do","","-1","sound/tu.wav"
"-1000","","audio-keyboard-response","314","274536","0.0-11.0-303.0","lang2","do","","-1","sound/ti.wav"
"-1000","","audio-keyboard-response","315","275021","0.0-11.0-304.0","lang2","do","","-1","sound/bu.wav"
"-1000","","audio-keyboard-response","316","275503","0.0-11.0-305.0","lang2","do","","-1","sound/do.wav"
"167.0294784580051","","audio-keyboard-response","317","275986","0.0-11.0-306.0","lang2","do","","32","sound/da.wav"
"-1000","","audio-keyboard-response","318","276470","0.0-11.0-307.0","lang2","do","","-1","sound/ro.wav"
"-1000","","audio-keyboard-response","319","276954","0.0-11.0-308.0","lang2","do","","-1","sound/pi.wav"
"-1000","","audio-keyboard-response","320","277439","0.0-11.0-309.0","lang2","do","","-1","sound/pa.wav"
"-1000","","audio-keyboard-response","321","277923","0.0-11.0-310.0","lang2","do","","-1","sound/bi.wav"
"-1000","","audio-keyboard-response","322","278409","0.0-11.0-311.0","lang2","do","","-1","sound/ku.wav"
"-1000","","audio-keyboard-response","323","278892","0.0-11.0-312.0","lang2","do","","-1","sound/go.wav"
"-1000","","audio-keyboard-response","324","279374","0.0-11.0-313.0","lang2","do","","-1","sound/la.wav"
"-1000","","audio-keyboard-response","325","279856","0.0-11.0-314.0","lang2","do","","-1","sound/tu.wav"
"-1000","","audio-keyboard-response","326","280338","0.0-11.0-315.0","lang2","do","","-1","sound/ti.wav"
"-1000","","audio-keyboard-response","327","280820","0.0-11.0-316.0","lang2","do","","-1","sound/bu.wav"
"-1000","","audio-keyboard-response","328","281305","0.0-11.0-317.0","lang2","do","","-1","sound/do.wav"
"-1000","","audio-keyboard-response","329","281788","0.0-11.0-318.0","lang2","do","","-1","sound/da.wav"
"79.95464852609757","","audio-keyboard-response","330","282269","0.0-11.0-319.0","lang2","do","","32","sound/ro.wav"
"-1000","","audio-keyboard-response","331","282751","0.0-11.0-320.0","lang2","do","","-1","sound/pi.wav"
"-1000","","audio-keyboard-response","332","283233","0.0-11.0-321.0","lang2","do","","-1","sound/ti.wav"
"-1000","","audio-keyboard-response","333","283715","0.0-11.0-322.0","lang2","do","","-1","sound/bu.wav"
"-1000","","audio-keyboard-response","334","284197","0.0-11.0-323.0","lang2","do","","-1","sound/do.wav"
"-1000","","audio-keyboard-response","335","284679","0.0-11.0-324.0","lang2","do","","-1","sound/pa.wav"
"-1000","","audio-keyboard-response","336","285160","0.0-11.0-325.0","lang2","do","","-1","sound/bi.wav"
"-1000","","audio-keyboard-response","337","285642","0.0-11.0-326.0","lang2","do","","-1","sound/ku.wav"
"-1000","","audio-keyboard-response","338","286124","0.0-11.0-327.0","lang2","do","","-1","sound/da.wav"
"-1000","","audio-keyboard-response","339","286606","0.0-11.0-328.0","lang2","do","","-1","sound/ro.wav"
"-1000","","audio-keyboard-response","340","287090","0.0-11.0-329.0","lang2","do","","-1","sound/pi.wav"
"-1000","","audio-keyboard-response","341","287576","0.0-11.0-330.0","lang2","do","","-1","sound/go.wav"
"-1000","","audio-keyboard-response","342","288057","0.0-11.0-331.0","lang2","do","","-1","sound/la.wav"
"-1000","","audio-keyboard-response","343","288539","0.0-11.0-332.0","lang2","do","","-1","sound/tu.wav"
"-1000","","audio-keyboard-response","344","289021","0.0-11.0-333.0","lang2","do","","-1","sound/da.wav"
"-1000","","audio-keyboard-response","345","289502","0.0-11.0-334.0","lang2","do","","-1","sound/ro.wav"
"-1000","","audio-keyboard-response","346","289987","0.0-11.0-335.0","lang2","do","","-1","sound/pi.wav"
"-1000","","audio-keyboard-response","347","290471","0.0-11.0-336.0","lang2","do","","-1","sound/ti.wav"
"-1000","","audio-keyboard-response","348","290954","0.0-11.0-337.0","lang2","do","","-1","sound/bu.wav"
"-1000","","audio-keyboard-response","349","291435","0.0-11.0-338.0","lang2","do","","-1","sound/do.wav"
"-1000","","audio-keyboard-response","350","291917","0.0-11.0-339.0","lang2","do","","-1","sound/go.wav"
"-1000","","audio-keyboard-response","351","292398","0.0-11.0-340.0","lang2","do","","-1","sound/la.wav"
"-1000","","audio-keyboard-response","352","292880","0.0-11.0-341.0","lang2","do","","-1","sound/tu.wav"
"-1000","","audio-keyboard-response","353","293361","0.0-11.0-342.0","lang2","do","","-1","sound/pa.wav"
"-1000","","audio-keyboard-response","354","293843","0.0-11.0-343.0","lang2","do","","-1","sound/bi.wav"
"-1000","","audio-keyboard-response","355","294325","0.0-11.0-344.0","lang2","do","","-1","sound/ku.wav"
"-1000","","audio-keyboard-response","356","294807","0.0-11.0-345.0","lang2","do","","-1","sound/ti.wav"
"-1000","","audio-keyboard-response","357","295289","0.0-11.0-346.0","lang2","do","","-1","sound/bu.wav"
"-1000","","audio-keyboard-response","358","295770","0.0-11.0-347.0","lang2","do","","-1","sound/do.wav"
"97.36961451244497","","audio-keyboard-response","359","296252","0.0-11.0-348.0","lang2","do","","32","sound/da.wav"
"-1000","","audio-keyboard-response","360","296734","0.0-11.0-349.0","lang2","do","","-1","sound/ro.wav"
"-1000","","audio-keyboard-response","361","297216","0.0-11.0-350.0","lang2","do","","-1","sound/pi.wav"
"-1000","","audio-keyboard-response","362","297697","0.0-11.0-351.0","lang2","do","","-1","sound/go.wav"
"-1000","","audio-keyboard-response","363","298180","0.0-11.0-352.0","lang2","do","","-1","sound/la.wav"
"-1000","","audio-keyboard-response","364","298661","0.0-11.0-353.0","lang2","do","","-1","sound/tu.wav"
"-1000","","audio-keyboard-response","365","299144","0.0-11.0-354.0","lang2","do","","-1","sound/da.wav"
"-1000","","audio-keyboard-response","366","299625","0.0-11.0-355.0","lang2","do","","-1","sound/ro.wav"
"-1000","","audio-keyboard-response","367","300107","0.0-11.0-356.0","lang2","do","","-1","sound/pi.wav"
"-1000","","audio-keyboard-response","368","300589","0.0-11.0-357.0","lang2","do","","-1","sound/ti.wav"
"-1000","","audio-keyboard-response","369","301070","0.0-11.0-358.0","lang2","do","","-1","sound/bu.wav"
"-1000","","audio-keyboard-response","370","301554","0.0-11.0-359.0","lang2","do","","-1","sound/do.wav"
"143.80952380952294","","audio-keyboard-response","371","302040","0.0-11.0-360.0","lang2","do","","32","sound/go.wav"
"-1000","","audio-keyboard-response","372","302523","0.0-11.0-361.0","lang2","do","","-1","sound/la.wav"
"-1000","","audio-keyboard-response","373","303006","0.0-11.0-362.0","lang2","do","","-1","sound/tu.wav"
"-1000","","audio-keyboard-response","374","303491","0.0-11.0-363.0","lang2","do","","-1","sound/pa.wav"
"-1000","","audio-keyboard-response","375","303973","0.0-11.0-364.0","lang2","do","","-1","sound/bi.wav"
"-1000","","audio-keyboard-response","376","304457","0.0-11.0-365.0","lang2","do","","-1","sound/ku.wav"
"-1000","","audio-keyboard-response","377","304942","0.0-11.0-366.0","lang2","do","","-1","sound/go.wav"
"-1000","","audio-keyboard-response","378","305427","0.0-11.0-367.0","lang2","do","","-1","sound/la.wav"
"-1000","","audio-keyboard-response","379","305912","0.0-11.0-368.0","lang2","do","","-1","sound/tu.wav"
"-1000","","audio-keyboard-response","380","306399","0.0-11.0-369.0","lang2","do","","-1","sound/da.wav"
"-1000","","audio-keyboard-response","381","306881","0.0-11.0-370.0","lang2","do","","-1","sound/ro.wav"
"-1000","","audio-keyboard-response","382","307365","0.0-11.0-371.0","lang2","do","","-1","sound/pi.wav"
"-1000","","audio-keyboard-response","383","307850","0.0-11.0-372.0","lang2","do","","-1","sound/ti.wav"
"-1000","","audio-keyboard-response","384","308333","0.0-11.0-373.0","lang2","do","","-1","sound/bu.wav"
"-1000","","audio-keyboard-response","385","308819","0.0-11.0-374.0","lang2","do","","-1","sound/do.wav"
"132.19954648525345","","audio-keyboard-response","386","309305","0.0-11.0-375.0","lang2","do","","32","sound/pa.wav"
"-1000","","audio-keyboard-response","387","309788","0.0-11.0-376.0","lang2","do","","-1","sound/bi.wav"
"-1000","","audio-keyboard-response","388","310271","0.0-11.0-377.0","lang2","do","","-1","sound/ku.wav"
"-1000","","audio-keyboard-response","389","310756","0.0-11.0-378.0","lang2","do","","-1","sound/ti.wav"
"-1000","","audio-keyboard-response","390","311240","0.0-11.0-379.0","lang2","do","","-1","sound/bu.wav"
"-1000","","audio-keyboard-response","391","311726","0.0-11.0-380.0","lang2","do","","-1","sound/do.wav"
"-1000","","audio-keyboard-response","392","312209","0.0-11.0-381.0","lang2","do","","-1","sound/go.wav"
"-1000","","audio-keyboard-response","393","312693","0.0-11.0-382.0","lang2","do","","-1","sound/la.wav"
"-1000","","audio-keyboard-response","394","313178","0.0-11.0-383.0","lang2","do","","-1","sound/tu.wav"
"-1000","","audio-keyboard-response","395","313660","0.0-11.0-384.0","lang2","do","","-1","sound/pa.wav"
"138.00453514733135","","audio-keyboard-response","396","314146","0.0-11.0-385.0","lang2","do","","32","sound/bi.wav"
"-1000","","audio-keyboard-response","397","314629","0.0-11.0-386.0","lang2","do","","-1","sound/ku.wav"
"-1000","","audio-keyboard-response","398","315111","0.0-11.0-387.0","lang2","do","","-1","sound/da.wav"
"-1000","","audio-keyboard-response","399","315592","0.0-11.0-388.0","lang2","do","","-1","sound/ro.wav"
"-1000","","audio-keyboard-response","400","316074","0.0-11.0-389.0","lang2","do","","-1","sound/pi.wav"
"-1000","","audio-keyboard-response","401","316559","0.0-11.0-390.0","lang2","do","","-1","sound/go.wav"
"-1000","","audio-keyboard-response","402","317044","0.0-11.0-391.0","lang2","do","","-1","sound/la.wav"
"-1000","","audio-keyboard-response","403","317529","0.0-11.0-392.0","lang2","do","","-1","sound/tu.wav"
"-1000","","audio-keyboard-response","404","318014","0.0-11.0-393.0","lang2","do","","-1","sound/ti.wav"
"-1000","","audio-keyboard-response","405","318500","0.0-11.0-394.0","lang2","do","","-1","sound/bu.wav"
"-1000","","audio-keyboard-response","406","318983","0.0-11.0-395.0","lang2","do","","-1","sound/do.wav"
"39.3197278910975","","audio-keyboard-response","407","319463","0.0-11.0-396.0","lang2","do","","32","sound/pa.wav"
"-1000","","audio-keyboard-response","408","319946","0.0-11.0-397.0","lang2","do","","-1","sound/bi.wav"
"-1000","","audio-keyboard-response","409","320428","0.0-11.0-398.0","lang2","do","","-1","sound/ku.wav"
"-1000","","audio-keyboard-response","410","320909","0.0-11.0-399.0","lang2","do","","-1","sound/da.wav"
"-1000","","audio-keyboard-response","411","321391","0.0-11.0-400.0","lang2","do","","-1","sound/ro.wav"
"-1000","","audio-keyboard-response","412","321873","0.0-11.0-401.0","lang2","do","","-1","sound/pi.wav"
"-1000","","audio-keyboard-response","413","322355","0.0-11.0-402.0","lang2","do","","-1","sound/go.wav"
"-1000","","audio-keyboard-response","414","322837","0.0-11.0-403.0","lang2","do","","-1","sound/la.wav"
"-1000","","audio-keyboard-response","415","323318","0.0-11.0-404.0","lang2","do","","-1","sound/tu.wav"
"-1000","","audio-keyboard-response","416","323800","0.0-11.0-405.0","lang2","do","","-1","sound/pa.wav"
"-1000","","audio-keyboard-response","417","324282","0.0-11.0-406.0","lang2","do","","-1","sound/bi.wav"
"-1000","","audio-keyboard-response","418","324763","0.0-11.0-407.0","lang2","do","","-1","sound/ku.wav"
"-1000","","audio-keyboard-response","419","325245","0.0-11.0-408.0","lang2","do","","-1","sound/ti.wav"
"-1000","","audio-keyboard-response","420","325726","0.0-11.0-409.0","lang2","do","","-1","sound/bu.wav"
"-1000","","audio-keyboard-response","421","326208","0.0-11.0-410.0","lang2","do","","-1","sound/do.wav"
"126.3945578231187","","audio-keyboard-response","422","326690","0.0-11.0-411.0","lang2","do","","32","sound/da.wav"
"-1000","","audio-keyboard-response","423","327172","0.0-11.0-412.0","lang2","do","","-1","sound/ro.wav"
"-1000","","audio-keyboard-response","424","327653","0.0-11.0-413.0","lang2","do","","-1","sound/pi.wav"
"-1000","","audio-keyboard-response","425","328135","0.0-11.0-414.0","lang2","do","","-1","sound/go.wav"
"-1000","","audio-keyboard-response","426","328617","0.0-11.0-415.0","lang2","do","","-1","sound/la.wav"
"-1000","","audio-keyboard-response","427","329099","0.0-11.0-416.0","lang2","do","","-1","sound/tu.wav"
"-1000","","audio-keyboard-response","428","329580","0.0-11.0-417.0","lang2","do","","-1","sound/pa.wav"
"-1000","","audio-keyboard-response","429","330062","0.0-11.0-418.0","lang2","do","","-1","sound/bi.wav"
"-1000","","audio-keyboard-response","430","330544","0.0-11.0-419.0","lang2","do","","-1","sound/ku.wav"
"-1000","","audio-keyboard-response","431","331026","0.0-11.0-420.0","lang2","do","","-1","sound/da.wav"
"-1000","","audio-keyboard-response","432","331508","0.0-11.0-421.0","lang2","do","","-1","sound/ro.wav"
"-1000","","audio-keyboard-response","433","331992","0.0-11.0-422.0","lang2","do","","-1","sound/pi.wav"
"-1000","","audio-keyboard-response","434","332477","0.0-11.0-423.0","lang2","do","","-1","sound/ti.wav"
"-1000","","audio-keyboard-response","435","332962","0.0-11.0-424.0","lang2","do","","-1","sound/bu.wav"
"-1000","","audio-keyboard-response","436","333447","0.0-11.0-425.0","lang2","do","","-1","sound/do.wav"
"-1000","","audio-keyboard-response","437","333928","0.0-11.0-426.0","lang2","do","","-1","sound/pa.wav"
"-1000","","audio-keyboard-response","438","334411","0.0-11.0-427.0","lang2","do","","-1","sound/bi.wav"
"-1000","","audio-keyboard-response","439","334894","0.0-11.0-428.0","lang2","do","","-1","sound/ku.wav"
"-1000","","audio-keyboard-response","440","335380","0.0-11.0-429.0","lang2","do","","-1","sound/da.wav"
"-1000","","audio-keyboard-response","441","335862","0.0-11.0-430.0","lang2","do","","-1","sound/ro.wav"
"-1000","","audio-keyboard-response","442","336346","0.0-11.0-431.0","lang2","do","","-1","sound/pi.wav"
"-1000","","audio-keyboard-response","443","336832","0.0-11.0-432.0","lang2","do","","-1","sound/go.wav"
"-1000","","audio-keyboard-response","444","337313","0.0-11.0-433.0","lang2","do","","-1","sound/la.wav"
"-1000","","audio-keyboard-response","445","337797","0.0-11.0-434.0","lang2","do","","-1","sound/tu.wav"
"-1000","","audio-keyboard-response","446","338282","0.0-11.0-435.0","lang2","do","","-1","sound/ti.wav"
"-1000","","audio-keyboard-response","447","338767","0.0-11.0-436.0","lang2","do","","-1","sound/bu.wav"
"-1000","","audio-keyboard-response","448","339252","0.0-11.0-437.0","lang2","do","","-1","sound/do.wav"
"-1000","","audio-keyboard-response","449","339736","0.0-11.0-438.0","lang2","do","","-1","sound/go.wav"
"-1000","","audio-keyboard-response","450","340221","0.0-11.0-439.0","lang2","do","","-1","sound/la.wav"
"-1000","","audio-keyboard-response","451","340705","0.0-11.0-440.0","lang2","do","","-1","sound/tu.wav"
"-1000","","audio-keyboard-response","452","341190","0.0-11.0-441.0","lang2","do","","-1","sound/pa.wav"
"-1000","","audio-keyboard-response","453","341674","0.0-11.0-442.0","lang2","do","","-1","sound/bi.wav"
"-1000","","audio-keyboard-response","454","342160","0.0-11.0-443.0","lang2","do","","-1","sound/ku.wav"
"-1000","","audio-keyboard-response","455","342645","0.0-11.0-444.0","lang2","do","","-1","sound/ti.wav"
"-1000","","audio-keyboard-response","456","343129","0.0-11.0-445.0","lang2","do","","-1","sound/bu.wav"
"-1000","","audio-keyboard-response","457","343614","0.0-11.0-446.0","lang2","do","","-1","sound/do.wav"
"-1000","","audio-keyboard-response","458","344098","0.0-11.0-447.0","lang2","do","","-1","sound/da.wav"
"-1000","","audio-keyboard-response","459","344583","0.0-11.0-448.0","lang2","do","","-1","sound/ro.wav"
"-1000","","audio-keyboard-response","460","345067","0.0-11.0-449.0","lang2","do","","-1","sound/pi.wav"
"-1000","","audio-keyboard-response","461","345553","0.0-11.0-450.0","lang2","do","","-1","sound/go.wav"
"-1000","","audio-keyboard-response","462","346037","0.0-11.0-451.0","lang2","do","","-1","sound/la.wav"
"-1000","","audio-keyboard-response","463","346523","0.0-11.0-452.0","lang2","do","","-1","sound/tu.wav"
"-1000","","audio-keyboard-response","464","347005","0.0-11.0-453.0","lang2","do","","-1","sound/ti.wav"
"-1000","","audio-keyboard-response","465","347490","0.0-11.0-454.0","lang2","do","","-1","sound/bu.wav"
"-1000","","audio-keyboard-response","466","347975","0.0-11.0-455.0","lang2","do","","-1","sound/do.wav"
"-1000","","audio-keyboard-response","467","348456","0.0-11.0-456.0","lang2","do","","-1","sound/pa.wav"
"-1000","","audio-keyboard-response","468","348938","0.0-11.0-457.0","lang2","do","","-1","sound/bi.wav"
"-1000","","audio-keyboard-response","469","349421","0.0-11.0-458.0","lang2","do","","-1","sound/ku.wav"
"-1000","","audio-keyboard-response","470","349905","0.0-11.0-459.0","lang2","do","","-1","sound/ti.wav"
"-1000","","audio-keyboard-response","471","350389","0.0-11.0-460.0","lang2","do","","-1","sound/bu.wav"
"-1000","","audio-keyboard-response","472","350871","0.0-11.0-461.0","lang2","do","","-1","sound/do.wav"
"155.4195011337356","","audio-keyboard-response","473","351355","0.0-11.0-462.0","lang2","do","","32","sound/da.wav"
"-1000","","audio-keyboard-response","474","351840","0.0-11.0-463.0","lang2","do","","-1","sound/ro.wav"
"-1000","","audio-keyboard-response","475","352322","0.0-11.0-464.0","lang2","do","","-1","sound/pi.wav"
"-1000","","audio-keyboard-response","476","352804","0.0-11.0-465.0","lang2","do","","-1","sound/pa.wav"
"-1000","","audio-keyboard-response","477","353286","0.0-11.0-466.0","lang2","do","","-1","sound/bi.wav"
"-1000","","audio-keyboard-response","478","353770","0.0-11.0-467.0","lang2","do","","-1","sound/ku.wav"
"-1000","","audio-keyboard-response","479","354256","0.0-11.0-468.0","lang2","do","","-1","sound/go.wav"
"-1000","","audio-keyboard-response","480","354737","0.0-11.0-469.0","lang2","do","","-1","sound/la.wav"
"-1000","","audio-keyboard-response","481","355218","0.0-11.0-470.0","lang2","do","","-1","sound/tu.wav"
"-1000","","audio-keyboard-response","482","355701","0.0-11.0-471.0","lang2","do","","-1","sound/da.wav"
"-1000","","audio-keyboard-response","483","356184","0.0-11.0-472.0","lang2","do","","-1","sound/ro.wav"
"-1000","","audio-keyboard-response","484","356669","0.0-11.0-473.0","lang2","do","","-1","sound/pi.wav"
"-1000","","audio-keyboard-response","485","357151","0.0-11.0-474.0","lang2","do","","-1","sound/ti.wav"
"-1000","","audio-keyboard-response","486","357633","0.0-11.0-475.0","lang2","do","","-1","sound/bu.wav"
"-1000","","audio-keyboard-response","487","358115","0.0-11.0-476.0","lang2","do","","-1","sound/do.wav"
"-1000","","audio-keyboard-response","488","358600","0.0-11.0-477.0","lang2","do","","-1","sound/pa.wav"
"-1000","","audio-keyboard-response","489","359085","0.0-11.0-478.0","lang2","do","","-1","sound/bi.wav"
"-12.925170068001535","","audio-keyboard-response","490","359566","0.0-11.0-479.0","lang2","do","","32","sound/ku.wav"
"-1000","","audio-keyboard-response","491","360048","0.0-11.0-480.0","lang2","do","","-1","sound/go.wav"
"-1000","","audio-keyboard-response","492","360529","0.0-11.0-481.0","lang2","do","","-1","sound/la.wav"
"-1000","","audio-keyboard-response","493","361015","0.0-11.0-482.0","lang2","do","","-1","sound/tu.wav"
"-1000","","audio-keyboard-response","494","361499","0.0-11.0-483.0","lang2","do","","-1","sound/da.wav"
"-1000","","audio-keyboard-response","495","361980","0.0-11.0-484.0","lang2","do","","-1","sound/ro.wav"
"-1000","","audio-keyboard-response","496","362462","0.0-11.0-485.0","lang2","do","","-1","sound/pi.wav"
"-1000","","audio-keyboard-response","497","362943","0.0-11.0-486.0","lang2","do","","-1","sound/ti.wav"
"-1000","","audio-keyboard-response","498","363425","0.0-11.0-487.0","lang2","do","","-1","sound/bu.wav"
"-1000","","audio-keyboard-response","499","363908","0.0-11.0-488.0","lang2","do","","-1","sound/do.wav"
"312.1541950113169","","audio-keyboard-response","500","364391","0.0-11.0-489.0","lang2","do","","32","sound/pa.wav"
"-1000","","audio-keyboard-response","501","364873","0.0-11.0-490.0","lang2","do","","-1","sound/bi.wav"
"-1000","","audio-keyboard-response","502","365358","0.0-11.0-491.0","lang2","do","","-1","sound/ku.wav"
"-1000","","audio-keyboard-response","503","365841","0.0-11.0-492.0","lang2","do","","-1","sound/go.wav"
"-1000","","audio-keyboard-response","504","366322","0.0-11.0-493.0","lang2","do","","-1","sound/la.wav"
"-1000","","audio-keyboard-response","505","366804","0.0-11.0-494.0","lang2","do","","-1","sound/tu.wav"
"-1000","","audio-keyboard-response","506","367286","0.0-11.0-495.0","lang2","do","","-1","sound/da.wav"
"-1000","","audio-keyboard-response","507","367768","0.0-11.0-496.0","lang2","do","","-1","sound/ro.wav"
"-1000","","audio-keyboard-response","508","368250","0.0-11.0-497.0","lang2","do","","-1","sound/pi.wav"
"-1000","","audio-keyboard-response","509","368734","0.0-11.0-498.0","lang2","do","","-1","sound/go.wav"
"-1000","","audio-keyboard-response","510","369219","0.0-11.0-499.0","lang2","do","","-1","sound/la.wav"
"-1000","","audio-keyboard-response","511","369703","0.0-11.0-500.0","lang2","do","","-1","sound/tu.wav"
"-1000","","audio-keyboard-response","512","370188","0.0-11.0-501.0","lang2","do","","-1","sound/pa.wav"
"-1000","","audio-keyboard-response","513","370675","0.0-11.0-502.0","lang2","do","","-1","sound/bi.wav"
"-1000","","audio-keyboard-response","514","371158","0.0-11.0-503.0","lang2","do","","-1","sound/ku.wav"
"-1000","","audio-keyboard-response","515","371643","0.0-11.0-504.0","lang2","do","","-1","sound/ti.wav"
"-1000","","audio-keyboard-response","516","372127","0.0-11.0-505.0","lang2","do","","-1","sound/bu.wav"
"-1000","","audio-keyboard-response","517","372612","0.0-11.0-506.0","lang2","do","","-1","sound/do.wav"
"196.05442176867882","","audio-keyboard-response","518","373097","0.0-11.0-507.0","lang2","do","","32","sound/go.wav"
"-1000","","audio-keyboard-response","519","373581","0.0-11.0-508.0","lang2","do","","-1","sound/la.wav"
"-1000","","audio-keyboard-response","520","374066","0.0-11.0-509.0","lang2","do","","-1","sound/tu.wav"
"-1000","","audio-keyboard-response","521","374551","0.0-11.0-510.0","lang2","do","","-1","sound/pa.wav"
"-1000","","audio-keyboard-response","522","375035","0.0-11.0-511.0","lang2","do","","-1","sound/bi.wav"
"-1000","","audio-keyboard-response","523","375522","0.0-11.0-512.0","lang2","do","","-1","sound/ku.wav"
"-1000","","audio-keyboard-response","524","376004","0.0-11.0-513.0","lang2","do","","-1","sound/da.wav"
"-1000","","audio-keyboard-response","525","376489","0.0-11.0-514.0","lang2","do","","-1","sound/ro.wav"
"-1000","","audio-keyboard-response","526","376973","0.0-11.0-515.0","lang2","do","","-1","sound/pi.wav"
"-1000","","audio-keyboard-response","527","377457","0.0-11.0-516.0","lang2","do","","-1","sound/go.wav"
"-1000","","audio-keyboard-response","528","377941","0.0-11.0-517.0","lang2","do","","-1","sound/la.wav"
"-1000","","audio-keyboard-response","529","378425","0.0-11.0-518.0","lang2","do","","-1","sound/tu.wav"
"-1000","","audio-keyboard-response","530","378907","0.0-11.0-519.0","lang2","do","","-1","sound/pa.wav"
"-1000","","audio-keyboard-response","531","379392","0.0-11.0-520.0","lang2","do","","-1","sound/bi.wav"
"-1000","","audio-keyboard-response","532","379875","0.0-11.0-521.0","lang2","do","","-1","sound/ku.wav"
"-1000","","audio-keyboard-response","533","380361","0.0-11.0-522.0","lang2","do","","-1","sound/da.wav"
"-1000","","audio-keyboard-response","534","380845","0.0-11.0-523.0","lang2","do","","-1","sound/ro.wav"
"-36.145124716597365","","audio-keyboard-response","535","381326","0.0-11.0-524.0","lang2","do","","32","sound/pi.wav"
"-1000","","audio-keyboard-response","536","381808","0.0-11.0-525.0","lang2","do","","-1","sound/ti.wav"
"-1000","","audio-keyboard-response","537","382293","0.0-11.0-526.0","lang2","do","","-1","sound/bu.wav"
"-1000","","audio-keyboard-response","538","382777","0.0-11.0-527.0","lang2","do","","-1","sound/do.wav"
"254.10430838996945","","audio-keyboard-response","539","383261","0.0-11.0-528.0","lang2","do","","32","sound/go.wav"
"-1000","","audio-keyboard-response","540","383746","0.0-11.0-529.0","lang2","do","","-1","sound/la.wav"
"-1000","","audio-keyboard-response","541","384228","0.0-11.0-530.0","lang2","do","","-1","sound/tu.wav"
"-1000","","audio-keyboard-response","542","384709","0.0-11.0-531.0","lang2","do","","-1","sound/ti.wav"
"-1000","","audio-keyboard-response","543","385195","0.0-11.0-532.0","lang2","do","","-1","sound/bu.wav"
"-1000","","audio-keyboard-response","544","385679","0.0-11.0-533.0","lang2","do","","-1","sound/do.wav"
"-1000","","audio-keyboard-response","545","386162","0.0-11.0-534.0","lang2","do","","-1","sound/da.wav"
"172.83446712019668","","audio-keyboard-response","546","386649","0.0-11.0-535.0","lang2","do","","32","sound/ro.wav"
"-1000","","audio-keyboard-response","547","387131","0.0-11.0-536.0","lang2","do","","-1","sound/pi.wav"
"-1000","","audio-keyboard-response","548","387612","0.0-11.0-537.0","lang2","do","","-1","sound/pa.wav"
"-1000","","audio-keyboard-response","549","388094","0.0-11.0-538.0","lang2","do","","-1","sound/bi.wav"
"-1000","","audio-keyboard-response","550","388579","0.0-11.0-539.0","lang2","do","","-1","sound/ku.wav"
"-1000","","audio-keyboard-response","551","389066","0.0-11.0-540.0","lang2","do","","-1","sound/da.wav"
"-1000","","audio-keyboard-response","552","389551","0.0-11.0-541.0","lang2","do","","-1","sound/ro.wav"
"-1000","","audio-keyboard-response","553","390033","0.0-11.0-542.0","lang2","do","","-1","sound/pi.wav"
"-1000","","audio-keyboard-response","554","390515","0.0-11.0-543.0","lang2","do","","-1","sound/go.wav"
"-1000","","audio-keyboard-response","555","390997","0.0-11.0-544.0","lang2","do","","-1","sound/la.wav"
"-1000","","audio-keyboard-response","556","391481","0.0-11.0-545.0","lang2","do","","-1","sound/tu.wav"
"-1000","","audio-keyboard-response","557","391965","0.0-11.0-546.0","lang2","do","","-1","sound/ti.wav"
"-1000","","audio-keyboard-response","558","392448","0.0-11.0-547.0","lang2","do","","-1","sound/bu.wav"
"-1000","","audio-keyboard-response","559","392929","0.0-11.0-548.0","lang2","do","","-1","sound/do.wav"
"-1000","","audio-keyboard-response","560","393411","0.0-11.0-549.0","lang2","do","","-1","sound/go.wav"
"-1000","","audio-keyboard-response","561","393896","0.0-11.0-550.0","lang2","do","","-1","sound/la.wav"
"-1000","","audio-keyboard-response","562","394380","0.0-11.0-551.0","lang2","do","","-1","sound/tu.wav"
"-1000","","audio-keyboard-response","563","394862","0.0-11.0-552.0","lang2","do","","-1","sound/pa.wav"
"-1000","","audio-keyboard-response","564","395344","0.0-11.0-553.0","lang2","do","","-1","sound/bi.wav"
"-1000","","audio-keyboard-response","565","395825","0.0-11.0-554.0","lang2","do","","-1","sound/ku.wav"
"-1000","","audio-keyboard-response","566","396307","0.0-11.0-555.0","lang2","do","","-1","sound/ti.wav"
"-1000","","audio-keyboard-response","567","396789","0.0-11.0-556.0","lang2","do","","-1","sound/bu.wav"
"-1000","","audio-keyboard-response","568","397271","0.0-11.0-557.0","lang2","do","","-1","sound/do.wav"
"-1000","","audio-keyboard-response","569","397752","0.0-11.0-558.0","lang2","do","","-1","sound/da.wav"
"97.36961451244497","","audio-keyboard-response","570","398234","0.0-11.0-559.0","lang2","do","","32","sound/ro.wav"
"-1000","","audio-keyboard-response","571","398716","0.0-11.0-560.0","lang2","do","","-1","sound/pi.wav"
"-1000","","audio-keyboard-response","572","399198","0.0-11.0-561.0","lang2","do","","-1","sound/go.wav"
"-1000","","audio-keyboard-response","573","399679","0.0-11.0-562.0","lang2","do","","-1","sound/la.wav"
"-1000","","audio-keyboard-response","574","400162","0.0-11.0-563.0","lang2","do","","-1","sound/tu.wav"
"-1000","","audio-keyboard-response","575","400643","0.0-11.0-564.0","lang2","do","","-1","sound/pa.wav"
"-1000","","audio-keyboard-response","576","401125","0.0-11.0-565.0","lang2","do","","-1","sound/bi.wav"
"-1000","","audio-keyboard-response","577","401607","0.0-11.0-566.0","lang2","do","","-1","sound/ku.wav"
"-1000","","audio-keyboard-response","578","402089","0.0-11.0-567.0","lang2","do","","-1","sound/da.wav"
"-1000","","audio-keyboard-response","579","402571","0.0-11.0-568.0","lang2","do","","-1","sound/ro.wav"
"-1000","","audio-keyboard-response","580","403055","0.0-11.0-569.0","lang2","do","","-1","sound/pi.wav"
"-1000","","audio-keyboard-response","581","403541","0.0-11.0-570.0","lang2","do","","-1","sound/ti.wav"
"-1000","","audio-keyboard-response","582","404024","0.0-11.0-571.0","lang2","do","","-1","sound/bu.wav"
"-1000","","audio-keyboard-response","583","404509","0.0-11.0-572.0","lang2","do","","-1","sound/do.wav"
"-1000","","audio-keyboard-response","584","404993","0.0-11.0-573.0","lang2","do","","-1","sound/pa.wav"
"-100.00000000002274","","audio-keyboard-response","585","405478","0.0-11.0-574.0","lang2","do","","32","sound/bi.wav"
"58507.16553287975","","audio-keyboard-response","586","464099","0.0-12.0","lang2","do","","32","sound/ssl_instr8.wav"
"27578.185941043044","","audio-keyboard-response","587","492796","0.0-13.0","lang2","do","","32","sound/ssl_instr9.wav"
"24373.83219954643","","audio-keyboard-response","588","518274","0.0-14.0","lang2","do","","32","sound/ssl_instr10.wav"
"-1000","","audio-keyboard-response","589","519477","0.0-15.0-0.0","lang2","do","","-1","sound/silence.wav"
"-1000","","audio-keyboard-response","590","520142","0.0-15.0-1.0","lang2","do","","-1","sound/ti.wav"
"-1000","","audio-keyboard-response","591","520624","0.0-15.0-2.0","lang2","do","","-1","sound/bu.wav"
"-1000","","audio-keyboard-response","592","521106","0.0-15.0-3.0","lang2","do","","-1","sound/do.wav"
"-1000","","audio-keyboard-response","593","522569","0.0-15.0-4.0","lang2","do","","-1","sound/da.wav"
"-1000","","audio-keyboard-response","594","523051","0.0-15.0-5.0","lang2","do","","-1","sound/bi.wav"
"-1000","","audio-keyboard-response","595","523533","0.0-15.0-6.0","lang2","do","","-1","sound/tu.wav"
"8415.918367346989","","audio-keyboard-response","596","532074","0.0-15.0-7.0","lang2","do","","39","sound/silence.wav"
"-1000","","audio-keyboard-response","597","532738","0.0-15.0-8.0","lang2","do","","-1","sound/pa.wav"
"-1000","","audio-keyboard-response","598","533222","0.0-15.0-9.0","lang2","do","","-1","sound/bi.wav"
"-1000","","audio-keyboard-response","599","533705","0.0-15.0-10.0","lang2","do","","-1","sound/ku.wav"
"-1000","","audio-keyboard-response","600","535171","0.0-15.0-11.0","lang2","do","","-1","sound/go.wav"
"-1000","","audio-keyboard-response","601","535656","0.0-15.0-12.0","lang2","do","","-1","sound/bu.wav"
"-1000","","audio-keyboard-response","602","536139","0.0-15.0-13.0","lang2","do","","-1","sound/ku.wav"
"341.17913832199065","","audio-keyboard-response","603","536602","0.0-15.0-14.0","lang2","do","","37","sound/silence.wav"
"-1000","","audio-keyboard-response","604","537265","0.0-15.0-15.0","lang2","do","","-1","sound/ti.wav"
"-1000","","audio-keyboard-response","605","537752","0.0-15.0-16.0","lang2","do","","-1","sound/la.wav"
"-1000","","audio-keyboard-response","606","538235","0.0-15.0-17.0","lang2","do","","-1","sound/pi.wav"
"-1000","","audio-keyboard-response","607","539701","0.0-15.0-18.0","lang2","do","","-1","sound/ti.wav"
"-1000","","audio-keyboard-response","608","540185","0.0-15.0-19.0","lang2","do","","-1","sound/bu.wav"
"-1000","","audio-keyboard-response","609","540667","0.0-15.0-20.0","lang2","do","","-1","sound/do.wav"
"1200.3174603173647","","audio-keyboard-response","610","541989","0.0-15.0-21.0","lang2","do","","39","sound/silence.wav"
"-1000","","audio-keyboard-response","611","542652","0.0-15.0-22.0","lang2","do","","-1","sound/da.wav"
"-1000","","audio-keyboard-response","612","543134","0.0-15.0-23.0","lang2","do","","-1","sound/ro.wav"
"-1000","","audio-keyboard-response","613","543615","0.0-15.0-24.0","lang2","do","","-1","sound/pi.wav"
"-1000","","audio-keyboard-response","614","545078","0.0-15.0-25.0","lang2","do","","-1","sound/pa.wav"
"-1000","","audio-keyboard-response","615","545560","0.0-15.0-26.0","lang2","do","","-1","sound/ro.wav"
"-1000","","audio-keyboard-response","616","546041","0.0-15.0-27.0","lang2","do","","-1","sound/do.wav"
"56.73469387761543","","audio-keyboard-response","617","546225","0.0-15.0-28.0","lang2","do","","39","sound/silence.wav"
"-1000","","audio-keyboard-response","618","546888","0.0-15.0-29.0","lang2","do","","-1","sound/go.wav"
"-1000","","audio-keyboard-response","619","547370","0.0-15.0-30.0","lang2","do","","-1","sound/la.wav"
"-1000","","audio-keyboard-response","620","547853","0.0-15.0-31.0","lang2","do","","-1","sound/tu.wav"
"-1000","","audio-keyboard-response","621","549315","0.0-15.0-32.0","lang2","do","","-1","sound/da.wav"
"-1000","","audio-keyboard-response","622","549797","0.0-15.0-33.0","lang2","do","","-1","sound/bi.wav"
"-1000","","audio-keyboard-response","623","550278","0.0-15.0-34.0","lang2","do","","-1","sound/tu.wav"
"242.49433106569995","","audio-keyboard-response","624","550639","0.0-15.0-35.0","lang2","do","","39","sound/silence.wav"
"-1000","","audio-keyboard-response","625","551302","0.0-15.0-36.0","lang2","do","","-1","sound/da.wav"
"-1000","","audio-keyboard-response","626","551784","0.0-15.0-37.0","lang2","do","","-1","sound/ro.wav"
"-1000","","audio-keyboard-response","627","552269","0.0-15.0-38.0","lang2","do","","-1","sound/pi.wav"
"-1000","","audio-keyboard-response","628","553732","0.0-15.0-39.0","lang2","do","","-1","sound/pa.wav"
"-1000","","audio-keyboard-response","629","554214","0.0-15.0-40.0","lang2","do","","-1","sound/ro.wav"
"-1000","","audio-keyboard-response","630","554696","0.0-15.0-41.0","lang2","do","","-1","sound/do.wav"
"451.47392290243715","","audio-keyboard-response","631","555265","0.0-15.0-42.0","lang2","do","","39","sound/silence.wav"
"-1000","","audio-keyboard-response","632","555928","0.0-15.0-43.0","lang2","do","","-1","sound/go.wav"
"-1000","","audio-keyboard-response","633","556411","0.0-15.0-44.0","lang2","do","","-1","sound/bu.wav"
"-1000","","audio-keyboard-response","634","556896","0.0-15.0-45.0","lang2","do","","-1","sound/ku.wav"
"-1000","","audio-keyboard-response","635","558359","0.0-15.0-46.0","lang2","do","","-1","sound/ti.wav"
"-1000","","audio-keyboard-response","636","558843","0.0-15.0-47.0","lang2","do","","-1","sound/bu.wav"
"-1000","","audio-keyboard-response","637","559328","0.0-15.0-48.0","lang2","do","","-1","sound/do.wav"
"677.8684807256923","","audio-keyboard-response","638","560135","0.0-15.0-49.0","lang2","do","","39","sound/silence.wav"
"-1000","","audio-keyboard-response","639","560802","0.0-15.0-50.0","lang2","do","","-1","sound/ti.wav"
"-1000","","audio-keyboard-response","640","561287","0.0-15.0-51.0","lang2","do","","-1","sound/la.wav"
"-1000","","audio-keyboard-response","641","561772","0.0-15.0-52.0","lang2","do","","-1","sound/pi.wav"
"-1000","","audio-keyboard-response","642","563234","0.0-15.0-53.0","lang2","do","","-1","sound/pa.wav"
"-1000","","audio-keyboard-response","643","563719","0.0-15.0-54.0","lang2","do","","-1","sound/bi.wav"
"-1000","","audio-keyboard-response","644","564203","0.0-15.0-55.0","lang2","do","","-1","sound/ku.wav"
"120.58956916087027","","audio-keyboard-response","645","564449","0.0-15.0-56.0","lang2","do","","39","sound/silence.wav"
"-1000","","audio-keyboard-response","646","565115","0.0-15.0-57.0","lang2","do","","-1","sound/da.wav"
"-1000","","audio-keyboard-response","647","565600","0.0-15.0-58.0","lang2","do","","-1","sound/bi.wav"
"-1000","","audio-keyboard-response","648","566084","0.0-15.0-59.0","lang2","do","","-1","sound/tu.wav"
"-1000","","audio-keyboard-response","649","567549","0.0-15.0-60.0","lang2","do","","-1","sound/go.wav"
"-1000","","audio-keyboard-response","650","568034","0.0-15.0-61.0","lang2","do","","-1","sound/la.wav"
"-1000","","audio-keyboard-response","651","568521","0.0-15.0-62.0","lang2","do","","-1","sound/tu.wav"
"27.709750566941693","","audio-keyboard-response","652","568669","0.0-15.0-63.0","lang2","do","","39","sound/silence.wav"
"-1000","","audio-keyboard-response","653","569334","0.0-15.0-64.0","lang2","do","","-1","sound/pa.wav"
"-1000","","audio-keyboard-response","654","569815","0.0-15.0-65.0","lang2","do","","-1","sound/ro.wav"
"-1000","","audio-keyboard-response","655","570297","0.0-15.0-66.0","lang2","do","","-1","sound/do.wav"
"-1000","","audio-keyboard-response","656","571760","0.0-15.0-67.0","lang2","do","","-1","sound/da.wav"
"-1000","","audio-keyboard-response","657","572242","0.0-15.0-68.0","lang2","do","","-1","sound/ro.wav"
"-1000","","audio-keyboard-response","658","572724","0.0-15.0-69.0","lang2","do","","-1","sound/pi.wav"
"143.80952380952294","","audio-keyboard-response","659","572992","0.0-15.0-70.0","lang2","do","","37","sound/silence.wav"
"-1000","","audio-keyboard-response","660","573659","0.0-15.0-71.0","lang2","do","","-1","sound/pa.wav"
"-1000","","audio-keyboard-response","661","574140","0.0-15.0-72.0","lang2","do","","-1","sound/bi.wav"
"-1000","","audio-keyboard-response","662","574622","0.0-15.0-73.0","lang2","do","","-1","sound/ku.wav"
"-1000","","audio-keyboard-response","663","576085","0.0-15.0-74.0","lang2","do","","-1","sound/go.wav"
"-1000","","audio-keyboard-response","664","576567","0.0-15.0-75.0","lang2","do","","-1","sound/bu.wav"
"-1000","","audio-keyboard-response","665","577048","0.0-15.0-76.0","lang2","do","","-1","sound/ku.wav"
"155.41950113379244","","audio-keyboard-response","666","577330","0.0-15.0-77.0","lang2","do","","39","sound/silence.wav"
"-1000","","audio-keyboard-response","667","577997","0.0-15.0-78.0","lang2","do","","-1","sound/ti.wav"
"-1000","","audio-keyboard-response","668","578482","0.0-15.0-79.0","lang2","do","","-1","sound/bu.wav"
"-1000","","audio-keyboard-response","669","578964","0.0-15.0-80.0","lang2","do","","-1","sound/do.wav"
"-1000","","audio-keyboard-response","670","580426","0.0-15.0-81.0","lang2","do","","-1","sound/ti.wav"
"-1000","","audio-keyboard-response","671","580908","0.0-15.0-82.0","lang2","do","","-1","sound/la.wav"
"-1000","","audio-keyboard-response","672","581391","0.0-15.0-83.0","lang2","do","","-1","sound/pi.wav"
"277.32426303850843","","audio-keyboard-response","673","581790","0.0-15.0-84.0","lang2","do","","37","sound/silence.wav"
"-1000","","audio-keyboard-response","674","582452","0.0-15.0-85.0","lang2","do","","-1","sound/pa.wav"
"-1000","","audio-keyboard-response","675","582933","0.0-15.0-86.0","lang2","do","","-1","sound/bi.wav"
"-1000","","audio-keyboard-response","676","583416","0.0-15.0-87.0","lang2","do","","-1","sound/ku.wav"
"-1000","","audio-keyboard-response","677","584878","0.0-15.0-88.0","lang2","do","","-1","sound/go.wav"
"-1000","","audio-keyboard-response","678","585359","0.0-15.0-89.0","lang2","do","","-1","sound/bu.wav"
"-1000","","audio-keyboard-response","679","585842","0.0-15.0-90.0","lang2","do","","-1","sound/ku.wav"
"323.7641723355864","","audio-keyboard-response","680","586283","0.0-15.0-91.0","lang2","do","","39","sound/silence.wav"
"-1000","","audio-keyboard-response","681","586946","0.0-15.0-92.0","lang2","do","","-1","sound/pa.wav"
"-1000","","audio-keyboard-response","682","587432","0.0-15.0-93.0","lang2","do","","-1","sound/ro.wav"
"-1000","","audio-keyboard-response","683","587914","0.0-15.0-94.0","lang2","do","","-1","sound/do.wav"
"-1000","","audio-keyboard-response","684","589377","0.0-15.0-95.0","lang2","do","","-1","sound/da.wav"
"-1000","","audio-keyboard-response","685","589861","0.0-15.0-96.0","lang2","do","","-1","sound/ro.wav"
"-1000","","audio-keyboard-response","686","590347","0.0-15.0-97.0","lang2","do","","-1","sound/pi.wav"
"567.5736961450184","","audio-keyboard-response","687","591039","0.0-15.0-98.0","lang2","do","","37","sound/silence.wav"
"-1000","","audio-keyboard-response","688","591704","0.0-15.0-99.0","lang2","do","","-1","sound/da.wav"
"-1000","","audio-keyboard-response","689","592186","0.0-15.0-100.0","lang2","do","","-1","sound/bi.wav"
"-1000","","audio-keyboard-response","690","592670","0.0-15.0-101.0","lang2","do","","-1","sound/tu.wav"
"-1000","","audio-keyboard-response","691","594137","0.0-15.0-102.0","lang2","do","","-1","sound/ti.wav"
"-1000","","audio-keyboard-response","692","594621","0.0-15.0-103.0","lang2","do","","-1","sound/bu.wav"
"-1000","","audio-keyboard-response","693","595106","0.0-15.0-104.0","lang2","do","","-1","sound/do.wav"
"2175.5555555555475","","audio-keyboard-response","694","597403","0.0-15.0-105.0","lang2","do","","37","sound/silence.wav"
"-1000","","audio-keyboard-response","695","598067","0.0-15.0-106.0","lang2","do","","-1","sound/go.wav"
"-1000","","audio-keyboard-response","696","598549","0.0-15.0-107.0","lang2","do","","-1","sound/la.wav"
"-1000","","audio-keyboard-response","697","599033","0.0-15.0-108.0","lang2","do","","-1","sound/tu.wav"
"-1000","","audio-keyboard-response","698","600498","0.0-15.0-109.0","lang2","do","","-1","sound/ti.wav"
"-1000","","audio-keyboard-response","699","600984","0.0-15.0-110.0","lang2","do","","-1","sound/la.wav"
"-1000","","audio-keyboard-response","700","601467","0.0-15.0-111.0","lang2","do","","-1","sound/pi.wav"
"161.22448979592718","","audio-keyboard-response","701","601752","0.0-15.0-112.0","lang2","do","","37","sound/silence.wav"
"-1000","","audio-keyboard-response","702","602418","0.0-15.0-113.0","lang2","do","","-1","sound/pa.wav"
"-1000","","audio-keyboard-response","703","602901","0.0-15.0-114.0","lang2","do","","-1","sound/ro.wav"
"-1000","","audio-keyboard-response","704","603385","0.0-15.0-115.0","lang2","do","","-1","sound/do.wav"
"-1000","","audio-keyboard-response","705","604850","0.0-15.0-116.0","lang2","do","","-1","sound/pa.wav"
"-1000","","audio-keyboard-response","706","605332","0.0-15.0-117.0","lang2","do","","-1","sound/bi.wav"
"-1000","","audio-keyboard-response","707","605814","0.0-15.0-118.0","lang2","do","","-1","sound/ku.wav"
"50.929705215366994","","audio-keyboard-response","708","605991","0.0-15.0-119.0","lang2","do","","37","sound/silence.wav"
"-1000","","audio-keyboard-response","709","606656","0.0-15.0-120.0","lang2","do","","-1","sound/go.wav"
"-1000","","audio-keyboard-response","710","607138","0.0-15.0-121.0","lang2","do","","-1","sound/bu.wav"
"-1000","","audio-keyboard-response","711","607619","0.0-15.0-122.0","lang2","do","","-1","sound/ku.wav"
"-1000","","audio-keyboard-response","712","609083","0.0-15.0-123.0","lang2","do","","-1","sound/da.wav"
"-1000","","audio-keyboard-response","713","609564","0.0-15.0-124.0","lang2","do","","-1","sound/ro.wav"
"-1000","","audio-keyboard-response","714","610046","0.0-15.0-125.0","lang2","do","","-1","sound/pi.wav"
"97.36961451244497","","audio-keyboard-response","715","610269","0.0-15.0-126.0","lang2","do","","39","sound/silence.wav"
"-1000","","audio-keyboard-response","716","610934","0.0-15.0-127.0","lang2","do","","-1","sound/go.wav"
"-1000","","audio-keyboard-response","717","611415","0.0-15.0-128.0","lang2","do","","-1","sound/la.wav"
"-1000","","audio-keyboard-response","718","611897","0.0-15.0-129.0","lang2","do","","-1","sound/tu.wav"
"-1000","","audio-keyboard-response","719","613360","0.0-15.0-130.0","lang2","do","","-1","sound/da.wav"
"-1000","","audio-keyboard-response","720","613842","0.0-15.0-131.0","lang2","do","","-1","sound/bi.wav"
"-1000","","audio-keyboard-response","721","614327","0.0-15.0-132.0","lang2","do","","-1","sound/tu.wav"
"335.3741496598559","","audio-keyboard-response","722","614782","0.0-15.0-133.0","lang2","do","","37","sound/silence.wav"
"-1000","","audio-keyboard-response","723","615443","0.0-15.0-134.0","lang2","do","","-1","sound/ti.wav"
"-1000","","audio-keyboard-response","724","615926","0.0-15.0-135.0","lang2","do","","-1","sound/bu.wav"
"-1000","","audio-keyboard-response","725","616407","0.0-15.0-136.0","lang2","do","","-1","sound/do.wav"
"-1000","","audio-keyboard-response","726","617870","0.0-15.0-137.0","lang2","do","","-1","sound/go.wav"
"-1000","","audio-keyboard-response","727","618352","0.0-15.0-138.0","lang2","do","","-1","sound/bu.wav"
"-1000","","audio-keyboard-response","728","618833","0.0-15.0-139.0","lang2","do","","-1","sound/ku.wav"
"480.4988662132246","","audio-keyboard-response","729","619437","0.0-15.0-140.0","lang2","do","","37","sound/silence.wav"
"-1000","","audio-keyboard-response","730","620099","0.0-15.0-141.0","lang2","do","","-1","sound/pa.wav"
"-1000","","audio-keyboard-response","731","620581","0.0-15.0-142.0","lang2","do","","-1","sound/ro.wav"
"-1000","","audio-keyboard-response","732","621062","0.0-15.0-143.0","lang2","do","","-1","sound/do.wav"
"-1000","","audio-keyboard-response","733","622525","0.0-15.0-144.0","lang2","do","","-1","sound/go.wav"
"-1000","","audio-keyboard-response","734","623006","0.0-15.0-145.0","lang2","do","","-1","sound/la.wav"
"-1000","","audio-keyboard-response","735","623489","0.0-15.0-146.0","lang2","do","","-1","sound/tu.wav"
"68.34467120177123","","audio-keyboard-response","736","623678","0.0-15.0-147.0","lang2","do","","37","sound/silence.wav"
"-1000","","audio-keyboard-response","737","624342","0.0-15.0-148.0","lang2","do","","-1","sound/ti.wav"
"-1000","","audio-keyboard-response","738","624826","0.0-15.0-149.0","lang2","do","","-1","sound/bu.wav"
"-1000","","audio-keyboard-response","739","625312","0.0-15.0-150.0","lang2","do","","-1","sound/do.wav"
"-1000","","audio-keyboard-response","740","626775","0.0-15.0-151.0","lang2","do","","-1","sound/ti.wav"
"-1000","","audio-keyboard-response","741","627259","0.0-15.0-152.0","lang2","do","","-1","sound/la.wav"
"-1000","","audio-keyboard-response","742","627743","0.0-15.0-153.0","lang2","do","","-1","sound/pi.wav"
"196.05442176862198","","audio-keyboard-response","743","628065","0.0-15.0-154.0","lang2","do","","37","sound/silence.wav"
"-1000","","audio-keyboard-response","744","628731","0.0-15.0-155.0","lang2","do","","-1","sound/da.wav"
"-1000","","audio-keyboard-response","745","629215","0.0-15.0-156.0","lang2","do","","-1","sound/bi.wav"
"-1000","","audio-keyboard-response","746","629700","0.0-15.0-157.0","lang2","do","","-1","sound/tu.wav"
"-1000","","audio-keyboard-response","747","631163","0.0-15.0-158.0","lang2","do","","-1","sound/da.wav"
"-1000","","audio-keyboard-response","748","631648","0.0-15.0-159.0","lang2","do","","-1","sound/ro.wav"
"-1000","","audio-keyboard-response","749","632131","0.0-15.0-160.0","lang2","do","","-1","sound/pi.wav"
"3359.7732426303537","","audio-keyboard-response","750","635613","0.0-15.0-161.0","lang2","do","","39","sound/silence.wav"
"-1000","","audio-keyboard-response","751","636276","0.0-15.0-162.0","lang2","do","","-1","sound/pa.wav"
"-1000","","audio-keyboard-response","752","636761","0.0-15.0-163.0","lang2","do","","-1","sound/bi.wav"
"-1000","","audio-keyboard-response","753","637245","0.0-15.0-164.0","lang2","do","","-1","sound/ku.wav"
"-1000","","audio-keyboard-response","754","638707","0.0-15.0-165.0","lang2","do","","-1","sound/ti.wav"
"-1000","","audio-keyboard-response","755","639188","0.0-15.0-166.0","lang2","do","","-1","sound/la.wav"
"-1000","","audio-keyboard-response","756","639671","0.0-15.0-167.0","lang2","do","","-1","sound/pi.wav"
"3893.8321995464094","","audio-keyboard-response","757","643691","0.0-15.0-168.0","lang2","do","","37","sound/silence.wav"
"-1000","","audio-keyboard-response","758","644355","0.0-15.0-169.0","lang2","do","","-1","sound/da.wav"
"-1000","","audio-keyboard-response","759","644837","0.0-15.0-170.0","lang2","do","","-1","sound/bi.wav"
"-1000","","audio-keyboard-response","760","645318","0.0-15.0-171.0","lang2","do","","-1","sound/tu.wav"
"-1000","","audio-keyboard-response","761","646782","0.0-15.0-172.0","lang2","do","","-1","sound/go.wav"
"-1000","","audio-keyboard-response","762","647263","0.0-15.0-173.0","lang2","do","","-1","sound/la.wav"
"-1000","","audio-keyboard-response","763","647745","0.0-15.0-174.0","lang2","do","","-1","sound/tu.wav"
"561.7687074829973","","audio-keyboard-response","764","648423","0.0-15.0-175.0","lang2","do","","37","sound/silence.wav"
"-1000","","audio-keyboard-response","765","649086","0.0-15.0-176.0","lang2","do","","-1","sound/ti.wav"
"-1000","","audio-keyboard-response","766","649568","0.0-15.0-177.0","lang2","do","","-1","sound/bu.wav"
"-1000","","audio-keyboard-response","767","650050","0.0-15.0-178.0","lang2","do","","-1","sound/do.wav"
"-1000","","audio-keyboard-response","768","651512","0.0-15.0-179.0","lang2","do","","-1","sound/go.wav"
"-1000","","audio-keyboard-response","769","651994","0.0-15.0-180.0","lang2","do","","-1","sound/bu.wav"
"-1000","","audio-keyboard-response","770","652475","0.0-15.0-181.0","lang2","do","","-1","sound/ku.wav"
"718.5034013605218","","audio-keyboard-response","771","653314","0.0-15.0-182.0","lang2","do","","37","sound/silence.wav"
"-1000","","audio-keyboard-response","772","653978","0.0-15.0-183.0","lang2","do","","-1","sound/pa.wav"
"-1000","","audio-keyboard-response","773","654460","0.0-15.0-184.0","lang2","do","","-1","sound/ro.wav"
"-1000","","audio-keyboard-response","774","654942","0.0-15.0-185.0","lang2","do","","-1","sound/do.wav"
"-1000","","audio-keyboard-response","775","656407","0.0-15.0-186.0","lang2","do","","-1","sound/da.wav"
"-1000","","audio-keyboard-response","776","656893","0.0-15.0-187.0","lang2","do","","-1","sound/ro.wav"
"-1000","","audio-keyboard-response","777","657376","0.0-15.0-188.0","lang2","do","","-1","sound/pi.wav"
"341.17913832199065","","audio-keyboard-response","778","657840","0.0-15.0-189.0","lang2","do","","37","sound/silence.wav"
"-1000","","audio-keyboard-response","779","658506","0.0-15.0-190.0","lang2","do","","-1","sound/pa.wav"
"-1000","","audio-keyboard-response","780","658991","0.0-15.0-191.0","lang2","do","","-1","sound/bi.wav"
"-1000","","audio-keyboard-response","781","659476","0.0-15.0-192.0","lang2","do","","-1","sound/ku.wav"
"-1000","","audio-keyboard-response","782","660939","0.0-15.0-193.0","lang2","do","","-1","sound/go.wav"
"-1000","","audio-keyboard-response","783","661420","0.0-15.0-194.0","lang2","do","","-1","sound/bu.wav"
"-1000","","audio-keyboard-response","784","661904","0.0-15.0-195.0","lang2","do","","-1","sound/ku.wav"
"869.4331065759116","","audio-keyboard-response","785","662898","0.0-15.0-196.0","lang2","do","","37","sound/silence.wav"
"-1000","","audio-keyboard-response","786","663562","0.0-15.0-197.0","lang2","do","","-1","sound/da.wav"
"-1000","","audio-keyboard-response","787","664046","0.0-15.0-198.0","lang2","do","","-1","sound/ro.wav"
"-1000","","audio-keyboard-response","788","664531","0.0-15.0-199.0","lang2","do","","-1","sound/pi.wav"
"-1000","","audio-keyboard-response","789","665994","0.0-15.0-200.0","lang2","do","","-1","sound/ti.wav"
"-1000","","audio-keyboard-response","790","666479","0.0-15.0-201.0","lang2","do","","-1","sound/la.wav"
"-1000","","audio-keyboard-response","791","666963","0.0-15.0-202.0","lang2","do","","-1","sound/pi.wav"
"364.39909297052964","","audio-keyboard-response","792","667455","0.0-15.0-203.0","lang2","do","","37","sound/silence.wav"
"-1000","","audio-keyboard-response","793","668117","0.0-15.0-204.0","lang2","do","","-1","sound/da.wav"
"-1000","","audio-keyboard-response","794","668600","0.0-15.0-205.0","lang2","do","","-1","sound/bi.wav"
"-1000","","audio-keyboard-response","795","669086","0.0-15.0-206.0","lang2","do","","-1","sound/tu.wav"
"-1000","","audio-keyboard-response","796","670550","0.0-15.0-207.0","lang2","do","","-1","sound/go.wav"
"-1000","","audio-keyboard-response","797","671038","0.0-15.0-208.0","lang2","do","","-1","sound/la.wav"
"-1000","","audio-keyboard-response","798","671524","0.0-15.0-209.0","lang2","do","","-1","sound/tu.wav"
"451.47392290243715","","audio-keyboard-response","799","672100","0.0-15.0-210.0","lang2","do","","39","sound/silence.wav"
"-1000","","audio-keyboard-response","800","672767","0.0-15.0-211.0","lang2","do","","-1","sound/ti.wav"
"-1000","","audio-keyboard-response","801","673248","0.0-15.0-212.0","lang2","do","","-1","sound/la.wav"
"-1000","","audio-keyboard-response","802","673730","0.0-15.0-213.0","lang2","do","","-1","sound/pi.wav"
"-1000","","audio-keyboard-response","803","675194","0.0-15.0-214.0","lang2","do","","-1","sound/ti.wav"
"-1000","","audio-keyboard-response","804","675675","0.0-15.0-215.0","lang2","do","","-1","sound/bu.wav"
"-1000","","audio-keyboard-response","805","676157","0.0-15.0-216.0","lang2","do","","-1","sound/do.wav"
"213.4693877551399","","audio-keyboard-response","806","676494","0.0-15.0-217.0","lang2","do","","37","sound/silence.wav"
"-1000","","audio-keyboard-response","807","677156","0.0-15.0-218.0","lang2","do","","-1","sound/pa.wav"
"-1000","","audio-keyboard-response","808","677638","0.0-15.0-219.0","lang2","do","","-1","sound/ro.wav"
"-1000","","audio-keyboard-response","809","678119","0.0-15.0-220.0","lang2","do","","-1","sound/do.wav"
"-1000","","audio-keyboard-response","810","679584","0.0-15.0-221.0","lang2","do","","-1","sound/pa.wav"
"-1000","","audio-keyboard-response","811","680069","0.0-15.0-222.0","lang2","do","","-1","sound/bi.wav"
"-1000","","audio-keyboard-response","812","680550","0.0-15.0-223.0","lang2","do","","-1","sound/ku.wav"
"526.9387755101889","","audio-keyboard-response","813","681197","0.0-15.0-224.0","lang2","do","","37","sound/silence.wav"
"2508","","text","814","683910","0.0-16.0","lang2","do","","32",""
