"rt","responses","trial_type","trial_index","time_elapsed","internal_node_id","cond","targ","key_press"
"5313","{""Q0"":""""}","survey-text","0","5334","0.0-0.0","lang2","pi",""
"1149.52380952381","","single-audio","1","7596","0.0-1.0","lang2","pi","32"
"609.6598639455788","","single-audio","2","9303","0.0-2.0","lang2","pi","32"
"255.55555555555642","","single-audio","3","10664","0.0-3.0","lang2","pi","32"
"184.44444444444485","","single-audio","4","11956","0.0-4.0","lang2","pi","32"
"184.44444444444485","","single-audio","5","13268","0.0-5.0","lang2","pi","32"
"255.55555555555287","","single-audio","6","14625","0.0-6.0","lang2","pi","32"
"214.9206349206345","","single-audio","7","15934","0.0-7.0","lang2","pi","32"
"1799.6825396825393","","single-audio","8","18831","0.0-8.0","lang2","pi","32"
"326.66666666666447","","single-audio","9","20262","0.0-9.0","lang2","pi","32"
"377.4603174603151","","single-audio","10","21740","0.0-10.0","lang2","pi","32"
"225.0793650793632","","single-audio","11","23068","0.0-11.0","lang2","pi","32"
"204.76190476190226","","single-audio","12","24373","0.0-12.0","lang2","pi","32"
"-1000","","single-audio","13","25575","0.0-13.0-0.0","lang2","pi","-1"
"-1000","","single-audio","14","26238","0.0-13.0-1.0","lang2","pi","-1"
"-1000","","single-audio","15","26720","0.0-13.0-2.0","lang2","pi","-1"
"-1000","","single-audio","16","27202","0.0-13.0-3.0","lang2","pi","-1"
"-1000","","single-audio","17","28665","0.0-13.0-4.0","lang2","pi","-1"
"-1000","","single-audio","18","29221","0.0-13.0-5.0","lang2","pi","-1"
"-1000","","single-audio","19","29708","0.0-13.0-6.0","lang2","pi","-1"
"905.7142857142857","","single-audio","20","30745","0.0-13.0-7.0","lang2","pi","39"
"-1000","","single-audio","21","31408","0.0-13.0-8.0","lang2","pi","-1"
"-1000","","single-audio","22","31890","0.0-13.0-9.0","lang2","pi","-1"
"-1000","","single-audio","23","32373","0.0-13.0-10.0","lang2","pi","-1"
"-1000","","single-audio","24","33837","0.0-13.0-11.0","lang2","pi","-1"
"-1000","","single-audio","25","34319","0.0-13.0-12.0","lang2","pi","-1"
"-1000","","single-audio","26","34801","0.0-13.0-13.0","lang2","pi","-1"
"275.8730158730103","","single-audio","27","35204","0.0-13.0-14.0","lang2","pi","39"
"-1000","","single-audio","28","35866","0.0-13.0-15.0","lang2","pi","-1"
"-1000","","single-audio","29","36351","0.0-13.0-16.0","lang2","pi","-1"
"-1000","","single-audio","30","36859","0.0-13.0-17.0","lang2","pi","-1"
"-1000","","single-audio","31","38332","0.0-13.0-18.0","lang2","pi","-1"
"-1000","","single-audio","32","38814","0.0-13.0-19.0","lang2","pi","-1"
"194.60317460317356","","single-audio","33","39334","0.0-13.0-20.0","lang2","pi","39"
"32.06349206348591","","single-audio","34","39494","0.0-13.0-21.0","lang2","pi","39"
"-59.36507936507951","","single-audio","35","40156","0.0-13.0-22.0","lang2","pi","39"
"-1000","","single-audio","36","40639","0.0-13.0-23.0","lang2","pi","-1"
"-1000","","single-audio","37","41121","0.0-13.0-24.0","lang2","pi","-1"
"-1000","","single-audio","38","42594","0.0-13.0-25.0","lang2","pi","-1"
"-1000","","single-audio","39","43076","0.0-13.0-26.0","lang2","pi","-1"
"-1000","","single-audio","40","43569","0.0-13.0-27.0","lang2","pi","-1"
"235.23809523809547","","single-audio","41","43927","0.0-13.0-28.0","lang2","pi","39"
"-1000","","single-audio","42","44589","0.0-13.0-29.0","lang2","pi","-1"
"-1000","","single-audio","43","45093","0.0-13.0-30.0","lang2","pi","-1"
"-1000","","single-audio","44","45580","0.0-13.0-31.0","lang2","pi","-1"
"357.1428571428541","","single-audio","45","47070","0.0-13.0-32.0","lang2","pi","39"
"286.0317460317461","","single-audio","46","47552","0.0-13.0-33.0","lang2","pi","39"
"164.12698412698035","","single-audio","47","48036","0.0-13.0-34.0","lang2","pi","39"
"52.38095238095042","","single-audio","48","48211","0.0-13.0-35.0","lang2","pi","39"
"-1000","","single-audio","49","48874","0.0-13.0-36.0","lang2","pi","-1"
"62.539682539686225","","single-audio","50","49356","0.0-13.0-37.0","lang2","pi","39"
"-1000","","single-audio","51","49849","0.0-13.0-38.0","lang2","pi","-1"
"-1000","","single-audio","52","51315","0.0-13.0-39.0","lang2","pi","-1"
"52.380952380957524","","single-audio","53","51799","0.0-13.0-40.0","lang2","pi","39"
"-1000","","single-audio","54","52282","0.0-13.0-41.0","lang2","pi","-1"
"306.3492063492035","","single-audio","55","52713","0.0-13.0-42.0","lang2","pi","39"
"-1000","","single-audio","56","53377","0.0-13.0-43.0","lang2","pi","-1"
"-1000","","single-audio","57","53859","0.0-13.0-44.0","lang2","pi","-1"
"-1000","","single-audio","58","54346","0.0-13.0-45.0","lang2","pi","-1"
"-1000","","single-audio","59","55814","0.0-13.0-46.0","lang2","pi","-1"
"-1000","","single-audio","60","56301","0.0-13.0-47.0","lang2","pi","-1"
"-1000","","single-audio","61","56783","0.0-13.0-48.0","lang2","pi","-1"
"133.65079365078714","","single-audio","62","57037","0.0-13.0-49.0","lang2","pi","39"
"-1000","","single-audio","63","57700","0.0-13.0-50.0","lang2","pi","-1"
"-1000","","single-audio","64","58182","0.0-13.0-51.0","lang2","pi","-1"
"-1000","","single-audio","65","58672","0.0-13.0-52.0","lang2","pi","-1"
"-1000","","single-audio","66","60148","0.0-13.0-53.0","lang2","pi","-1"
"-1000","","single-audio","67","60635","0.0-13.0-54.0","lang2","pi","-1"
"-1000","","single-audio","68","61117","0.0-13.0-55.0","lang2","pi","-1"
"316.5079365079393","","single-audio","69","61548","0.0-13.0-56.0","lang2","pi","39"
"-1000","","single-audio","70","62210","0.0-13.0-57.0","lang2","pi","-1"
"-1000","","single-audio","71","62693","0.0-13.0-58.0","lang2","pi","-1"
"-1000","","single-audio","72","63177","0.0-13.0-59.0","lang2","pi","-1"
"-1000","","single-audio","73","64670","0.0-13.0-60.0","lang2","pi","-1"
"-1000","","single-audio","74","65155","0.0-13.0-61.0","lang2","pi","-1"
"-1000","","single-audio","75","65637","0.0-13.0-62.0","lang2","pi","-1"
"225.07936507936677","","single-audio","76","65998","0.0-13.0-63.0","lang2","pi","39"
"-1000","","single-audio","77","66685","0.0-13.0-64.0","lang2","pi","-1"
"-1000","","single-audio","78","67167","0.0-13.0-65.0","lang2","pi","-1"
"-1000","","single-audio","79","67671","0.0-13.0-66.0","lang2","pi","-1"
"-1000","","single-audio","80","69137","0.0-13.0-67.0","lang2","pi","-1"
"-1000","","single-audio","81","69619","0.0-13.0-68.0","lang2","pi","-1"
"-1000","","single-audio","82","70101","0.0-13.0-69.0","lang2","pi","-1"
"245.39682539683838","","single-audio","83","70467","0.0-13.0-70.0","lang2","pi","39"
"-1000","","single-audio","84","71144","0.0-13.0-71.0","lang2","pi","-1"
"-1000","","single-audio","85","71626","0.0-13.0-72.0","lang2","pi","-1"
"-1000","","single-audio","86","72112","0.0-13.0-73.0","lang2","pi","-1"
"-1000","","single-audio","87","73579","0.0-13.0-74.0","lang2","pi","-1"
"-1000","","single-audio","88","74063","0.0-13.0-75.0","lang2","pi","-1"
"-1000","","single-audio","89","74545","0.0-13.0-76.0","lang2","pi","-1"
"255.55555555555998","","single-audio","90","74919","0.0-13.0-77.0","lang2","pi","39"
"-1000","","single-audio","91","75581","0.0-13.0-78.0","lang2","pi","-1"
"-1000","","single-audio","92","76063","0.0-13.0-79.0","lang2","pi","-1"
"-1000","","single-audio","93","76545","0.0-13.0-80.0","lang2","pi","-1"
"-1000","","single-audio","94","78027","0.0-13.0-81.0","lang2","pi","-1"
"-1000","","single-audio","95","78509","0.0-13.0-82.0","lang2","pi","-1"
"-1000","","single-audio","96","78991","0.0-13.0-83.0","lang2","pi","-1"
"377.4603174603186","","single-audio","97","79487","0.0-13.0-84.0","lang2","pi","39"
"-1000","","single-audio","98","80150","0.0-13.0-85.0","lang2","pi","-1"
"-1000","","single-audio","99","80695","0.0-13.0-86.0","lang2","pi","-1"
"-1000","","single-audio","100","81177","0.0-13.0-87.0","lang2","pi","-1"
"-1000","","single-audio","101","82689","0.0-13.0-88.0","lang2","pi","-1"
"-1000","","single-audio","102","83171","0.0-13.0-89.0","lang2","pi","-1"
"-1000","","single-audio","103","83667","0.0-13.0-90.0","lang2","pi","-1"
"255.55555555555998","","single-audio","104","84055","0.0-13.0-91.0","lang2","pi","39"
"-1000","","single-audio","105","84717","0.0-13.0-92.0","lang2","pi","-1"
"-1000","","single-audio","106","85238","0.0-13.0-93.0","lang2","pi","-1"
"-1000","","single-audio","107","85732","0.0-13.0-94.0","lang2","pi","-1"
"-1000","","single-audio","108","87198","0.0-13.0-95.0","lang2","pi","-1"
"-1000","","single-audio","109","87680","0.0-13.0-96.0","lang2","pi","-1"
"-1000","","single-audio","110","88214","0.0-13.0-97.0","lang2","pi","-1"
"326.6666666666822","","single-audio","111","88697","0.0-13.0-98.0","lang2","pi","37"
"-1000","","single-audio","112","89361","0.0-13.0-99.0","lang2","pi","-1"
"-1000","","single-audio","113","89863","0.0-13.0-100.0","lang2","pi","-1"
"-1000","","single-audio","114","90348","0.0-13.0-101.0","lang2","pi","-1"
"-1000","","single-audio","115","91810","0.0-13.0-102.0","lang2","pi","-1"
"-1000","","single-audio","116","92295","0.0-13.0-103.0","lang2","pi","-1"
"-1000","","single-audio","117","92778","0.0-13.0-104.0","lang2","pi","-1"
"164.12698412698035","","single-audio","118","93063","0.0-13.0-105.0","lang2","pi","39"
"-1000","","single-audio","119","93727","0.0-13.0-106.0","lang2","pi","-1"
"-1000","","single-audio","120","94213","0.0-13.0-107.0","lang2","pi","-1"
"-1000","","single-audio","121","94695","0.0-13.0-108.0","lang2","pi","-1"
"-1000","","single-audio","122","96158","0.0-13.0-109.0","lang2","pi","-1"
"-1000","","single-audio","123","96654","0.0-13.0-110.0","lang2","pi","-1"
"-1000","","single-audio","124","97137","0.0-13.0-111.0","lang2","pi","-1"
"174.28571428573036","","single-audio","125","97437","0.0-13.0-112.0","lang2","pi","39"
"-1000","","single-audio","126","98103","0.0-13.0-113.0","lang2","pi","-1"
"-1000","","single-audio","127","98585","0.0-13.0-114.0","lang2","pi","-1"
"-1000","","single-audio","128","99067","0.0-13.0-115.0","lang2","pi","-1"
"-89.84126984125851","","single-audio","129","100529","0.0-13.0-116.0","lang2","pi","39"
"-1000","","single-audio","130","101014","0.0-13.0-117.0","lang2","pi","-1"
"-1000","","single-audio","131","101519","0.0-13.0-118.0","lang2","pi","-1"
"275.8730158730316","","single-audio","132","101922","0.0-13.0-119.0","lang2","pi","39"
"-1000","","single-audio","133","102627","0.0-13.0-120.0","lang2","pi","-1"
"-1000","","single-audio","134","103109","0.0-13.0-121.0","lang2","pi","-1"
"174.28571428573036","","single-audio","135","103612","0.0-13.0-122.0","lang2","pi","39"
"-1000","","single-audio","136","105118","0.0-13.0-123.0","lang2","pi","-1"
"-1000","","single-audio","137","105600","0.0-13.0-124.0","lang2","pi","-1"
"-1000","","single-audio","138","106083","0.0-13.0-125.0","lang2","pi","-1"
"326.666666666668","","single-audio","139","106532","0.0-13.0-126.0","lang2","pi","37"
"-1000","","single-audio","140","107194","0.0-13.0-127.0","lang2","pi","-1"
"-1000","","single-audio","141","107676","0.0-13.0-128.0","lang2","pi","-1"
"-1000","","single-audio","142","108159","0.0-13.0-129.0","lang2","pi","-1"
"-1000","","single-audio","143","109639","0.0-13.0-130.0","lang2","pi","-1"
"-1000","","single-audio","144","110121","0.0-13.0-131.0","lang2","pi","-1"
"-1000","","single-audio","145","110603","0.0-13.0-132.0","lang2","pi","-1"
"174.28571428571615","","single-audio","146","110904","0.0-13.0-133.0","lang2","pi","39"
"-1000","","single-audio","147","111566","0.0-13.0-134.0","lang2","pi","-1"
"-1000","","single-audio","148","112048","0.0-13.0-135.0","lang2","pi","-1"
"-1000","","single-audio","149","112531","0.0-13.0-136.0","lang2","pi","-1"
"-1000","","single-audio","150","114021","0.0-13.0-137.0","lang2","pi","-1"
"-1000","","single-audio","151","114519","0.0-13.0-138.0","lang2","pi","-1"
"-1000","","single-audio","152","115002","0.0-13.0-139.0","lang2","pi","-1"
"397.7777777777902","","single-audio","153","115524","0.0-13.0-140.0","lang2","pi","39"
"-1000","","single-audio","154","116186","0.0-13.0-141.0","lang2","pi","-1"
"-1000","","single-audio","155","116670","0.0-13.0-142.0","lang2","pi","-1"
"-1000","","single-audio","156","117153","0.0-13.0-143.0","lang2","pi","-1"
"1.5873015873211216","","single-audio","157","118616","0.0-13.0-144.0","lang2","pi","39"
"-1000","","single-audio","158","119098","0.0-13.0-145.0","lang2","pi","-1"
"-1000","","single-audio","159","119590","0.0-13.0-146.0","lang2","pi","-1"
"194.60317460317356","","single-audio","160","119909","0.0-13.0-147.0","lang2","pi","37"
"-1000","","single-audio","161","120571","0.0-13.0-148.0","lang2","pi","-1"
"-1000","","single-audio","162","121055","0.0-13.0-149.0","lang2","pi","-1"
"-1000","","single-audio","163","121538","0.0-13.0-150.0","lang2","pi","-1"
"-1000","","single-audio","164","123011","0.0-13.0-151.0","lang2","pi","-1"
"-1000","","single-audio","165","123493","0.0-13.0-152.0","lang2","pi","-1"
"-1000","","single-audio","166","124024","0.0-13.0-153.0","lang2","pi","-1"
"326.666666666668","","single-audio","167","124471","0.0-13.0-154.0","lang2","pi","39"
"-1000","","single-audio","168","125133","0.0-13.0-155.0","lang2","pi","-1"
"-1000","","single-audio","169","125642","0.0-13.0-156.0","lang2","pi","-1"
"-1000","","single-audio","170","126129","0.0-13.0-157.0","lang2","pi","-1"
"-1000","","single-audio","171","127598","0.0-13.0-158.0","lang2","pi","-1"
"-1000","","single-audio","172","128080","0.0-13.0-159.0","lang2","pi","-1"
"-1000","","single-audio","173","128566","0.0-13.0-160.0","lang2","pi","-1"
"214.92063492064517","","single-audio","174","128910","0.0-13.0-161.0","lang2","pi","39"
"-1000","","single-audio","175","129573","0.0-13.0-162.0","lang2","pi","-1"
"-1000","","single-audio","176","130069","0.0-13.0-163.0","lang2","pi","-1"
"-1000","","single-audio","177","130564","0.0-13.0-164.0","lang2","pi","-1"
"-1000","","single-audio","178","132033","0.0-13.0-165.0","lang2","pi","-1"
"-1000","","single-audio","179","132518","0.0-13.0-166.0","lang2","pi","-1"
"-1000","","single-audio","180","133000","0.0-13.0-167.0","lang2","pi","-1"
"6427.709750566891","","single-audio","181","139689","0.0-13.0-168.0","lang2","pi","39"
"-1000","","single-audio","182","140352","0.0-13.0-169.0","lang2","pi","-1"
"-1000","","single-audio","183","140837","0.0-13.0-170.0","lang2","pi","-1"
"-1000","","single-audio","184","141326","0.0-13.0-171.0","lang2","pi","-1"
"-1000","","single-audio","185","142928","0.0-13.0-172.0","lang2","pi","-1"
"-1000","","single-audio","186","143411","0.0-13.0-173.0","lang2","pi","-1"
"-1000","","single-audio","187","143894","0.0-13.0-174.0","lang2","pi","-1"
"1973.8321995465071","","single-audio","188","146065","0.0-13.0-175.0","lang2","pi","39"
"-1000","","single-audio","189","146728","0.0-13.0-176.0","lang2","pi","-1"
"-1000","","single-audio","190","147210","0.0-13.0-177.0","lang2","pi","-1"
"-1000","","single-audio","191","147694","0.0-13.0-178.0","lang2","pi","-1"
"-1000","","single-audio","192","149156","0.0-13.0-179.0","lang2","pi","-1"
"-1000","","single-audio","193","149646","0.0-13.0-180.0","lang2","pi","-1"
"-1000","","single-audio","194","150131","0.0-13.0-181.0","lang2","pi","-1"
"4095.5555555555634","","single-audio","195","154387","0.0-13.0-182.0","lang2","pi","39"
"-1000","","single-audio","196","155050","0.0-13.0-183.0","lang2","pi","-1"
"-1000","","single-audio","197","155542","0.0-13.0-184.0","lang2","pi","-1"
"-1000","","single-audio","198","156024","0.0-13.0-185.0","lang2","pi","-1"
"-1000","","single-audio","199","157544","0.0-13.0-186.0","lang2","pi","-1"
"-1000","","single-audio","200","158026","0.0-13.0-187.0","lang2","pi","-1"
"-1000","","single-audio","201","158508","0.0-13.0-188.0","lang2","pi","-1"
"4440.952380952382","","single-audio","202","163082","0.0-13.0-189.0","lang2","pi","39"
"-1000","","single-audio","203","163744","0.0-13.0-190.0","lang2","pi","-1"
"-1000","","single-audio","204","164227","0.0-13.0-191.0","lang2","pi","-1"
"-1000","","single-audio","205","164709","0.0-13.0-192.0","lang2","pi","-1"
"-1000","","single-audio","206","166171","0.0-13.0-193.0","lang2","pi","-1"
"-1000","","single-audio","207","166669","0.0-13.0-194.0","lang2","pi","-1"
"-1000","","single-audio","208","167159","0.0-13.0-195.0","lang2","pi","-1"
"18134.920634920632","","single-audio","209","185557","0.0-13.0-196.0","lang2","pi","39"
"-1000","","single-audio","210","186241","0.0-13.0-197.0","lang2","pi","-1"
"-1000","","single-audio","211","186724","0.0-13.0-198.0","lang2","pi","-1"
"-1000","","single-audio","212","187206","0.0-13.0-199.0","lang2","pi","-1"
"-1000","","single-audio","213","188677","0.0-13.0-200.0","lang2","pi","-1"
"-1000","","single-audio","214","189159","0.0-13.0-201.0","lang2","pi","-1"
"-1000","","single-audio","215","189669","0.0-13.0-202.0","lang2","pi","-1"
"3079.682539682551","","single-audio","216","192888","0.0-13.0-203.0","lang2","pi","39"
"-1000","","single-audio","217","193550","0.0-13.0-204.0","lang2","pi","-1"
"-1000","","single-audio","218","194063","0.0-13.0-205.0","lang2","pi","-1"
"-1000","","single-audio","219","194550","0.0-13.0-206.0","lang2","pi","-1"
"-1000","","single-audio","220","196035","0.0-13.0-207.0","lang2","pi","-1"
"-1000","","single-audio","221","196517","0.0-13.0-208.0","lang2","pi","-1"
"-1000","","single-audio","222","197066","0.0-13.0-209.0","lang2","pi","-1"
"7082.2222222222135","","single-audio","223","204387","0.0-13.0-210.0","lang2","pi","39"
"-1000","","single-audio","224","205067","0.0-13.0-211.0","lang2","pi","-1"
"-1000","","single-audio","225","205549","0.0-13.0-212.0","lang2","pi","-1"
"-1000","","single-audio","226","206031","0.0-13.0-213.0","lang2","pi","-1"
"-1000","","single-audio","227","207493","0.0-13.0-214.0","lang2","pi","-1"
"-1000","","single-audio","228","208001","0.0-13.0-215.0","lang2","pi","-1"
"-1000","","single-audio","229","208485","0.0-13.0-216.0","lang2","pi","-1"
"7793.333333333322","","single-audio","230","216474","0.0-13.0-217.0","lang2","pi","39"
"-1000","","single-audio","231","217141","0.0-13.0-218.0","lang2","pi","-1"
"-1000","","single-audio","232","217623","0.0-13.0-219.0","lang2","pi","-1"
"-1000","","single-audio","233","218114","0.0-13.0-220.0","lang2","pi","-1"
"-1000","","single-audio","234","219579","0.0-13.0-221.0","lang2","pi","-1"
"-1000","","single-audio","235","220086","0.0-13.0-222.0","lang2","pi","-1"
"-1000","","single-audio","236","220569","0.0-13.0-223.0","lang2","pi","-1"
"10444.76190476192","","single-audio","237","231234","0.0-13.0-224.0","lang2","pi","39"
"1161","","text","238","232597","0.0-14.0","lang2","pi","32"
