"rt","stimulus","key_press","trial_type","trial_index","time_elapsed","internal_node_id","correct","view_history","responses"
"7400","backround.jpg","49","image-keyboard-response","0","7404","0.0-0.0","","",""
"null","sound/asl/5words_lanaguage.mp3","null","audio-keyboard-response","1","143068","0.0-1.0","","",""
"10012","Instructions2-eng.png","49","image-keyboard-response","2","153084","0.0-2.0","","",""
"null","sound/asl/dukame.wav","null","audio-keyboard-response","3","154288","0.0-3.0-0.0","","",""
"null","sound/asl/duloga.wav","null","audio-keyboard-response","4","155136","0.0-3.0-1.0","","",""
"3818","sound/asl/silence.wav","49","audio-keyboard-response","5","158958","0.0-3.0-2.0","true","",""
"null","sound/asl/nadime.wav","null","audio-keyboard-response","6","160160","0.0-4.0-0.0","","",""
"null","sound/asl/kimuga.wav","null","audio-keyboard-response","7","161006","0.0-4.0-1.0","","",""
"3508","sound/asl/silence.wav","50","audio-keyboard-response","8","164526","0.0-4.0-2.0","true","",""
"null","sound/asl/kimuga.wav","null","audio-keyboard-response","9","165728","0.0-5.0-0.0","","",""
"null","sound/asl/kibeno.wav","null","audio-keyboard-response","10","166596","0.0-5.0-1.0","","",""
"3292","sound/asl/silence.wav","50","audio-keyboard-response","11","169888","0.0-5.0-2.0","false","",""
"null","sound/asl/nalobi.wav","null","audio-keyboard-response","12","171090","0.0-6.0-0.0","","",""
"null","sound/asl/nadime.wav","null","audio-keyboard-response","13","171916","0.0-6.0-1.0","","",""
"972","sound/asl/silence.wav","50","audio-keyboard-response","14","172888","0.0-6.0-2.0","false","",""
"null","sound/asl/nalobi.wav","null","audio-keyboard-response","15","174090","0.0-7.0-0.0","","",""
"null","sound/asl/gekalu.wav","null","audio-keyboard-response","16","175016","0.0-7.0-1.0","","",""
"4098","sound/asl/silence.wav","50","audio-keyboard-response","17","179120","0.0-7.0-2.0","false","",""
"null","sound/asl/gedino.wav","null","audio-keyboard-response","18","180322","0.0-8.0-0.0","","",""
"null","sound/asl/kibeno.wav","null","audio-keyboard-response","19","181186","0.0-8.0-1.0","","",""
"530","sound/asl/silence.wav","49","audio-keyboard-response","20","181718","0.0-8.0-2.0","true","",""
"null","sound/asl/nadime.wav","null","audio-keyboard-response","21","182922","0.0-9.0-0.0","","",""
"null","sound/asl/dukame.wav","null","audio-keyboard-response","22","183776","0.0-9.0-1.0","","",""
"950","sound/asl/silence.wav","49","audio-keyboard-response","23","184736","0.0-9.0-2.0","false","",""
"null","sound/asl/tomubi.wav","null","audio-keyboard-response","24","185938","0.0-10.0-0.0","","",""
"null","sound/asl/nalobi.wav","null","audio-keyboard-response","25","186776","0.0-10.0-1.0","","",""
"3350","sound/asl/silence.wav","50","audio-keyboard-response","26","190134","0.0-10.0-2.0","true","",""
"null","sound/asl/tomubi.wav","null","audio-keyboard-response","27","191334","0.0-11.0-0.0","","",""
"null","sound/asl/gedino.wav","null","audio-keyboard-response","28","192206","0.0-11.0-1.0","","",""
"658","sound/asl/silence.wav","50","audio-keyboard-response","29","192868","0.0-11.0-2.0","true","",""
"null","sound/asl/gedino.wav","null","audio-keyboard-response","30","194068","0.0-12.0-0.0","","",""
"null","sound/asl/gekalu.wav","null","audio-keyboard-response","31","194996","0.0-12.0-1.0","","",""
"560","sound/asl/silence.wav","49","audio-keyboard-response","32","195564","0.0-12.0-2.0","true","",""
"null","sound/asl/dukame.wav","null","audio-keyboard-response","33","196764","0.0-13.0-0.0","","",""
"null","sound/asl/gekalu.wav","null","audio-keyboard-response","34","197696","0.0-13.0-1.0","","",""
"2618","sound/asl/silence.wav","49","audio-keyboard-response","35","200322","0.0-13.0-2.0","true","",""
"null","sound/asl/duloga.wav","null","audio-keyboard-response","36","201524","0.0-14.0-0.0","","",""
"null","sound/asl/gedino.wav","null","audio-keyboard-response","37","202396","0.0-14.0-1.0","","",""
"372","sound/asl/silence.wav","50","audio-keyboard-response","38","202768","0.0-14.0-2.0","true","",""
"null","sound/asl/duloga.wav","null","audio-keyboard-response","39","203970","0.0-15.0-0.0","","",""
"null","sound/asl/kimuga.wav","null","audio-keyboard-response","40","204816","0.0-15.0-1.0","","",""
"2808","sound/asl/silence.wav","50","audio-keyboard-response","41","207628","0.0-15.0-2.0","true","",""
"null","sound/asl/tobelu.wav","null","audio-keyboard-response","42","208830","0.0-16.0-0.0","","",""
"null","sound/asl/gekalu.wav","null","audio-keyboard-response","43","209756","0.0-16.0-1.0","","",""
"652","sound/asl/silence.wav","49","audio-keyboard-response","44","210414","0.0-16.0-2.0","true","",""
"null","sound/asl/tomubi.wav","null","audio-keyboard-response","45","211614","0.0-17.0-0.0","","",""
"null","sound/asl/kimuga.wav","null","audio-keyboard-response","46","212456","0.0-17.0-1.0","","",""
"688","sound/asl/silence.wav","49","audio-keyboard-response","47","213154","0.0-17.0-2.0","false","",""
"null","sound/asl/tomubi.wav","null","audio-keyboard-response","48","214356","0.0-18.0-0.0","","",""
"null","sound/asl/tobelu.wav","null","audio-keyboard-response","49","215236","0.0-18.0-1.0","","",""
"692","sound/asl/silence.wav","50","audio-keyboard-response","50","215928","0.0-18.0-2.0","true","",""
"null","sound/asl/tobelu.wav","null","audio-keyboard-response","51","217130","0.0-19.0-0.0","","",""
"null","sound/asl/kibeno.wav","null","audio-keyboard-response","52","217996","0.0-19.0-1.0","","",""
"1000","sound/asl/silence.wav","50","audio-keyboard-response","53","219004","0.0-19.0-2.0","false","",""
"null","sound/asl/nadime.wav","null","audio-keyboard-response","54","220206","0.0-20.0-0.0","","",""
"null","sound/asl/tobelu.wav","null","audio-keyboard-response","55","221086","0.0-20.0-1.0","","",""
"588","sound/asl/silence.wav","49","audio-keyboard-response","56","221684","0.0-20.0-2.0","false","",""
"null","sound/asl/dukame.wav","null","audio-keyboard-response","57","222884","0.0-21.0-0.0","","",""
"null","sound/asl/kibeno.wav","null","audio-keyboard-response","58","223746","0.0-21.0-1.0","","",""
"712","sound/asl/silence.wav","49","audio-keyboard-response","59","224458","0.0-21.0-2.0","true","",""
"null","sound/asl/tomubi.wav","null","audio-keyboard-response","60","225660","0.0-22.0-0.0","","",""
"null","sound/asl/dukame.wav","null","audio-keyboard-response","61","226516","0.0-22.0-1.0","","",""
"960","sound/asl/silence.wav","50","audio-keyboard-response","62","227476","0.0-22.0-2.0","true","",""
"null","sound/asl/nadime.wav","null","audio-keyboard-response","63","228678","0.0-23.0-0.0","","",""
"null","sound/asl/gedino.wav","null","audio-keyboard-response","64","229556","0.0-23.0-1.0","","",""
"732","sound/asl/silence.wav","50","audio-keyboard-response","65","230286","0.0-23.0-2.0","true","",""
"null","sound/asl/kimuga.wav","null","audio-keyboard-response","66","231488","0.0-24.0-0.0","","",""
"null","sound/asl/gekalu.wav","null","audio-keyboard-response","67","232416","0.0-24.0-1.0","","",""
"870","sound/asl/silence.wav","50","audio-keyboard-response","68","233292","0.0-24.0-2.0","false","",""
"null","sound/asl/nalobi.wav","null","audio-keyboard-response","69","234492","0.0-25.0-0.0","","",""
"null","sound/asl/duloga.wav","null","audio-keyboard-response","70","235336","0.0-25.0-1.0","","",""
"1328","sound/asl/silence.wav","49","audio-keyboard-response","71","236670","0.0-25.0-2.0","true","",""
"null","sound/asl/nalobi.wav","null","audio-keyboard-response","72","237872","0.0-26.0-0.0","","",""
"null","sound/asl/kibeno.wav","null","audio-keyboard-response","73","238736","0.0-26.0-1.0","","",""
"960","sound/asl/silence.wav","50","audio-keyboard-response","74","239706","0.0-26.0-2.0","false","",""
"null","sound/asl/duloga.wav","null","audio-keyboard-response","75","240908","0.0-27.0-0.0","","",""
"null","sound/asl/tobelu.wav","null","audio-keyboard-response","76","241776","0.0-27.0-1.0","","",""
"1248","sound/asl/silence.wav","50","audio-keyboard-response","77","243034","0.0-27.0-2.0","true","",""
"3088","","","instructions","78","246122","0.0-28.0","","[{""page_index"":0,""viewing_time"":3088}]",""
"42272","","","survey-likert","79","288398","0.0-29.0","","","{""Q0"":1}"
"5478","","","survey-likert","80","293876","0.0-30.0","","","{""Q0"":0}"
"6254","","","survey-likert","81","300132","0.0-31.0","","","{""Q0"":0}"
"6230","","","survey-likert","82","306364","0.0-32.0","","","{""Q0"":1}"
"12222","","","survey-likert","83","318588","0.0-33.0","","","{""Q0"":0}"
"12902","","","survey-likert","84","331490","0.0-34.0","","","{""Q0"":1}"
"1182","","","instructions","85","332674","0.0-35.0","","[{""page_index"":0,""viewing_time"":1182}]",""
