"rt","stimulus","key_press","trial_type","trial_index","time_elapsed","internal_node_id","correct","view_history"
"11885","alien.jpg","49","image-keyboard-response","0","11887","0.0-0.0","",""
"null","sound/msl/organ.wav","null","audio-keyboard-response","1","12385","0.0-1.0-0.0","",""
"null","sound/msl/door.wav","null","audio-keyboard-response","2","12885","0.0-1.0-1.0","",""
"null","sound/msl/cat.wav","null","audio-keyboard-response","3","13385","0.0-1.0-2.0","",""
"null","sound/msl/goat.wav","null","audio-keyboard-response","4","13927","0.0-1.0-3.0","",""
"null","sound/msl/door_bell.wav","null","audio-keyboard-response","5","14435","0.0-1.0-4.0","",""
"null","sound/msl/cow.wav","null","audio-keyboard-response","6","14945","0.0-1.0-5.0","",""
"null","sound/msl/frog.wav","null","audio-keyboard-response","7","15444","0.0-1.0-6.0","",""
"null","sound/msl/dog.wav","null","audio-keyboard-response","8","15954","0.0-1.0-7.0","",""
"null","sound/msl/ding.wav","null","audio-keyboard-response","9","16464","0.0-1.0-8.0","",""
"null","sound/msl/Water.wav","null","audio-keyboard-response","10","16974","0.0-1.0-9.0","",""
"null","sound/msl/slide_whistle.wav","null","audio-keyboard-response","11","17474","0.0-1.0-10.0","",""
"null","sound/msl/clock.wav","null","audio-keyboard-response","12","18024","0.0-1.0-11.0","",""
"null","sound/msl/goat.wav","null","audio-keyboard-response","13","18564","0.0-1.0-12.0","",""
"null","sound/msl/door_bell.wav","null","audio-keyboard-response","14","19074","0.0-1.0-13.0","",""
"null","sound/msl/cow.wav","null","audio-keyboard-response","15","19583","0.0-1.0-14.0","",""
"null","sound/msl/organ.wav","null","audio-keyboard-response","16","20084","0.0-1.0-15.0","",""
"null","sound/msl/door.wav","null","audio-keyboard-response","17","20584","0.0-1.0-16.0","",""
"null","sound/msl/cat.wav","null","audio-keyboard-response","18","21084","0.0-1.0-17.0","",""
"null","sound/msl/duck.wav","null","audio-keyboard-response","19","21594","0.0-1.0-18.0","",""
"null","sound/msl/bird.wav","null","audio-keyboard-response","20","22104","0.0-1.0-19.0","",""
"null","sound/msl/boing.wav","null","audio-keyboard-response","21","22605","0.0-1.0-20.0","",""
"null","sound/msl/Water.wav","null","audio-keyboard-response","22","23114","0.0-1.0-21.0","",""
"null","sound/msl/slide_whistle.wav","null","audio-keyboard-response","23","23615","0.0-1.0-22.0","",""
"null","sound/msl/clock.wav","null","audio-keyboard-response","24","24164","0.0-1.0-23.0","",""
"null","sound/msl/frog.wav","null","audio-keyboard-response","25","24674","0.0-1.0-24.0","",""
"null","sound/msl/dog.wav","null","audio-keyboard-response","26","25184","0.0-1.0-25.0","",""
"null","sound/msl/ding.wav","null","audio-keyboard-response","27","25684","0.0-1.0-26.0","",""
"null","sound/msl/organ.wav","null","audio-keyboard-response","28","26184","0.0-1.0-27.0","",""
"null","sound/msl/door.wav","null","audio-keyboard-response","29","26685","0.0-1.0-28.0","",""
"null","sound/msl/cat.wav","null","audio-keyboard-response","30","27184","0.0-1.0-29.0","",""
"null","sound/msl/goat.wav","null","audio-keyboard-response","31","27724","0.0-1.0-30.0","",""
"null","sound/msl/door_bell.wav","null","audio-keyboard-response","32","28234","0.0-1.0-31.0","",""
"null","sound/msl/cow.wav","null","audio-keyboard-response","33","28745","0.0-1.0-32.0","",""
"null","sound/msl/duck.wav","null","audio-keyboard-response","34","29244","0.0-1.0-33.0","",""
"null","sound/msl/bird.wav","null","audio-keyboard-response","35","29754","0.0-1.0-34.0","",""
"null","sound/msl/boing.wav","null","audio-keyboard-response","36","30254","0.0-1.0-35.0","",""
"null","sound/msl/frog.wav","null","audio-keyboard-response","37","30754","0.0-1.0-36.0","",""
"null","sound/msl/dog.wav","null","audio-keyboard-response","38","31264","0.0-1.0-37.0","",""
"null","sound/msl/ding.wav","null","audio-keyboard-response","39","31764","0.0-1.0-38.0","",""
"null","sound/msl/Water.wav","null","audio-keyboard-response","40","32275","0.0-1.0-39.0","",""
"null","sound/msl/slide_whistle.wav","null","audio-keyboard-response","41","32774","0.0-1.0-40.0","",""
"null","sound/msl/clock.wav","null","audio-keyboard-response","42","33323","0.0-1.0-41.0","",""
"null","sound/msl/duck.wav","null","audio-keyboard-response","43","33834","0.0-1.0-42.0","",""
"null","sound/msl/bird.wav","null","audio-keyboard-response","44","34343","0.0-1.0-43.0","",""
"null","sound/msl/boing.wav","null","audio-keyboard-response","45","34844","0.0-1.0-44.0","",""
"null","sound/msl/goat.wav","null","audio-keyboard-response","46","35384","0.0-1.0-45.0","",""
"null","sound/msl/door_bell.wav","null","audio-keyboard-response","47","35884","0.0-1.0-46.0","",""
"null","sound/msl/cow.wav","null","audio-keyboard-response","48","36394","0.0-1.0-47.0","",""
"null","sound/msl/frog.wav","null","audio-keyboard-response","49","36904","0.0-1.0-48.0","",""
"null","sound/msl/dog.wav","null","audio-keyboard-response","50","37404","0.0-1.0-49.0","",""
"null","sound/msl/ding.wav","null","audio-keyboard-response","51","37914","0.0-1.0-50.0","",""
"null","sound/msl/organ.wav","null","audio-keyboard-response","52","38414","0.0-1.0-51.0","",""
"null","sound/msl/door.wav","null","audio-keyboard-response","53","38914","0.0-1.0-52.0","",""
"null","sound/msl/cat.wav","null","audio-keyboard-response","54","39414","0.0-1.0-53.0","",""
"null","sound/msl/goat.wav","null","audio-keyboard-response","55","39954","0.0-1.0-54.0","",""
"null","sound/msl/door_bell.wav","null","audio-keyboard-response","56","40465","0.0-1.0-55.0","",""
"null","sound/msl/cow.wav","null","audio-keyboard-response","57","40964","0.0-1.0-56.0","",""
"null","sound/msl/frog.wav","null","audio-keyboard-response","58","41474","0.0-1.0-57.0","",""
"null","sound/msl/dog.wav","null","audio-keyboard-response","59","41985","0.0-1.0-58.0","",""
"null","sound/msl/ding.wav","null","audio-keyboard-response","60","42483","0.0-1.0-59.0","",""
"null","sound/msl/Water.wav","null","audio-keyboard-response","61","42994","0.0-1.0-60.0","",""
"null","sound/msl/slide_whistle.wav","null","audio-keyboard-response","62","43494","0.0-1.0-61.0","",""
"null","sound/msl/clock.wav","null","audio-keyboard-response","63","44044","0.0-1.0-62.0","",""
"null","sound/msl/duck.wav","null","audio-keyboard-response","64","44554","0.0-1.0-63.0","",""
"null","sound/msl/bird.wav","null","audio-keyboard-response","65","45064","0.0-1.0-64.0","",""
"null","sound/msl/boing.wav","null","audio-keyboard-response","66","45563","0.0-1.0-65.0","",""
"null","sound/msl/goat.wav","null","audio-keyboard-response","67","46104","0.0-1.0-66.0","",""
"null","sound/msl/door_bell.wav","null","audio-keyboard-response","68","46604","0.0-1.0-67.0","",""
"null","sound/msl/cow.wav","null","audio-keyboard-response","69","47114","0.0-1.0-68.0","",""
"null","sound/msl/organ.wav","null","audio-keyboard-response","70","47614","0.0-1.0-69.0","",""
"null","sound/msl/door.wav","null","audio-keyboard-response","71","48114","0.0-1.0-70.0","",""
"null","sound/msl/cat.wav","null","audio-keyboard-response","72","48614","0.0-1.0-71.0","",""
"null","sound/msl/frog.wav","null","audio-keyboard-response","73","49115","0.0-1.0-72.0","",""
"null","sound/msl/dog.wav","null","audio-keyboard-response","74","49623","0.0-1.0-73.0","",""
"null","sound/msl/ding.wav","null","audio-keyboard-response","75","50124","0.0-1.0-74.0","",""
"null","sound/msl/Water.wav","null","audio-keyboard-response","76","50634","0.0-1.0-75.0","",""
"null","sound/msl/slide_whistle.wav","null","audio-keyboard-response","77","51134","0.0-1.0-76.0","",""
"null","sound/msl/clock.wav","null","audio-keyboard-response","78","51684","0.0-1.0-77.0","",""
"null","sound/msl/frog.wav","null","audio-keyboard-response","79","52194","0.0-1.0-78.0","",""
"null","sound/msl/dog.wav","null","audio-keyboard-response","80","52703","0.0-1.0-79.0","",""
"null","sound/msl/ding.wav","null","audio-keyboard-response","81","53203","0.0-1.0-80.0","",""
"null","sound/msl/duck.wav","null","audio-keyboard-response","82","53714","0.0-1.0-81.0","",""
"null","sound/msl/bird.wav","null","audio-keyboard-response","83","54224","0.0-1.0-82.0","",""
"null","sound/msl/boing.wav","null","audio-keyboard-response","84","54724","0.0-1.0-83.0","",""
"null","sound/msl/organ.wav","null","audio-keyboard-response","85","55224","0.0-1.0-84.0","",""
"null","sound/msl/door.wav","null","audio-keyboard-response","86","55724","0.0-1.0-85.0","",""
"null","sound/msl/cat.wav","null","audio-keyboard-response","87","56223","0.0-1.0-86.0","",""
"null","sound/msl/goat.wav","null","audio-keyboard-response","88","56763","0.0-1.0-87.0","",""
"null","sound/msl/door_bell.wav","null","audio-keyboard-response","89","57273","0.0-1.0-88.0","",""
"null","sound/msl/cow.wav","null","audio-keyboard-response","90","57784","0.0-1.0-89.0","",""
"null","sound/msl/duck.wav","null","audio-keyboard-response","91","58284","0.0-1.0-90.0","",""
"null","sound/msl/bird.wav","null","audio-keyboard-response","92","58794","0.0-1.0-91.0","",""
"null","sound/msl/boing.wav","null","audio-keyboard-response","93","59294","0.0-1.0-92.0","",""
"null","sound/msl/Water.wav","null","audio-keyboard-response","94","59805","0.0-1.0-93.0","",""
"null","sound/msl/slide_whistle.wav","null","audio-keyboard-response","95","60304","0.0-1.0-94.0","",""
"null","sound/msl/clock.wav","null","audio-keyboard-response","96","60854","0.0-1.0-95.0","",""
"null","sound/msl/frog.wav","null","audio-keyboard-response","97","61354","0.0-1.0-96.0","",""
"null","sound/msl/dog.wav","null","audio-keyboard-response","98","61864","0.0-1.0-97.0","",""
"null","sound/msl/ding.wav","null","audio-keyboard-response","99","62365","0.0-1.0-98.0","",""
"null","sound/msl/goat.wav","null","audio-keyboard-response","100","62904","0.0-1.0-99.0","",""
"null","sound/msl/door_bell.wav","null","audio-keyboard-response","101","63404","0.0-1.0-100.0","",""
"null","sound/msl/cow.wav","null","audio-keyboard-response","102","63914","0.0-1.0-101.0","",""
"null","sound/msl/duck.wav","null","audio-keyboard-response","103","64424","0.0-1.0-102.0","",""
"null","sound/msl/bird.wav","null","audio-keyboard-response","104","64925","0.0-1.0-103.0","",""
"null","sound/msl/boing.wav","null","audio-keyboard-response","105","65424","0.0-1.0-104.0","",""
"null","sound/msl/organ.wav","null","audio-keyboard-response","106","65925","0.0-1.0-105.0","",""
"null","sound/msl/door.wav","null","audio-keyboard-response","107","66424","0.0-1.0-106.0","",""
"null","sound/msl/cat.wav","null","audio-keyboard-response","108","66924","0.0-1.0-107.0","",""
"null","sound/msl/goat.wav","null","audio-keyboard-response","109","67464","0.0-1.0-108.0","",""
"null","sound/msl/door_bell.wav","null","audio-keyboard-response","110","67964","0.0-1.0-109.0","",""
"null","sound/msl/cow.wav","null","audio-keyboard-response","111","68474","0.0-1.0-110.0","",""
"null","sound/msl/Water.wav","null","audio-keyboard-response","112","68984","0.0-1.0-111.0","",""
"null","sound/msl/slide_whistle.wav","null","audio-keyboard-response","113","69484","0.0-1.0-112.0","",""
"null","sound/msl/clock.wav","null","audio-keyboard-response","114","70034","0.0-1.0-113.0","",""
"null","sound/msl/duck.wav","null","audio-keyboard-response","115","70544","0.0-1.0-114.0","",""
"null","sound/msl/bird.wav","null","audio-keyboard-response","116","71044","0.0-1.0-115.0","",""
"null","sound/msl/boing.wav","null","audio-keyboard-response","117","71543","0.0-1.0-116.0","",""
"null","sound/msl/frog.wav","null","audio-keyboard-response","118","72043","0.0-1.0-117.0","",""
"null","sound/msl/dog.wav","null","audio-keyboard-response","119","72554","0.0-1.0-118.0","",""
"null","sound/msl/ding.wav","null","audio-keyboard-response","120","73064","0.0-1.0-119.0","",""
"null","sound/msl/organ.wav","null","audio-keyboard-response","121","73564","0.0-1.0-120.0","",""
"null","sound/msl/door.wav","null","audio-keyboard-response","122","74063","0.0-1.0-121.0","",""
"null","sound/msl/cat.wav","null","audio-keyboard-response","123","74564","0.0-1.0-122.0","",""
"null","sound/msl/goat.wav","null","audio-keyboard-response","124","75104","0.0-1.0-123.0","",""
"null","sound/msl/door_bell.wav","null","audio-keyboard-response","125","75603","0.0-1.0-124.0","",""
"null","sound/msl/cow.wav","null","audio-keyboard-response","126","76114","0.0-1.0-125.0","",""
"null","sound/msl/duck.wav","null","audio-keyboard-response","127","76625","0.0-1.0-126.0","",""
"null","sound/msl/bird.wav","null","audio-keyboard-response","128","77124","0.0-1.0-127.0","",""
"null","sound/msl/boing.wav","null","audio-keyboard-response","129","77623","0.0-1.0-128.0","",""
"null","sound/msl/Water.wav","null","audio-keyboard-response","130","78133","0.0-1.0-129.0","",""
"null","sound/msl/slide_whistle.wav","null","audio-keyboard-response","131","78634","0.0-1.0-130.0","",""
"null","sound/msl/clock.wav","null","audio-keyboard-response","132","79183","0.0-1.0-131.0","",""
"null","sound/msl/goat.wav","null","audio-keyboard-response","133","79724","0.0-1.0-132.0","",""
"null","sound/msl/door_bell.wav","null","audio-keyboard-response","134","80234","0.0-1.0-133.0","",""
"null","sound/msl/cow.wav","null","audio-keyboard-response","135","80745","0.0-1.0-134.0","",""
"null","sound/msl/frog.wav","null","audio-keyboard-response","136","81244","0.0-1.0-135.0","",""
"null","sound/msl/dog.wav","null","audio-keyboard-response","137","81754","0.0-1.0-136.0","",""
"null","sound/msl/ding.wav","null","audio-keyboard-response","138","82264","0.0-1.0-137.0","",""
"null","sound/msl/Water.wav","null","audio-keyboard-response","139","82774","0.0-1.0-138.0","",""
"null","sound/msl/slide_whistle.wav","null","audio-keyboard-response","140","83273","0.0-1.0-139.0","",""
"null","sound/msl/clock.wav","null","audio-keyboard-response","141","83824","0.0-1.0-140.0","",""
"null","sound/msl/organ.wav","null","audio-keyboard-response","142","84324","0.0-1.0-141.0","",""
"null","sound/msl/door.wav","null","audio-keyboard-response","143","84824","0.0-1.0-142.0","",""
"null","sound/msl/cat.wav","null","audio-keyboard-response","144","85323","0.0-1.0-143.0","",""
"null","sound/msl/duck.wav","null","audio-keyboard-response","145","85833","0.0-1.0-144.0","",""
"null","sound/msl/bird.wav","null","audio-keyboard-response","146","86344","0.0-1.0-145.0","",""
"null","sound/msl/boing.wav","null","audio-keyboard-response","147","86844","0.0-1.0-146.0","",""
"null","sound/msl/frog.wav","null","audio-keyboard-response","148","87354","0.0-1.0-147.0","",""
"null","sound/msl/dog.wav","null","audio-keyboard-response","149","87865","0.0-1.0-148.0","",""
"null","sound/msl/ding.wav","null","audio-keyboard-response","150","88364","0.0-1.0-149.0","",""
"null","sound/msl/organ.wav","null","audio-keyboard-response","151","88864","0.0-1.0-150.0","",""
"null","sound/msl/door.wav","null","audio-keyboard-response","152","89364","0.0-1.0-151.0","",""
"null","sound/msl/cat.wav","null","audio-keyboard-response","153","89864","0.0-1.0-152.0","",""
"null","sound/msl/goat.wav","null","audio-keyboard-response","154","90404","0.0-1.0-153.0","",""
"null","sound/msl/door_bell.wav","null","audio-keyboard-response","155","90914","0.0-1.0-154.0","",""
"null","sound/msl/cow.wav","null","audio-keyboard-response","156","91424","0.0-1.0-155.0","",""
"null","sound/msl/Water.wav","null","audio-keyboard-response","157","91934","0.0-1.0-156.0","",""
"null","sound/msl/slide_whistle.wav","null","audio-keyboard-response","158","92434","0.0-1.0-157.0","",""
"null","sound/msl/clock.wav","null","audio-keyboard-response","159","92984","0.0-1.0-158.0","",""
"null","sound/msl/duck.wav","null","audio-keyboard-response","160","93483","0.0-1.0-159.0","",""
"null","sound/msl/bird.wav","null","audio-keyboard-response","161","93995","0.0-1.0-160.0","",""
"null","sound/msl/boing.wav","null","audio-keyboard-response","162","94494","0.0-1.0-161.0","",""
"null","sound/msl/goat.wav","null","audio-keyboard-response","163","95034","0.0-1.0-162.0","",""
"null","sound/msl/door_bell.wav","null","audio-keyboard-response","164","95544","0.0-1.0-163.0","",""
"null","sound/msl/cow.wav","null","audio-keyboard-response","165","96045","0.0-1.0-164.0","",""
"null","sound/msl/Water.wav","null","audio-keyboard-response","166","96554","0.0-1.0-165.0","",""
"null","sound/msl/slide_whistle.wav","null","audio-keyboard-response","167","97053","0.0-1.0-166.0","",""
"null","sound/msl/clock.wav","null","audio-keyboard-response","168","97604","0.0-1.0-167.0","",""
"null","sound/msl/organ.wav","null","audio-keyboard-response","169","98104","0.0-1.0-168.0","",""
"null","sound/msl/door.wav","null","audio-keyboard-response","170","98604","0.0-1.0-169.0","",""
"null","sound/msl/cat.wav","null","audio-keyboard-response","171","99105","0.0-1.0-170.0","",""
"null","sound/msl/frog.wav","null","audio-keyboard-response","172","99604","0.0-1.0-171.0","",""
"null","sound/msl/dog.wav","null","audio-keyboard-response","173","100114","0.0-1.0-172.0","",""
"null","sound/msl/ding.wav","null","audio-keyboard-response","174","100624","0.0-1.0-173.0","",""
"null","sound/msl/duck.wav","null","audio-keyboard-response","175","101124","0.0-1.0-174.0","",""
"null","sound/msl/bird.wav","null","audio-keyboard-response","176","101634","0.0-1.0-175.0","",""
"null","sound/msl/boing.wav","null","audio-keyboard-response","177","102135","0.0-1.0-176.0","",""
"null","sound/msl/goat.wav","null","audio-keyboard-response","178","102674","0.0-1.0-177.0","",""
"null","sound/msl/door_bell.wav","null","audio-keyboard-response","179","103184","0.0-1.0-178.0","",""
"null","sound/msl/cow.wav","null","audio-keyboard-response","180","103683","0.0-1.0-179.0","",""
"null","sound/msl/frog.wav","null","audio-keyboard-response","181","104194","0.0-1.0-180.0","",""
"null","sound/msl/dog.wav","null","audio-keyboard-response","182","104704","0.0-1.0-181.0","",""
"null","sound/msl/ding.wav","null","audio-keyboard-response","183","105205","0.0-1.0-182.0","",""
"null","sound/msl/Water.wav","null","audio-keyboard-response","184","105715","0.0-1.0-183.0","",""
"null","sound/msl/slide_whistle.wav","null","audio-keyboard-response","185","106214","0.0-1.0-184.0","",""
"null","sound/msl/clock.wav","null","audio-keyboard-response","186","106764","0.0-1.0-185.0","",""
"null","sound/msl/organ.wav","null","audio-keyboard-response","187","107264","0.0-1.0-186.0","",""
"null","sound/msl/door.wav","null","audio-keyboard-response","188","107764","0.0-1.0-187.0","",""
"null","sound/msl/cat.wav","null","audio-keyboard-response","189","108264","0.0-1.0-188.0","",""
"null","sound/msl/duck.wav","null","audio-keyboard-response","190","108764","0.0-1.0-189.0","",""
"null","sound/msl/bird.wav","null","audio-keyboard-response","191","109274","0.0-1.0-190.0","",""
"null","sound/msl/boing.wav","null","audio-keyboard-response","192","109774","0.0-1.0-191.0","",""
"null","sound/msl/goat.wav","null","audio-keyboard-response","193","110314","0.0-1.0-192.0","",""
"null","sound/msl/door_bell.wav","null","audio-keyboard-response","194","110824","0.0-1.0-193.0","",""
"null","sound/msl/cow.wav","null","audio-keyboard-response","195","111323","0.0-1.0-194.0","",""
"null","sound/msl/frog.wav","null","audio-keyboard-response","196","111833","0.0-1.0-195.0","",""
"null","sound/msl/dog.wav","null","audio-keyboard-response","197","112343","0.0-1.0-196.0","",""
"null","sound/msl/ding.wav","null","audio-keyboard-response","198","112844","0.0-1.0-197.0","",""
"null","sound/msl/organ.wav","null","audio-keyboard-response","199","113343","0.0-1.0-198.0","",""
"null","sound/msl/door.wav","null","audio-keyboard-response","200","113843","0.0-1.0-199.0","",""
"null","sound/msl/cat.wav","null","audio-keyboard-response","201","114344","0.0-1.0-200.0","",""
"null","sound/msl/Water.wav","null","audio-keyboard-response","202","114853","0.0-1.0-201.0","",""
"null","sound/msl/slide_whistle.wav","null","audio-keyboard-response","203","115354","0.0-1.0-202.0","",""
"null","sound/msl/clock.wav","null","audio-keyboard-response","204","115904","0.0-1.0-203.0","",""
"null","sound/msl/duck.wav","null","audio-keyboard-response","205","116403","0.0-1.0-204.0","",""
"null","sound/msl/bird.wav","null","audio-keyboard-response","206","116914","0.0-1.0-205.0","",""
"null","sound/msl/boing.wav","null","audio-keyboard-response","207","117413","0.0-1.0-206.0","",""
"null","sound/msl/goat.wav","null","audio-keyboard-response","208","117954","0.0-1.0-207.0","",""
"null","sound/msl/door_bell.wav","null","audio-keyboard-response","209","118463","0.0-1.0-208.0","",""
"null","sound/msl/cow.wav","null","audio-keyboard-response","210","118964","0.0-1.0-209.0","",""
"null","sound/msl/organ.wav","null","audio-keyboard-response","211","119464","0.0-1.0-210.0","",""
"null","sound/msl/door.wav","null","audio-keyboard-response","212","119964","0.0-1.0-211.0","",""
"null","sound/msl/cat.wav","null","audio-keyboard-response","213","120464","0.0-1.0-212.0","",""
"null","sound/msl/duck.wav","null","audio-keyboard-response","214","120964","0.0-1.0-213.0","",""
"null","sound/msl/bird.wav","null","audio-keyboard-response","215","121474","0.0-1.0-214.0","",""
"null","sound/msl/boing.wav","null","audio-keyboard-response","216","121974","0.0-1.0-215.0","",""
"null","sound/msl/frog.wav","null","audio-keyboard-response","217","122475","0.0-1.0-216.0","",""
"null","sound/msl/dog.wav","null","audio-keyboard-response","218","122984","0.0-1.0-217.0","",""
"null","sound/msl/ding.wav","null","audio-keyboard-response","219","123483","0.0-1.0-218.0","",""
"null","sound/msl/Water.wav","null","audio-keyboard-response","220","123994","0.0-1.0-219.0","",""
"null","sound/msl/slide_whistle.wav","null","audio-keyboard-response","221","124494","0.0-1.0-220.0","",""
"null","sound/msl/clock.wav","null","audio-keyboard-response","222","125044","0.0-1.0-221.0","",""
"null","sound/msl/goat.wav","null","audio-keyboard-response","223","125585","0.0-1.0-222.0","",""
"null","sound/msl/door_bell.wav","null","audio-keyboard-response","224","126084","0.0-1.0-223.0","",""
"null","sound/msl/cow.wav","null","audio-keyboard-response","225","126593","0.0-1.0-224.0","",""
"null","sound/msl/frog.wav","null","audio-keyboard-response","226","127103","0.0-1.0-225.0","",""
"null","sound/msl/dog.wav","null","audio-keyboard-response","227","127604","0.0-1.0-226.0","",""
"null","sound/msl/ding.wav","null","audio-keyboard-response","228","128114","0.0-1.0-227.0","",""
"null","sound/msl/duck.wav","null","audio-keyboard-response","229","128624","0.0-1.0-228.0","",""
"null","sound/msl/bird.wav","null","audio-keyboard-response","230","129124","0.0-1.0-229.0","",""
"null","sound/msl/boing.wav","null","audio-keyboard-response","231","129623","0.0-1.0-230.0","",""
"null","sound/msl/frog.wav","null","audio-keyboard-response","232","130124","0.0-1.0-231.0","",""
"null","sound/msl/dog.wav","null","audio-keyboard-response","233","130634","0.0-1.0-232.0","",""
"null","sound/msl/ding.wav","null","audio-keyboard-response","234","131144","0.0-1.0-233.0","",""
"null","sound/msl/goat.wav","null","audio-keyboard-response","235","131684","0.0-1.0-234.0","",""
"null","sound/msl/door_bell.wav","null","audio-keyboard-response","236","132194","0.0-1.0-235.0","",""
"null","sound/msl/cow.wav","null","audio-keyboard-response","237","132704","0.0-1.0-236.0","",""
"null","sound/msl/Water.wav","null","audio-keyboard-response","238","133214","0.0-1.0-237.0","",""
"null","sound/msl/slide_whistle.wav","null","audio-keyboard-response","239","133714","0.0-1.0-238.0","",""
"null","sound/msl/clock.wav","null","audio-keyboard-response","240","134263","0.0-1.0-239.0","",""
"null","sound/msl/organ.wav","null","audio-keyboard-response","241","134763","0.0-1.0-240.0","",""
"null","sound/msl/door.wav","null","audio-keyboard-response","242","135263","0.0-1.0-241.0","",""
"null","sound/msl/cat.wav","null","audio-keyboard-response","243","135764","0.0-1.0-242.0","",""
"null","sound/msl/duck.wav","null","audio-keyboard-response","244","136273","0.0-1.0-243.0","",""
"null","sound/msl/bird.wav","null","audio-keyboard-response","245","136783","0.0-1.0-244.0","",""
"null","sound/msl/boing.wav","null","audio-keyboard-response","246","137283","0.0-1.0-245.0","",""
"null","sound/msl/goat.wav","null","audio-keyboard-response","247","137823","0.0-1.0-246.0","",""
"null","sound/msl/door_bell.wav","null","audio-keyboard-response","248","138324","0.0-1.0-247.0","",""
"null","sound/msl/cow.wav","null","audio-keyboard-response","249","138834","0.0-1.0-248.0","",""
"null","sound/msl/Water.wav","null","audio-keyboard-response","250","139345","0.0-1.0-249.0","",""
"null","sound/msl/slide_whistle.wav","null","audio-keyboard-response","251","139846","0.0-1.0-250.0","",""
"null","sound/msl/clock.wav","null","audio-keyboard-response","252","140394","0.0-1.0-251.0","",""
"null","sound/msl/organ.wav","null","audio-keyboard-response","253","140894","0.0-1.0-252.0","",""
"null","sound/msl/door.wav","null","audio-keyboard-response","254","141394","0.0-1.0-253.0","",""
"null","sound/msl/cat.wav","null","audio-keyboard-response","255","141895","0.0-1.0-254.0","",""
"null","sound/msl/frog.wav","null","audio-keyboard-response","256","142395","0.0-1.0-255.0","",""
"null","sound/msl/dog.wav","null","audio-keyboard-response","257","142904","0.0-1.0-256.0","",""
"null","sound/msl/ding.wav","null","audio-keyboard-response","258","143404","0.0-1.0-257.0","",""
"null","sound/msl/duck.wav","null","audio-keyboard-response","259","143914","0.0-1.0-258.0","",""
"null","sound/msl/bird.wav","null","audio-keyboard-response","260","144424","0.0-1.0-259.0","",""
"null","sound/msl/boing.wav","null","audio-keyboard-response","261","144923","0.0-1.0-260.0","",""
"null","sound/msl/organ.wav","null","audio-keyboard-response","262","145424","0.0-1.0-261.0","",""
"null","sound/msl/door.wav","null","audio-keyboard-response","263","145924","0.0-1.0-262.0","",""
"null","sound/msl/cat.wav","null","audio-keyboard-response","264","146424","0.0-1.0-263.0","",""
"null","sound/msl/Water.wav","null","audio-keyboard-response","265","146934","0.0-1.0-264.0","",""
"null","sound/msl/slide_whistle.wav","null","audio-keyboard-response","266","147434","0.0-1.0-265.0","",""
"null","sound/msl/clock.wav","null","audio-keyboard-response","267","147983","0.0-1.0-266.0","",""
"null","sound/msl/frog.wav","null","audio-keyboard-response","268","148483","0.0-1.0-267.0","",""
"null","sound/msl/dog.wav","null","audio-keyboard-response","269","148994","0.0-1.0-268.0","",""
"null","sound/msl/ding.wav","null","audio-keyboard-response","270","149504","0.0-1.0-269.0","",""
"null","sound/msl/goat.wav","null","audio-keyboard-response","271","150044","0.0-1.0-270.0","",""
"null","sound/msl/door_bell.wav","null","audio-keyboard-response","272","150554","0.0-1.0-271.0","",""
"null","sound/msl/cow.wav","null","audio-keyboard-response","273","151064","0.0-1.0-272.0","",""
"null","sound/msl/duck.wav","null","audio-keyboard-response","274","151564","0.0-1.0-273.0","",""
"null","sound/msl/bird.wav","null","audio-keyboard-response","275","152074","0.0-1.0-274.0","",""
"null","sound/msl/boing.wav","null","audio-keyboard-response","276","152575","0.0-1.0-275.0","",""
"null","sound/msl/organ.wav","null","audio-keyboard-response","277","153074","0.0-1.0-276.0","",""
"null","sound/msl/door.wav","null","audio-keyboard-response","278","153575","0.0-1.0-277.0","",""
"null","sound/msl/cat.wav","null","audio-keyboard-response","279","154073","0.0-1.0-278.0","",""
"null","sound/msl/Water.wav","null","audio-keyboard-response","280","154584","0.0-1.0-279.0","",""
"null","sound/msl/slide_whistle.wav","null","audio-keyboard-response","281","155083","0.0-1.0-280.0","",""
"null","sound/msl/clock.wav","null","audio-keyboard-response","282","155634","0.0-1.0-281.0","",""
"null","sound/msl/goat.wav","null","audio-keyboard-response","283","156173","0.0-1.0-282.0","",""
"null","sound/msl/door_bell.wav","null","audio-keyboard-response","284","156674","0.0-1.0-283.0","",""
"null","sound/msl/cow.wav","null","audio-keyboard-response","285","157183","0.0-1.0-284.0","",""
"null","sound/msl/frog.wav","null","audio-keyboard-response","286","157684","0.0-1.0-285.0","",""
"null","sound/msl/dog.wav","null","audio-keyboard-response","287","158194","0.0-1.0-286.0","",""
"null","sound/msl/ding.wav","null","audio-keyboard-response","288","158704","0.0-1.0-287.0","",""
"null","sound/msl/duck.wav","null","audio-keyboard-response","289","159204","0.0-1.0-288.0","",""
"null","sound/msl/bird.wav","null","audio-keyboard-response","290","159714","0.0-1.0-289.0","",""
"null","sound/msl/boing.wav","null","audio-keyboard-response","291","160214","0.0-1.0-290.0","",""
"null","sound/msl/Water.wav","null","audio-keyboard-response","292","160724","0.0-1.0-291.0","",""
"null","sound/msl/slide_whistle.wav","null","audio-keyboard-response","293","161224","0.0-1.0-292.0","",""
"null","sound/msl/clock.wav","null","audio-keyboard-response","294","161774","0.0-1.0-293.0","",""
"null","sound/msl/organ.wav","null","audio-keyboard-response","295","162273","0.0-1.0-294.0","",""
"null","sound/msl/door.wav","null","audio-keyboard-response","296","162774","0.0-1.0-295.0","",""
"null","sound/msl/cat.wav","null","audio-keyboard-response","297","163274","0.0-1.0-296.0","",""
"null","sound/msl/duck.wav","null","audio-keyboard-response","298","163785","0.0-1.0-297.0","",""
"null","sound/msl/bird.wav","null","audio-keyboard-response","299","164285","0.0-1.0-298.0","",""
"null","sound/msl/boing.wav","null","audio-keyboard-response","300","164784","0.0-1.0-299.0","",""
"null","sound/msl/goat.wav","null","audio-keyboard-response","301","165323","0.0-1.0-300.0","",""
"null","sound/msl/door_bell.wav","null","audio-keyboard-response","302","165834","0.0-1.0-301.0","",""
"null","sound/msl/cow.wav","null","audio-keyboard-response","303","166344","0.0-1.0-302.0","",""
"null","sound/msl/Water.wav","null","audio-keyboard-response","304","166854","0.0-1.0-303.0","",""
"null","sound/msl/slide_whistle.wav","null","audio-keyboard-response","305","167354","0.0-1.0-304.0","",""
"null","sound/msl/clock.wav","null","audio-keyboard-response","306","167904","0.0-1.0-305.0","",""
"null","sound/msl/frog.wav","null","audio-keyboard-response","307","168403","0.0-1.0-306.0","",""
"null","sound/msl/dog.wav","null","audio-keyboard-response","308","168914","0.0-1.0-307.0","",""
"null","sound/msl/ding.wav","null","audio-keyboard-response","309","169424","0.0-1.0-308.0","",""
"null","sound/msl/organ.wav","null","audio-keyboard-response","310","169914","0.0-1.0-309.0","",""
"null","sound/msl/door.wav","null","audio-keyboard-response","311","170413","0.0-1.0-310.0","",""
"null","sound/msl/cat.wav","null","audio-keyboard-response","312","170913","0.0-1.0-311.0","",""
"null","sound/msl/duck.wav","null","audio-keyboard-response","313","171424","0.0-1.0-312.0","",""
"null","sound/msl/bird.wav","null","audio-keyboard-response","314","171934","0.0-1.0-313.0","",""
"null","sound/msl/boing.wav","null","audio-keyboard-response","315","172434","0.0-1.0-314.0","",""
"null","sound/msl/goat.wav","null","audio-keyboard-response","316","172973","0.0-1.0-315.0","",""
"null","sound/msl/door_bell.wav","null","audio-keyboard-response","317","173474","0.0-1.0-316.0","",""
"null","sound/msl/cow.wav","null","audio-keyboard-response","318","173984","0.0-1.0-317.0","",""
"null","sound/msl/Water.wav","null","audio-keyboard-response","319","174494","0.0-1.0-318.0","",""
"null","sound/msl/slide_whistle.wav","null","audio-keyboard-response","320","174994","0.0-1.0-319.0","",""
"null","sound/msl/clock.wav","null","audio-keyboard-response","321","175544","0.0-1.0-320.0","",""
"null","sound/msl/organ.wav","null","audio-keyboard-response","322","176044","0.0-1.0-321.0","",""
"null","sound/msl/door.wav","null","audio-keyboard-response","323","176544","0.0-1.0-322.0","",""
"null","sound/msl/cat.wav","null","audio-keyboard-response","324","177044","0.0-1.0-323.0","",""
"null","sound/msl/goat.wav","null","audio-keyboard-response","325","177584","0.0-1.0-324.0","",""
"null","sound/msl/door_bell.wav","null","audio-keyboard-response","326","178094","0.0-1.0-325.0","",""
"null","sound/msl/cow.wav","null","audio-keyboard-response","327","178594","0.0-1.0-326.0","",""
"null","sound/msl/frog.wav","null","audio-keyboard-response","328","179104","0.0-1.0-327.0","",""
"null","sound/msl/dog.wav","null","audio-keyboard-response","329","179614","0.0-1.0-328.0","",""
"null","sound/msl/ding.wav","null","audio-keyboard-response","330","180114","0.0-1.0-329.0","",""
"null","sound/msl/duck.wav","null","audio-keyboard-response","331","180624","0.0-1.0-330.0","",""
"null","sound/msl/bird.wav","null","audio-keyboard-response","332","181134","0.0-1.0-331.0","",""
"null","sound/msl/boing.wav","null","audio-keyboard-response","333","181634","0.0-1.0-332.0","",""
"null","sound/msl/Water.wav","null","audio-keyboard-response","334","182144","0.0-1.0-333.0","",""
"null","sound/msl/slide_whistle.wav","null","audio-keyboard-response","335","182644","0.0-1.0-334.0","",""
"null","sound/msl/clock.wav","null","audio-keyboard-response","336","183193","0.0-1.0-335.0","",""
"null","sound/msl/frog.wav","null","audio-keyboard-response","337","183705","0.0-1.0-336.0","",""
"null","sound/msl/dog.wav","null","audio-keyboard-response","338","184214","0.0-1.0-337.0","",""
"null","sound/msl/ding.wav","null","audio-keyboard-response","339","184714","0.0-1.0-338.0","",""
"null","sound/msl/organ.wav","null","audio-keyboard-response","340","185213","0.0-1.0-339.0","",""
"null","sound/msl/door.wav","null","audio-keyboard-response","341","185714","0.0-1.0-340.0","",""
"null","sound/msl/cat.wav","null","audio-keyboard-response","342","186214","0.0-1.0-341.0","",""
"null","sound/msl/Water.wav","null","audio-keyboard-response","343","186724","0.0-1.0-342.0","",""
"null","sound/msl/slide_whistle.wav","null","audio-keyboard-response","344","187224","0.0-1.0-343.0","",""
"null","sound/msl/clock.wav","null","audio-keyboard-response","345","187774","0.0-1.0-344.0","",""
"null","sound/msl/organ.wav","null","audio-keyboard-response","346","188274","0.0-1.0-345.0","",""
"null","sound/msl/door.wav","null","audio-keyboard-response","347","188773","0.0-1.0-346.0","",""
"null","sound/msl/cat.wav","null","audio-keyboard-response","348","189275","0.0-1.0-347.0","",""
"null","sound/msl/frog.wav","null","audio-keyboard-response","349","189784","0.0-1.0-348.0","",""
"null","sound/msl/dog.wav","null","audio-keyboard-response","350","190294","0.0-1.0-349.0","",""
"null","sound/msl/ding.wav","null","audio-keyboard-response","351","190794","0.0-1.0-350.0","",""
"null","sound/msl/duck.wav","null","audio-keyboard-response","352","191304","0.0-1.0-351.0","",""
"null","sound/msl/bird.wav","null","audio-keyboard-response","353","191814","0.0-1.0-352.0","",""
"null","sound/msl/boing.wav","null","audio-keyboard-response","354","192314","0.0-1.0-353.0","",""
"null","sound/msl/Water.wav","null","audio-keyboard-response","355","192824","0.0-1.0-354.0","",""
"null","sound/msl/slide_whistle.wav","null","audio-keyboard-response","356","193323","0.0-1.0-355.0","",""
"null","sound/msl/clock.wav","null","audio-keyboard-response","357","193874","0.0-1.0-356.0","",""
"null","sound/msl/organ.wav","null","audio-keyboard-response","358","194374","0.0-1.0-357.0","",""
"null","sound/msl/door.wav","null","audio-keyboard-response","359","194875","0.0-1.0-358.0","",""
"null","sound/msl/cat.wav","null","audio-keyboard-response","360","195374","0.0-1.0-359.0","",""
"13051","Instructions2-eng.png","49","image-keyboard-response","361","208425","0.0-2.0","",""
"null","sound/msl/goat.wav","null","audio-keyboard-response","362","208963","0.0-3.0-0.0","",""
"null","sound/msl/door_bell.wav","null","audio-keyboard-response","363","209465","0.0-3.0-1.0","",""
"null","sound/msl/cow.wav","null","audio-keyboard-response","364","209974","0.0-3.0-2.0","",""
"null","sound/asl/silence.wav","null","audio-keyboard-response","365","210475","0.0-3.0-3.0","",""
"null","sound/msl/goat.wav","null","audio-keyboard-response","366","211014","0.0-3.0-4.0","",""
"null","sound/msl/dog.wav","null","audio-keyboard-response","367","211514","0.0-3.0-5.0","",""
"null","sound/msl/clock.wav","null","audio-keyboard-response","368","212064","0.0-3.0-6.0","",""
"869","sound/asl/silence.wav","49","audio-keyboard-response","369","212936","0.0-3.0-7.0","true",""
"null","sound/msl/goat.wav","null","audio-keyboard-response","370","213474","0.0-4.0-0.0","",""
"null","sound/msl/door_bell.wav","null","audio-keyboard-response","371","213984","0.0-4.0-1.0","",""
"null","sound/msl/cow.wav","null","audio-keyboard-response","372","214494","0.0-4.0-2.0","",""
"null","sound/asl/silence.wav","null","audio-keyboard-response","373","214997","0.0-4.0-3.0","",""
"null","sound/msl/organ.wav","null","audio-keyboard-response","374","215494","0.0-4.0-4.0","",""
"null","sound/msl/door_bell.wav","null","audio-keyboard-response","375","215994","0.0-4.0-5.0","",""
"null","sound/msl/ding.wav","null","audio-keyboard-response","376","216504","0.0-4.0-6.0","",""
"1731","sound/asl/silence.wav","50","audio-keyboard-response","377","218234","0.0-4.0-7.0","false",""
"null","sound/msl/duck.wav","null","audio-keyboard-response","378","218745","0.0-5.0-0.0","",""
"null","sound/msl/door.wav","null","audio-keyboard-response","379","219244","0.0-5.0-1.0","",""
"null","sound/msl/cow.wav","null","audio-keyboard-response","380","219744","0.0-5.0-2.0","",""
"null","sound/asl/silence.wav","null","audio-keyboard-response","381","220245","0.0-5.0-3.0","",""
"null","sound/msl/goat.wav","null","audio-keyboard-response","382","220784","0.0-5.0-4.0","",""
"null","sound/msl/door_bell.wav","null","audio-keyboard-response","383","221294","0.0-5.0-5.0","",""
"null","sound/msl/cow.wav","null","audio-keyboard-response","384","221794","0.0-5.0-6.0","",""
"408","sound/asl/silence.wav","49","audio-keyboard-response","385","222211","0.0-5.0-7.0","false",""
"null","sound/msl/duck.wav","null","audio-keyboard-response","386","222703","0.0-6.0-0.0","",""
"null","sound/msl/bird.wav","null","audio-keyboard-response","387","223214","0.0-6.0-1.0","",""
"null","sound/msl/boing.wav","null","audio-keyboard-response","388","223713","0.0-6.0-2.0","",""
"null","sound/asl/silence.wav","null","audio-keyboard-response","389","224215","0.0-6.0-3.0","",""
"null","sound/msl/Water.wav","null","audio-keyboard-response","390","224723","0.0-6.0-4.0","",""
"null","sound/msl/bird.wav","null","audio-keyboard-response","391","225223","0.0-6.0-5.0","",""
"null","sound/msl/cat.wav","null","audio-keyboard-response","392","225723","0.0-6.0-6.0","",""
"680","sound/asl/silence.wav","50","audio-keyboard-response","393","226410","0.0-6.0-7.0","false",""
"null","sound/msl/frog.wav","null","audio-keyboard-response","394","226904","0.0-7.0-0.0","",""
"null","sound/msl/slide_whistle.wav","null","audio-keyboard-response","395","227404","0.0-7.0-1.0","",""
"null","sound/msl/boing.wav","null","audio-keyboard-response","396","227904","0.0-7.0-2.0","",""
"null","sound/asl/silence.wav","null","audio-keyboard-response","397","228405","0.0-7.0-3.0","",""
"null","sound/msl/duck.wav","null","audio-keyboard-response","398","228904","0.0-7.0-4.0","",""
"null","sound/msl/bird.wav","null","audio-keyboard-response","399","229413","0.0-7.0-5.0","",""
"null","sound/msl/boing.wav","null","audio-keyboard-response","400","229914","0.0-7.0-6.0","",""
"1488","sound/asl/silence.wav","50","audio-keyboard-response","401","231406","0.0-7.0-7.0","true",""
"null","sound/msl/goat.wav","null","audio-keyboard-response","402","231945","0.0-8.0-0.0","",""
"null","sound/msl/dog.wav","null","audio-keyboard-response","403","232453","0.0-8.0-1.0","",""
"null","sound/msl/clock.wav","null","audio-keyboard-response","404","233004","0.0-8.0-2.0","",""
"null","sound/asl/silence.wav","null","audio-keyboard-response","405","233505","0.0-8.0-3.0","",""
"null","sound/msl/Water.wav","null","audio-keyboard-response","406","234014","0.0-8.0-4.0","",""
"null","sound/msl/slide_whistle.wav","null","audio-keyboard-response","407","234513","0.0-8.0-5.0","",""
"null","sound/msl/clock.wav","null","audio-keyboard-response","408","235064","0.0-8.0-6.0","",""
"1011","sound/asl/silence.wav","50","audio-keyboard-response","409","236074","0.0-8.0-7.0","true",""
"null","sound/msl/organ.wav","null","audio-keyboard-response","410","236574","0.0-9.0-0.0","",""
"null","sound/msl/door_bell.wav","null","audio-keyboard-response","411","237074","0.0-9.0-1.0","",""
"null","sound/msl/ding.wav","null","audio-keyboard-response","412","237584","0.0-9.0-2.0","",""
"null","sound/asl/silence.wav","null","audio-keyboard-response","413","238087","0.0-9.0-3.0","",""
"null","sound/msl/organ.wav","null","audio-keyboard-response","414","238584","0.0-9.0-4.0","",""
"null","sound/msl/door.wav","null","audio-keyboard-response","415","239084","0.0-9.0-5.0","",""
"null","sound/msl/cat.wav","null","audio-keyboard-response","416","239583","0.0-9.0-6.0","",""
"451","sound/asl/silence.wav","50","audio-keyboard-response","417","240036","0.0-9.0-7.0","true",""
"null","sound/msl/duck.wav","null","audio-keyboard-response","418","240544","0.0-10.0-0.0","",""
"null","sound/msl/bird.wav","null","audio-keyboard-response","419","241054","0.0-10.0-1.0","",""
"null","sound/msl/boing.wav","null","audio-keyboard-response","420","241554","0.0-10.0-2.0","",""
"null","sound/asl/silence.wav","null","audio-keyboard-response","421","242056","0.0-10.0-3.0","",""
"null","sound/msl/goat.wav","null","audio-keyboard-response","422","242593","0.0-10.0-4.0","",""
"null","sound/msl/dog.wav","null","audio-keyboard-response","423","243104","0.0-10.0-5.0","",""
"null","sound/msl/clock.wav","null","audio-keyboard-response","424","243654","0.0-10.0-6.0","",""
"491","sound/asl/silence.wav","50","audio-keyboard-response","425","244146","0.0-10.0-7.0","false",""
"null","sound/msl/goat.wav","null","audio-keyboard-response","426","244684","0.0-11.0-0.0","",""
"null","sound/msl/dog.wav","null","audio-keyboard-response","427","245183","0.0-11.0-1.0","",""
"null","sound/msl/clock.wav","null","audio-keyboard-response","428","245735","0.0-11.0-2.0","",""
"null","sound/asl/silence.wav","null","audio-keyboard-response","429","246236","0.0-11.0-3.0","",""
"null","sound/msl/organ.wav","null","audio-keyboard-response","430","246734","0.0-11.0-4.0","",""
"null","sound/msl/door.wav","null","audio-keyboard-response","431","247234","0.0-11.0-5.0","",""
"null","sound/msl/cat.wav","null","audio-keyboard-response","432","247734","0.0-11.0-6.0","",""
"531","sound/asl/silence.wav","49","audio-keyboard-response","433","248271","0.0-11.0-7.0","false",""
"null","sound/msl/organ.wav","null","audio-keyboard-response","434","248764","0.0-12.0-0.0","",""
"null","sound/msl/door_bell.wav","null","audio-keyboard-response","435","249263","0.0-12.0-1.0","",""
"null","sound/msl/ding.wav","null","audio-keyboard-response","436","249773","0.0-12.0-2.0","",""
"null","sound/asl/silence.wav","null","audio-keyboard-response","437","250276","0.0-12.0-3.0","",""
"null","sound/msl/Water.wav","null","audio-keyboard-response","438","250785","0.0-12.0-4.0","",""
"null","sound/msl/slide_whistle.wav","null","audio-keyboard-response","439","251284","0.0-12.0-5.0","",""
"null","sound/msl/clock.wav","null","audio-keyboard-response","440","251834","0.0-12.0-6.0","",""
"779","sound/asl/silence.wav","50","audio-keyboard-response","441","252615","0.0-12.0-7.0","true",""
"null","sound/msl/Water.wav","null","audio-keyboard-response","442","253124","0.0-13.0-0.0","",""
"null","sound/msl/slide_whistle.wav","null","audio-keyboard-response","443","253623","0.0-13.0-1.0","",""
"null","sound/msl/clock.wav","null","audio-keyboard-response","444","254175","0.0-13.0-2.0","",""
"null","sound/asl/silence.wav","null","audio-keyboard-response","445","254675","0.0-13.0-3.0","",""
"null","sound/msl/Water.wav","null","audio-keyboard-response","446","255185","0.0-13.0-4.0","",""
"null","sound/msl/bird.wav","null","audio-keyboard-response","447","255693","0.0-13.0-5.0","",""
"null","sound/msl/cat.wav","null","audio-keyboard-response","448","256194","0.0-13.0-6.0","",""
"808","sound/asl/silence.wav","50","audio-keyboard-response","449","257010","0.0-13.0-7.0","false",""
"null","sound/msl/frog.wav","null","audio-keyboard-response","450","257504","0.0-14.0-0.0","",""
"null","sound/msl/slide_whistle.wav","null","audio-keyboard-response","451","258004","0.0-14.0-1.0","",""
"null","sound/msl/boing.wav","null","audio-keyboard-response","452","258504","0.0-14.0-2.0","",""
"null","sound/asl/silence.wav","null","audio-keyboard-response","453","259006","0.0-14.0-3.0","",""
"null","sound/msl/Water.wav","null","audio-keyboard-response","454","259514","0.0-14.0-4.0","",""
"null","sound/msl/slide_whistle.wav","null","audio-keyboard-response","455","260014","0.0-14.0-5.0","",""
"null","sound/msl/clock.wav","null","audio-keyboard-response","456","260564","0.0-14.0-6.0","",""
"651","sound/asl/silence.wav","50","audio-keyboard-response","457","261219","0.0-14.0-7.0","true",""
"null","sound/msl/frog.wav","null","audio-keyboard-response","458","261713","0.0-15.0-0.0","",""
"null","sound/msl/dog.wav","null","audio-keyboard-response","459","262225","0.0-15.0-1.0","",""
"null","sound/msl/ding.wav","null","audio-keyboard-response","460","262734","0.0-15.0-2.0","",""
"null","sound/asl/silence.wav","null","audio-keyboard-response","461","263235","0.0-15.0-3.0","",""
"null","sound/msl/organ.wav","null","audio-keyboard-response","462","263733","0.0-15.0-4.0","",""
"null","sound/msl/door_bell.wav","null","audio-keyboard-response","463","264233","0.0-15.0-5.0","",""
"null","sound/msl/ding.wav","null","audio-keyboard-response","464","264744","0.0-15.0-6.0","",""
"539","sound/asl/silence.wav","49","audio-keyboard-response","465","265286","0.0-15.0-7.0","true",""
"null","sound/msl/goat.wav","null","audio-keyboard-response","466","265824","0.0-16.0-0.0","",""
"null","sound/msl/dog.wav","null","audio-keyboard-response","467","266334","0.0-16.0-1.0","",""
"null","sound/msl/clock.wav","null","audio-keyboard-response","468","266884","0.0-16.0-2.0","",""
"null","sound/asl/silence.wav","null","audio-keyboard-response","469","267385","0.0-16.0-3.0","",""
"null","sound/msl/frog.wav","null","audio-keyboard-response","470","267894","0.0-16.0-4.0","",""
"null","sound/msl/dog.wav","null","audio-keyboard-response","471","268393","0.0-16.0-5.0","",""
"null","sound/msl/ding.wav","null","audio-keyboard-response","472","268904","0.0-16.0-6.0","",""
"469","sound/asl/silence.wav","49","audio-keyboard-response","473","269379","0.0-16.0-7.0","false",""
"null","sound/msl/duck.wav","null","audio-keyboard-response","474","269874","0.0-17.0-0.0","",""
"null","sound/msl/bird.wav","null","audio-keyboard-response","475","270383","0.0-17.0-1.0","",""
"null","sound/msl/boing.wav","null","audio-keyboard-response","476","270883","0.0-17.0-2.0","",""
"null","sound/asl/silence.wav","null","audio-keyboard-response","477","271386","0.0-17.0-3.0","",""
"null","sound/msl/duck.wav","null","audio-keyboard-response","478","271893","0.0-17.0-4.0","",""
"null","sound/msl/door.wav","null","audio-keyboard-response","479","272393","0.0-17.0-5.0","",""
"null","sound/msl/cow.wav","null","audio-keyboard-response","480","272904","0.0-17.0-6.0","",""
"451","sound/asl/silence.wav","50","audio-keyboard-response","481","273359","0.0-17.0-7.0","false",""
"null","sound/msl/organ.wav","null","audio-keyboard-response","482","273854","0.0-18.0-0.0","",""
"null","sound/msl/door.wav","null","audio-keyboard-response","483","274353","0.0-18.0-1.0","",""
"null","sound/msl/cat.wav","null","audio-keyboard-response","484","274853","0.0-18.0-2.0","",""
"null","sound/asl/silence.wav","null","audio-keyboard-response","485","275355","0.0-18.0-3.0","",""
"null","sound/msl/duck.wav","null","audio-keyboard-response","486","275863","0.0-18.0-4.0","",""
"null","sound/msl/door.wav","null","audio-keyboard-response","487","276363","0.0-18.0-5.0","",""
"null","sound/msl/cow.wav","null","audio-keyboard-response","488","276865","0.0-18.0-6.0","",""
"480","sound/asl/silence.wav","49","audio-keyboard-response","489","277352","0.0-18.0-7.0","true",""
"null","sound/msl/Water.wav","null","audio-keyboard-response","490","277864","0.0-19.0-0.0","",""
"null","sound/msl/bird.wav","null","audio-keyboard-response","491","278374","0.0-19.0-1.0","",""
"null","sound/msl/cat.wav","null","audio-keyboard-response","492","278874","0.0-19.0-2.0","",""
"null","sound/asl/silence.wav","null","audio-keyboard-response","493","279375","0.0-19.0-3.0","",""
"null","sound/msl/frog.wav","null","audio-keyboard-response","494","279874","0.0-19.0-4.0","",""
"null","sound/msl/dog.wav","null","audio-keyboard-response","495","280383","0.0-19.0-5.0","",""
"null","sound/msl/ding.wav","null","audio-keyboard-response","496","280894","0.0-19.0-6.0","",""
"531","sound/asl/silence.wav","50","audio-keyboard-response","497","281426","0.0-19.0-7.0","true",""
"null","sound/msl/organ.wav","null","audio-keyboard-response","498","281925","0.0-20.0-0.0","",""
"null","sound/msl/door.wav","null","audio-keyboard-response","499","282423","0.0-20.0-1.0","",""
"null","sound/msl/cat.wav","null","audio-keyboard-response","500","282924","0.0-20.0-2.0","",""
"null","sound/asl/silence.wav","null","audio-keyboard-response","501","283426","0.0-20.0-3.0","",""
"null","sound/msl/Water.wav","null","audio-keyboard-response","502","283933","0.0-20.0-4.0","",""
"null","sound/msl/bird.wav","null","audio-keyboard-response","503","284434","0.0-20.0-5.0","",""
"null","sound/msl/cat.wav","null","audio-keyboard-response","504","284933","0.0-20.0-6.0","",""
"341","sound/asl/silence.wav","49","audio-keyboard-response","505","285277","0.0-20.0-7.0","true",""
"null","sound/msl/goat.wav","null","audio-keyboard-response","506","285814","0.0-21.0-0.0","",""
"null","sound/msl/door_bell.wav","null","audio-keyboard-response","507","286313","0.0-21.0-1.0","",""
"null","sound/msl/cow.wav","null","audio-keyboard-response","508","286824","0.0-21.0-2.0","",""
"null","sound/asl/silence.wav","null","audio-keyboard-response","509","287325","0.0-21.0-3.0","",""
"null","sound/msl/frog.wav","null","audio-keyboard-response","510","287823","0.0-21.0-4.0","",""
"null","sound/msl/slide_whistle.wav","null","audio-keyboard-response","511","288325","0.0-21.0-5.0","",""
"null","sound/msl/boing.wav","null","audio-keyboard-response","512","288824","0.0-21.0-6.0","",""
"429","sound/asl/silence.wav","50","audio-keyboard-response","513","289257","0.0-21.0-7.0","false",""
"null","sound/msl/Water.wav","null","audio-keyboard-response","514","289764","0.0-22.0-0.0","",""
"null","sound/msl/slide_whistle.wav","null","audio-keyboard-response","515","290263","0.0-22.0-1.0","",""
"null","sound/msl/clock.wav","null","audio-keyboard-response","516","290814","0.0-22.0-2.0","",""
"null","sound/asl/silence.wav","null","audio-keyboard-response","517","291314","0.0-22.0-3.0","",""
"null","sound/msl/duck.wav","null","audio-keyboard-response","518","291824","0.0-22.0-4.0","",""
"null","sound/msl/door.wav","null","audio-keyboard-response","519","292325","0.0-22.0-5.0","",""
"null","sound/msl/cow.wav","null","audio-keyboard-response","520","292824","0.0-22.0-6.0","",""
"760","sound/asl/silence.wav","49","audio-keyboard-response","521","293583","0.0-22.0-7.0","true",""
"null","sound/msl/Water.wav","null","audio-keyboard-response","522","294094","0.0-23.0-0.0","",""
"null","sound/msl/bird.wav","null","audio-keyboard-response","523","294594","0.0-23.0-1.0","",""
"null","sound/msl/cat.wav","null","audio-keyboard-response","524","295094","0.0-23.0-2.0","",""
"null","sound/asl/silence.wav","null","audio-keyboard-response","525","295595","0.0-23.0-3.0","",""
"null","sound/msl/goat.wav","null","audio-keyboard-response","526","296135","0.0-23.0-4.0","",""
"null","sound/msl/door_bell.wav","null","audio-keyboard-response","527","296634","0.0-23.0-5.0","",""
"null","sound/msl/cow.wav","null","audio-keyboard-response","528","297144","0.0-23.0-6.0","",""
"779","sound/asl/silence.wav","50","audio-keyboard-response","529","297930","0.0-23.0-7.0","true",""
"null","sound/msl/frog.wav","null","audio-keyboard-response","530","298424","0.0-24.0-0.0","",""
"null","sound/msl/dog.wav","null","audio-keyboard-response","531","298933","0.0-24.0-1.0","",""
"null","sound/msl/ding.wav","null","audio-keyboard-response","532","299434","0.0-24.0-2.0","",""
"null","sound/asl/silence.wav","null","audio-keyboard-response","533","299936","0.0-24.0-3.0","",""
"null","sound/msl/duck.wav","null","audio-keyboard-response","534","300434","0.0-24.0-4.0","",""
"null","sound/msl/door.wav","null","audio-keyboard-response","535","300934","0.0-24.0-5.0","",""
"null","sound/msl/cow.wav","null","audio-keyboard-response","536","301433","0.0-24.0-6.0","",""
"429","sound/asl/silence.wav","50","audio-keyboard-response","537","301873","0.0-24.0-7.0","false",""
"null","sound/msl/frog.wav","null","audio-keyboard-response","538","302384","0.0-25.0-0.0","",""
"null","sound/msl/slide_whistle.wav","null","audio-keyboard-response","539","302884","0.0-25.0-1.0","",""
"null","sound/msl/boing.wav","null","audio-keyboard-response","540","303383","0.0-25.0-2.0","",""
"null","sound/asl/silence.wav","null","audio-keyboard-response","541","303886","0.0-25.0-3.0","",""
"null","sound/msl/organ.wav","null","audio-keyboard-response","542","304384","0.0-25.0-4.0","",""
"null","sound/msl/door.wav","null","audio-keyboard-response","543","304884","0.0-25.0-5.0","",""
"null","sound/msl/cat.wav","null","audio-keyboard-response","544","305385","0.0-25.0-6.0","",""
"339","sound/asl/silence.wav","49","audio-keyboard-response","545","305728","0.0-25.0-7.0","false",""
"null","sound/msl/organ.wav","null","audio-keyboard-response","546","306224","0.0-26.0-0.0","",""
"null","sound/msl/door_bell.wav","null","audio-keyboard-response","547","306734","0.0-26.0-1.0","",""
"null","sound/msl/ding.wav","null","audio-keyboard-response","548","307233","0.0-26.0-2.0","",""
"null","sound/asl/silence.wav","null","audio-keyboard-response","549","307734","0.0-26.0-3.0","",""
"null","sound/msl/duck.wav","null","audio-keyboard-response","550","308234","0.0-26.0-4.0","",""
"null","sound/msl/bird.wav","null","audio-keyboard-response","551","308744","0.0-26.0-5.0","",""
"null","sound/msl/boing.wav","null","audio-keyboard-response","552","309244","0.0-26.0-6.0","",""
"432","sound/asl/silence.wav","50","audio-keyboard-response","553","309680","0.0-26.0-7.0","true",""
"null","sound/msl/frog.wav","null","audio-keyboard-response","554","310184","0.0-27.0-0.0","",""
"null","sound/msl/slide_whistle.wav","null","audio-keyboard-response","555","310683","0.0-27.0-1.0","",""
"null","sound/msl/boing.wav","null","audio-keyboard-response","556","311184","0.0-27.0-2.0","",""
"null","sound/asl/silence.wav","null","audio-keyboard-response","557","311686","0.0-27.0-3.0","",""
"null","sound/msl/frog.wav","null","audio-keyboard-response","558","312184","0.0-27.0-4.0","",""
"null","sound/msl/dog.wav","null","audio-keyboard-response","559","312694","0.0-27.0-5.0","",""
"null","sound/msl/ding.wav","null","audio-keyboard-response","560","313194","0.0-27.0-6.0","",""
"520","sound/asl/silence.wav","50","audio-keyboard-response","561","313719","0.0-27.0-7.0","true",""
"3515","","","instructions","562","317234","0.0-28.0","","[{""page_index"":0,""viewing_time"":3515}]"
