"rt","stimulus","key_press","trial_type","trial_index","time_elapsed","internal_node_id","correct","view_history"
"10080","alien.jpg","49","image-keyboard-response","0","10082","0.0-0.0","",""
"null","sound/msl/cat.wav","null","audio-keyboard-response","1","10582","0.0-1.0-0.0","",""
"null","sound/msl/duck.wav","null","audio-keyboard-response","2","11091","0.0-1.0-1.0","",""
"null","sound/msl/goat.wav","null","audio-keyboard-response","3","11631","0.0-1.0-2.0","",""
"null","sound/msl/door.wav","null","audio-keyboard-response","4","12134","0.0-1.0-3.0","",""
"null","sound/msl/frog.wav","null","audio-keyboard-response","5","12640","0.0-1.0-4.0","",""
"null","sound/msl/cow.wav","null","audio-keyboard-response","6","13141","0.0-1.0-5.0","",""
"null","sound/msl/bird.wav","null","audio-keyboard-response","7","13650","0.0-1.0-6.0","",""
"null","sound/msl/organ.wav","null","audio-keyboard-response","8","14150","0.0-1.0-7.0","",""
"null","sound/msl/clock.wav","null","audio-keyboard-response","9","14700","0.0-1.0-8.0","",""
"null","sound/msl/ding.wav","null","audio-keyboard-response","10","15210","0.0-1.0-9.0","",""
"null","sound/msl/boing.wav","null","audio-keyboard-response","11","15710","0.0-1.0-10.0","",""
"null","sound/msl/dog.wav","null","audio-keyboard-response","12","16210","0.0-1.0-11.0","",""
"null","sound/msl/door.wav","null","audio-keyboard-response","13","16710","0.0-1.0-12.0","",""
"null","sound/msl/frog.wav","null","audio-keyboard-response","14","17210","0.0-1.0-13.0","",""
"null","sound/msl/cow.wav","null","audio-keyboard-response","15","17720","0.0-1.0-14.0","",""
"null","sound/msl/cat.wav","null","audio-keyboard-response","16","18221","0.0-1.0-15.0","",""
"null","sound/msl/duck.wav","null","audio-keyboard-response","17","18730","0.0-1.0-16.0","",""
"null","sound/msl/goat.wav","null","audio-keyboard-response","18","19270","0.0-1.0-17.0","",""
"null","sound/msl/Water.wav","null","audio-keyboard-response","19","19780","0.0-1.0-18.0","",""
"null","sound/msl/slide_whistle.wav","null","audio-keyboard-response","20","20280","0.0-1.0-19.0","",""
"null","sound/msl/door_bell.wav","null","audio-keyboard-response","21","20781","0.0-1.0-20.0","",""
"null","sound/msl/ding.wav","null","audio-keyboard-response","22","21291","0.0-1.0-21.0","",""
"null","sound/msl/boing.wav","null","audio-keyboard-response","23","21790","0.0-1.0-22.0","",""
"null","sound/msl/dog.wav","null","audio-keyboard-response","24","22290","0.0-1.0-23.0","",""
"null","sound/msl/bird.wav","null","audio-keyboard-response","25","22801","0.0-1.0-24.0","",""
"null","sound/msl/organ.wav","null","audio-keyboard-response","26","23300","0.0-1.0-25.0","",""
"null","sound/msl/clock.wav","null","audio-keyboard-response","27","23850","0.0-1.0-26.0","",""
"null","sound/msl/cat.wav","null","audio-keyboard-response","28","24350","0.0-1.0-27.0","",""
"null","sound/msl/duck.wav","null","audio-keyboard-response","29","24851","0.0-1.0-28.0","",""
"null","sound/msl/goat.wav","null","audio-keyboard-response","30","25390","0.0-1.0-29.0","",""
"null","sound/msl/door.wav","null","audio-keyboard-response","31","25891","0.0-1.0-30.0","",""
"null","sound/msl/frog.wav","null","audio-keyboard-response","32","26400","0.0-1.0-31.0","",""
"null","sound/msl/cow.wav","null","audio-keyboard-response","33","26900","0.0-1.0-32.0","",""
"null","sound/msl/Water.wav","null","audio-keyboard-response","34","27410","0.0-1.0-33.0","",""
"null","sound/msl/slide_whistle.wav","null","audio-keyboard-response","35","27910","0.0-1.0-34.0","",""
"null","sound/msl/door_bell.wav","null","audio-keyboard-response","36","28411","0.0-1.0-35.0","",""
"null","sound/msl/bird.wav","null","audio-keyboard-response","37","28921","0.0-1.0-36.0","",""
"null","sound/msl/organ.wav","null","audio-keyboard-response","38","29420","0.0-1.0-37.0","",""
"null","sound/msl/clock.wav","null","audio-keyboard-response","39","29970","0.0-1.0-38.0","",""
"null","sound/msl/ding.wav","null","audio-keyboard-response","40","30481","0.0-1.0-39.0","",""
"null","sound/msl/boing.wav","null","audio-keyboard-response","41","30980","0.0-1.0-40.0","",""
"null","sound/msl/dog.wav","null","audio-keyboard-response","42","31490","0.0-1.0-41.0","",""
"null","sound/msl/Water.wav","null","audio-keyboard-response","43","32001","0.0-1.0-42.0","",""
"null","sound/msl/slide_whistle.wav","null","audio-keyboard-response","44","32501","0.0-1.0-43.0","",""
"null","sound/msl/door_bell.wav","null","audio-keyboard-response","45","33011","0.0-1.0-44.0","",""
"null","sound/msl/door.wav","null","audio-keyboard-response","46","33510","0.0-1.0-45.0","",""
"null","sound/msl/frog.wav","null","audio-keyboard-response","47","34011","0.0-1.0-46.0","",""
"null","sound/msl/cow.wav","null","audio-keyboard-response","48","34521","0.0-1.0-47.0","",""
"null","sound/msl/bird.wav","null","audio-keyboard-response","49","35021","0.0-1.0-48.0","",""
"null","sound/msl/organ.wav","null","audio-keyboard-response","50","35520","0.0-1.0-49.0","",""
"null","sound/msl/clock.wav","null","audio-keyboard-response","51","36070","0.0-1.0-50.0","",""
"null","sound/msl/cat.wav","null","audio-keyboard-response","52","36571","0.0-1.0-51.0","",""
"null","sound/msl/duck.wav","null","audio-keyboard-response","53","37080","0.0-1.0-52.0","",""
"null","sound/msl/goat.wav","null","audio-keyboard-response","54","37621","0.0-1.0-53.0","",""
"null","sound/msl/door.wav","null","audio-keyboard-response","55","38120","0.0-1.0-54.0","",""
"null","sound/msl/frog.wav","null","audio-keyboard-response","56","38620","0.0-1.0-55.0","",""
"null","sound/msl/cow.wav","null","audio-keyboard-response","57","39130","0.0-1.0-56.0","",""
"null","sound/msl/bird.wav","null","audio-keyboard-response","58","39641","0.0-1.0-57.0","",""
"null","sound/msl/organ.wav","null","audio-keyboard-response","59","40140","0.0-1.0-58.0","",""
"null","sound/msl/clock.wav","null","audio-keyboard-response","60","40690","0.0-1.0-59.0","",""
"null","sound/msl/ding.wav","null","audio-keyboard-response","61","41201","0.0-1.0-60.0","",""
"null","sound/msl/boing.wav","null","audio-keyboard-response","62","41700","0.0-1.0-61.0","",""
"null","sound/msl/dog.wav","null","audio-keyboard-response","63","42210","0.0-1.0-62.0","",""
"null","sound/msl/Water.wav","null","audio-keyboard-response","64","42720","0.0-1.0-63.0","",""
"null","sound/msl/slide_whistle.wav","null","audio-keyboard-response","65","43221","0.0-1.0-64.0","",""
"null","sound/msl/door_bell.wav","null","audio-keyboard-response","66","43731","0.0-1.0-65.0","",""
"null","sound/msl/door.wav","null","audio-keyboard-response","67","44231","0.0-1.0-66.0","",""
"null","sound/msl/frog.wav","null","audio-keyboard-response","68","44730","0.0-1.0-67.0","",""
"null","sound/msl/cow.wav","null","audio-keyboard-response","69","45239","0.0-1.0-68.0","",""
"null","sound/msl/cat.wav","null","audio-keyboard-response","70","45739","0.0-1.0-69.0","",""
"null","sound/msl/duck.wav","null","audio-keyboard-response","71","46250","0.0-1.0-70.0","",""
"null","sound/msl/goat.wav","null","audio-keyboard-response","72","46790","0.0-1.0-71.0","",""
"null","sound/msl/bird.wav","null","audio-keyboard-response","73","47291","0.0-1.0-72.0","",""
"null","sound/msl/organ.wav","null","audio-keyboard-response","74","47790","0.0-1.0-73.0","",""
"null","sound/msl/clock.wav","null","audio-keyboard-response","75","48340","0.0-1.0-74.0","",""
"null","sound/msl/ding.wav","null","audio-keyboard-response","76","48850","0.0-1.0-75.0","",""
"null","sound/msl/boing.wav","null","audio-keyboard-response","77","49350","0.0-1.0-76.0","",""
"null","sound/msl/dog.wav","null","audio-keyboard-response","78","49850","0.0-1.0-77.0","",""
"null","sound/msl/bird.wav","null","audio-keyboard-response","79","50360","0.0-1.0-78.0","",""
"null","sound/msl/organ.wav","null","audio-keyboard-response","80","50860","0.0-1.0-79.0","",""
"null","sound/msl/clock.wav","null","audio-keyboard-response","81","51410","0.0-1.0-80.0","",""
"null","sound/msl/Water.wav","null","audio-keyboard-response","82","51920","0.0-1.0-81.0","",""
"null","sound/msl/slide_whistle.wav","null","audio-keyboard-response","83","52420","0.0-1.0-82.0","",""
"null","sound/msl/door_bell.wav","null","audio-keyboard-response","84","52930","0.0-1.0-83.0","",""
"null","sound/msl/cat.wav","null","audio-keyboard-response","85","53430","0.0-1.0-84.0","",""
"null","sound/msl/duck.wav","null","audio-keyboard-response","86","53930","0.0-1.0-85.0","",""
"null","sound/msl/goat.wav","null","audio-keyboard-response","87","54470","0.0-1.0-86.0","",""
"null","sound/msl/door.wav","null","audio-keyboard-response","88","54971","0.0-1.0-87.0","",""
"null","sound/msl/frog.wav","null","audio-keyboard-response","89","55480","0.0-1.0-88.0","",""
"null","sound/msl/cow.wav","null","audio-keyboard-response","90","55980","0.0-1.0-89.0","",""
"null","sound/msl/Water.wav","null","audio-keyboard-response","91","56490","0.0-1.0-90.0","",""
"null","sound/msl/slide_whistle.wav","null","audio-keyboard-response","92","56990","0.0-1.0-91.0","",""
"null","sound/msl/door_bell.wav","null","audio-keyboard-response","93","57491","0.0-1.0-92.0","",""
"null","sound/msl/ding.wav","null","audio-keyboard-response","94","58001","0.0-1.0-93.0","",""
"null","sound/msl/boing.wav","null","audio-keyboard-response","95","58501","0.0-1.0-94.0","",""
"null","sound/msl/dog.wav","null","audio-keyboard-response","96","59010","0.0-1.0-95.0","",""
"null","sound/msl/bird.wav","null","audio-keyboard-response","97","59520","0.0-1.0-96.0","",""
"null","sound/msl/organ.wav","null","audio-keyboard-response","98","60021","0.0-1.0-97.0","",""
"null","sound/msl/clock.wav","null","audio-keyboard-response","99","60571","0.0-1.0-98.0","",""
"null","sound/msl/door.wav","null","audio-keyboard-response","100","61071","0.0-1.0-99.0","",""
"null","sound/msl/frog.wav","null","audio-keyboard-response","101","61571","0.0-1.0-100.0","",""
"null","sound/msl/cow.wav","null","audio-keyboard-response","102","62080","0.0-1.0-101.0","",""
"null","sound/msl/Water.wav","null","audio-keyboard-response","103","62591","0.0-1.0-102.0","",""
"null","sound/msl/slide_whistle.wav","null","audio-keyboard-response","104","63092","0.0-1.0-103.0","",""
"null","sound/msl/door_bell.wav","null","audio-keyboard-response","105","63601","0.0-1.0-104.0","",""
"null","sound/msl/cat.wav","null","audio-keyboard-response","106","64101","0.0-1.0-105.0","",""
"null","sound/msl/duck.wav","null","audio-keyboard-response","107","64611","0.0-1.0-106.0","",""
"null","sound/msl/goat.wav","null","audio-keyboard-response","108","65151","0.0-1.0-107.0","",""
"null","sound/msl/door.wav","null","audio-keyboard-response","109","65651","0.0-1.0-108.0","",""
"null","sound/msl/frog.wav","null","audio-keyboard-response","110","66161","0.0-1.0-109.0","",""
"null","sound/msl/cow.wav","null","audio-keyboard-response","111","66661","0.0-1.0-110.0","",""
"null","sound/msl/ding.wav","null","audio-keyboard-response","112","67171","0.0-1.0-111.0","",""
"null","sound/msl/boing.wav","null","audio-keyboard-response","113","67671","0.0-1.0-112.0","",""
"null","sound/msl/dog.wav","null","audio-keyboard-response","114","68171","0.0-1.0-113.0","",""
"null","sound/msl/Water.wav","null","audio-keyboard-response","115","68680","0.0-1.0-114.0","",""
"null","sound/msl/slide_whistle.wav","null","audio-keyboard-response","116","69181","0.0-1.0-115.0","",""
"null","sound/msl/door_bell.wav","null","audio-keyboard-response","117","69690","0.0-1.0-116.0","",""
"null","sound/msl/bird.wav","null","audio-keyboard-response","118","70200","0.0-1.0-117.0","",""
"null","sound/msl/organ.wav","null","audio-keyboard-response","119","70700","0.0-1.0-118.0","",""
"null","sound/msl/clock.wav","null","audio-keyboard-response","120","71251","0.0-1.0-119.0","",""
"null","sound/msl/cat.wav","null","audio-keyboard-response","121","71751","0.0-1.0-120.0","",""
"null","sound/msl/duck.wav","null","audio-keyboard-response","122","72250","0.0-1.0-121.0","",""
"null","sound/msl/goat.wav","null","audio-keyboard-response","123","72791","0.0-1.0-122.0","",""
"null","sound/msl/door.wav","null","audio-keyboard-response","124","73291","0.0-1.0-123.0","",""
"null","sound/msl/frog.wav","null","audio-keyboard-response","125","73801","0.0-1.0-124.0","",""
"null","sound/msl/cow.wav","null","audio-keyboard-response","126","74300","0.0-1.0-125.0","",""
"null","sound/msl/Water.wav","null","audio-keyboard-response","127","74812","0.0-1.0-126.0","",""
"null","sound/msl/slide_whistle.wav","null","audio-keyboard-response","128","75311","0.0-1.0-127.0","",""
"null","sound/msl/door_bell.wav","null","audio-keyboard-response","129","75812","0.0-1.0-128.0","",""
"null","sound/msl/ding.wav","null","audio-keyboard-response","130","76320","0.0-1.0-129.0","",""
"null","sound/msl/boing.wav","null","audio-keyboard-response","131","76821","0.0-1.0-130.0","",""
"null","sound/msl/dog.wav","null","audio-keyboard-response","132","77330","0.0-1.0-131.0","",""
"null","sound/msl/door.wav","null","audio-keyboard-response","133","77830","0.0-1.0-132.0","",""
"null","sound/msl/frog.wav","null","audio-keyboard-response","134","78331","0.0-1.0-133.0","",""
"null","sound/msl/cow.wav","null","audio-keyboard-response","135","78841","0.0-1.0-134.0","",""
"null","sound/msl/bird.wav","null","audio-keyboard-response","136","79341","0.0-1.0-135.0","",""
"null","sound/msl/organ.wav","null","audio-keyboard-response","137","79840","0.0-1.0-136.0","",""
"null","sound/msl/clock.wav","null","audio-keyboard-response","138","80390","0.0-1.0-137.0","",""
"null","sound/msl/ding.wav","null","audio-keyboard-response","139","80891","0.0-1.0-138.0","",""
"null","sound/msl/boing.wav","null","audio-keyboard-response","140","81391","0.0-1.0-139.0","",""
"null","sound/msl/dog.wav","null","audio-keyboard-response","141","81892","0.0-1.0-140.0","",""
"null","sound/msl/cat.wav","null","audio-keyboard-response","142","82390","0.0-1.0-141.0","",""
"null","sound/msl/duck.wav","null","audio-keyboard-response","143","82891","0.0-1.0-142.0","",""
"null","sound/msl/goat.wav","null","audio-keyboard-response","144","83431","0.0-1.0-143.0","",""
"null","sound/msl/Water.wav","null","audio-keyboard-response","145","83940","0.0-1.0-144.0","",""
"null","sound/msl/slide_whistle.wav","null","audio-keyboard-response","146","84441","0.0-1.0-145.0","",""
"null","sound/msl/door_bell.wav","null","audio-keyboard-response","147","84941","0.0-1.0-146.0","",""
"null","sound/msl/bird.wav","null","audio-keyboard-response","148","85452","0.0-1.0-147.0","",""
"null","sound/msl/organ.wav","null","audio-keyboard-response","149","85950","0.0-1.0-148.0","",""
"null","sound/msl/clock.wav","null","audio-keyboard-response","150","86501","0.0-1.0-149.0","",""
"null","sound/msl/cat.wav","null","audio-keyboard-response","151","87000","0.0-1.0-150.0","",""
"null","sound/msl/duck.wav","null","audio-keyboard-response","152","87501","0.0-1.0-151.0","",""
"null","sound/msl/goat.wav","null","audio-keyboard-response","153","88041","0.0-1.0-152.0","",""
"null","sound/msl/door.wav","null","audio-keyboard-response","154","88541","0.0-1.0-153.0","",""
"null","sound/msl/frog.wav","null","audio-keyboard-response","155","89052","0.0-1.0-154.0","",""
"null","sound/msl/cow.wav","null","audio-keyboard-response","156","89562","0.0-1.0-155.0","",""
"null","sound/msl/ding.wav","null","audio-keyboard-response","157","90062","0.0-1.0-156.0","",""
"null","sound/msl/boing.wav","null","audio-keyboard-response","158","90561","0.0-1.0-157.0","",""
"null","sound/msl/dog.wav","null","audio-keyboard-response","159","91062","0.0-1.0-158.0","",""
"null","sound/msl/Water.wav","null","audio-keyboard-response","160","91571","0.0-1.0-159.0","",""
"null","sound/msl/slide_whistle.wav","null","audio-keyboard-response","161","92071","0.0-1.0-160.0","",""
"null","sound/msl/door_bell.wav","null","audio-keyboard-response","162","92571","0.0-1.0-161.0","",""
"null","sound/msl/door.wav","null","audio-keyboard-response","163","93070","0.0-1.0-162.0","",""
"null","sound/msl/frog.wav","null","audio-keyboard-response","164","93571","0.0-1.0-163.0","",""
"null","sound/msl/cow.wav","null","audio-keyboard-response","165","94081","0.0-1.0-164.0","",""
"null","sound/msl/ding.wav","null","audio-keyboard-response","166","94581","0.0-1.0-165.0","",""
"null","sound/msl/boing.wav","null","audio-keyboard-response","167","95081","0.0-1.0-166.0","",""
"null","sound/msl/dog.wav","null","audio-keyboard-response","168","95581","0.0-1.0-167.0","",""
"null","sound/msl/cat.wav","null","audio-keyboard-response","169","96080","0.0-1.0-168.0","",""
"null","sound/msl/duck.wav","null","audio-keyboard-response","170","96581","0.0-1.0-169.0","",""
"null","sound/msl/goat.wav","null","audio-keyboard-response","171","97121","0.0-1.0-170.0","",""
"null","sound/msl/bird.wav","null","audio-keyboard-response","172","97621","0.0-1.0-171.0","",""
"null","sound/msl/organ.wav","null","audio-keyboard-response","173","98121","0.0-1.0-172.0","",""
"null","sound/msl/clock.wav","null","audio-keyboard-response","174","98671","0.0-1.0-173.0","",""
"null","sound/msl/Water.wav","null","audio-keyboard-response","175","99181","0.0-1.0-174.0","",""
"null","sound/msl/slide_whistle.wav","null","audio-keyboard-response","176","99681","0.0-1.0-175.0","",""
"null","sound/msl/door_bell.wav","null","audio-keyboard-response","177","100182","0.0-1.0-176.0","",""
"null","sound/msl/door.wav","null","audio-keyboard-response","178","100681","0.0-1.0-177.0","",""
"null","sound/msl/frog.wav","null","audio-keyboard-response","179","101181","0.0-1.0-178.0","",""
"null","sound/msl/cow.wav","null","audio-keyboard-response","180","101691","0.0-1.0-179.0","",""
"null","sound/msl/bird.wav","null","audio-keyboard-response","181","102201","0.0-1.0-180.0","",""
"null","sound/msl/organ.wav","null","audio-keyboard-response","182","102700","0.0-1.0-181.0","",""
"null","sound/msl/clock.wav","null","audio-keyboard-response","183","103250","0.0-1.0-182.0","",""
"null","sound/msl/ding.wav","null","audio-keyboard-response","184","103761","0.0-1.0-183.0","",""
"null","sound/msl/boing.wav","null","audio-keyboard-response","185","104261","0.0-1.0-184.0","",""
"null","sound/msl/dog.wav","null","audio-keyboard-response","186","104771","0.0-1.0-185.0","",""
"null","sound/msl/cat.wav","null","audio-keyboard-response","187","105271","0.0-1.0-186.0","",""
"null","sound/msl/duck.wav","null","audio-keyboard-response","188","105771","0.0-1.0-187.0","",""
"null","sound/msl/goat.wav","null","audio-keyboard-response","189","106310","0.0-1.0-188.0","",""
"null","sound/msl/Water.wav","null","audio-keyboard-response","190","106821","0.0-1.0-189.0","",""
"null","sound/msl/slide_whistle.wav","null","audio-keyboard-response","191","107321","0.0-1.0-190.0","",""
"null","sound/msl/door_bell.wav","null","audio-keyboard-response","192","107821","0.0-1.0-191.0","",""
"null","sound/msl/door.wav","null","audio-keyboard-response","193","108321","0.0-1.0-192.0","",""
"null","sound/msl/frog.wav","null","audio-keyboard-response","194","108821","0.0-1.0-193.0","",""
"null","sound/msl/cow.wav","null","audio-keyboard-response","195","109331","0.0-1.0-194.0","",""
"null","sound/msl/bird.wav","null","audio-keyboard-response","196","109841","0.0-1.0-195.0","",""
"null","sound/msl/organ.wav","null","audio-keyboard-response","197","110341","0.0-1.0-196.0","",""
"null","sound/msl/clock.wav","null","audio-keyboard-response","198","110890","0.0-1.0-197.0","",""
"null","sound/msl/cat.wav","null","audio-keyboard-response","199","111390","0.0-1.0-198.0","",""
"null","sound/msl/duck.wav","null","audio-keyboard-response","200","111891","0.0-1.0-199.0","",""
"null","sound/msl/goat.wav","null","audio-keyboard-response","201","112431","0.0-1.0-200.0","",""
"null","sound/msl/ding.wav","null","audio-keyboard-response","202","112930","0.0-1.0-201.0","",""
"null","sound/msl/boing.wav","null","audio-keyboard-response","203","113431","0.0-1.0-202.0","",""
"null","sound/msl/dog.wav","null","audio-keyboard-response","204","113931","0.0-1.0-203.0","",""
"null","sound/msl/Water.wav","null","audio-keyboard-response","205","114441","0.0-1.0-204.0","",""
"null","sound/msl/slide_whistle.wav","null","audio-keyboard-response","206","114940","0.0-1.0-205.0","",""
"null","sound/msl/door_bell.wav","null","audio-keyboard-response","207","115451","0.0-1.0-206.0","",""
"null","sound/msl/door.wav","null","audio-keyboard-response","208","115950","0.0-1.0-207.0","",""
"null","sound/msl/frog.wav","null","audio-keyboard-response","209","116451","0.0-1.0-208.0","",""
"null","sound/msl/cow.wav","null","audio-keyboard-response","210","116961","0.0-1.0-209.0","",""
"null","sound/msl/cat.wav","null","audio-keyboard-response","211","117460","0.0-1.0-210.0","",""
"null","sound/msl/duck.wav","null","audio-keyboard-response","212","117971","0.0-1.0-211.0","",""
"null","sound/msl/goat.wav","null","audio-keyboard-response","213","118510","0.0-1.0-212.0","",""
"null","sound/msl/Water.wav","null","audio-keyboard-response","214","119021","0.0-1.0-213.0","",""
"null","sound/msl/slide_whistle.wav","null","audio-keyboard-response","215","119521","0.0-1.0-214.0","",""
"null","sound/msl/door_bell.wav","null","audio-keyboard-response","216","120020","0.0-1.0-215.0","",""
"null","sound/msl/bird.wav","null","audio-keyboard-response","217","120530","0.0-1.0-216.0","",""
"null","sound/msl/organ.wav","null","audio-keyboard-response","218","121030","0.0-1.0-217.0","",""
"null","sound/msl/clock.wav","null","audio-keyboard-response","219","121580","0.0-1.0-218.0","",""
"null","sound/msl/ding.wav","null","audio-keyboard-response","220","122091","0.0-1.0-219.0","",""
"null","sound/msl/boing.wav","null","audio-keyboard-response","221","122590","0.0-1.0-220.0","",""
"null","sound/msl/dog.wav","null","audio-keyboard-response","222","123090","0.0-1.0-221.0","",""
"null","sound/msl/door.wav","null","audio-keyboard-response","223","123591","0.0-1.0-222.0","",""
"null","sound/msl/frog.wav","null","audio-keyboard-response","224","124091","0.0-1.0-223.0","",""
"null","sound/msl/cow.wav","null","audio-keyboard-response","225","124600","0.0-1.0-224.0","",""
"null","sound/msl/bird.wav","null","audio-keyboard-response","226","125101","0.0-1.0-225.0","",""
"null","sound/msl/organ.wav","null","audio-keyboard-response","227","125600","0.0-1.0-226.0","",""
"null","sound/msl/clock.wav","null","audio-keyboard-response","228","126150","0.0-1.0-227.0","",""
"null","sound/msl/Water.wav","null","audio-keyboard-response","229","126662","0.0-1.0-228.0","",""
"null","sound/msl/slide_whistle.wav","null","audio-keyboard-response","230","127160","0.0-1.0-229.0","",""
"null","sound/msl/door_bell.wav","null","audio-keyboard-response","231","127660","0.0-1.0-230.0","",""
"null","sound/msl/bird.wav","null","audio-keyboard-response","232","128172","0.0-1.0-231.0","",""
"null","sound/msl/organ.wav","null","audio-keyboard-response","233","128671","0.0-1.0-232.0","",""
"null","sound/msl/clock.wav","null","audio-keyboard-response","234","129220","0.0-1.0-233.0","",""
"null","sound/msl/door.wav","null","audio-keyboard-response","235","129720","0.0-1.0-234.0","",""
"null","sound/msl/frog.wav","null","audio-keyboard-response","236","130221","0.0-1.0-235.0","",""
"null","sound/msl/cow.wav","null","audio-keyboard-response","237","130730","0.0-1.0-236.0","",""
"null","sound/msl/ding.wav","null","audio-keyboard-response","238","131240","0.0-1.0-237.0","",""
"null","sound/msl/boing.wav","null","audio-keyboard-response","239","131741","0.0-1.0-238.0","",""
"null","sound/msl/dog.wav","null","audio-keyboard-response","240","132251","0.0-1.0-239.0","",""
"null","sound/msl/cat.wav","null","audio-keyboard-response","241","132750","0.0-1.0-240.0","",""
"null","sound/msl/duck.wav","null","audio-keyboard-response","242","133250","0.0-1.0-241.0","",""
"null","sound/msl/goat.wav","null","audio-keyboard-response","243","133791","0.0-1.0-242.0","",""
"null","sound/msl/Water.wav","null","audio-keyboard-response","244","134301","0.0-1.0-243.0","",""
"null","sound/msl/slide_whistle.wav","null","audio-keyboard-response","245","134801","0.0-1.0-244.0","",""
"null","sound/msl/door_bell.wav","null","audio-keyboard-response","246","135301","0.0-1.0-245.0","",""
"null","sound/msl/door.wav","null","audio-keyboard-response","247","135800","0.0-1.0-246.0","",""
"null","sound/msl/frog.wav","null","audio-keyboard-response","248","136300","0.0-1.0-247.0","",""
"null","sound/msl/cow.wav","null","audio-keyboard-response","249","136811","0.0-1.0-248.0","",""
"null","sound/msl/ding.wav","null","audio-keyboard-response","250","137320","0.0-1.0-249.0","",""
"null","sound/msl/boing.wav","null","audio-keyboard-response","251","137822","0.0-1.0-250.0","",""
"null","sound/msl/dog.wav","null","audio-keyboard-response","252","138331","0.0-1.0-251.0","",""
"null","sound/msl/cat.wav","null","audio-keyboard-response","253","138831","0.0-1.0-252.0","",""
"null","sound/msl/duck.wav","null","audio-keyboard-response","254","139331","0.0-1.0-253.0","",""
"null","sound/msl/goat.wav","null","audio-keyboard-response","255","139870","0.0-1.0-254.0","",""
"null","sound/msl/bird.wav","null","audio-keyboard-response","256","140371","0.0-1.0-255.0","",""
"null","sound/msl/organ.wav","null","audio-keyboard-response","257","140871","0.0-1.0-256.0","",""
"null","sound/msl/clock.wav","null","audio-keyboard-response","258","141421","0.0-1.0-257.0","",""
"null","sound/msl/Water.wav","null","audio-keyboard-response","259","141931","0.0-1.0-258.0","",""
"null","sound/msl/slide_whistle.wav","null","audio-keyboard-response","260","142431","0.0-1.0-259.0","",""
"null","sound/msl/door_bell.wav","null","audio-keyboard-response","261","142930","0.0-1.0-260.0","",""
"null","sound/msl/cat.wav","null","audio-keyboard-response","262","143430","0.0-1.0-261.0","",""
"null","sound/msl/duck.wav","null","audio-keyboard-response","263","143930","0.0-1.0-262.0","",""
"null","sound/msl/goat.wav","null","audio-keyboard-response","264","144470","0.0-1.0-263.0","",""
"null","sound/msl/ding.wav","null","audio-keyboard-response","265","144971","0.0-1.0-264.0","",""
"null","sound/msl/boing.wav","null","audio-keyboard-response","266","145471","0.0-1.0-265.0","",""
"null","sound/msl/dog.wav","null","audio-keyboard-response","267","145971","0.0-1.0-266.0","",""
"null","sound/msl/bird.wav","null","audio-keyboard-response","268","146480","0.0-1.0-267.0","",""
"null","sound/msl/organ.wav","null","audio-keyboard-response","269","146981","0.0-1.0-268.0","",""
"null","sound/msl/clock.wav","null","audio-keyboard-response","270","147531","0.0-1.0-269.0","",""
"null","sound/msl/door.wav","null","audio-keyboard-response","271","148031","0.0-1.0-270.0","",""
"null","sound/msl/frog.wav","null","audio-keyboard-response","272","148531","0.0-1.0-271.0","",""
"null","sound/msl/cow.wav","null","audio-keyboard-response","273","149041","0.0-1.0-272.0","",""
"null","sound/msl/Water.wav","null","audio-keyboard-response","274","149551","0.0-1.0-273.0","",""
"null","sound/msl/slide_whistle.wav","null","audio-keyboard-response","275","150050","0.0-1.0-274.0","",""
"null","sound/msl/door_bell.wav","null","audio-keyboard-response","276","150561","0.0-1.0-275.0","",""
"null","sound/msl/cat.wav","null","audio-keyboard-response","277","151060","0.0-1.0-276.0","",""
"null","sound/msl/duck.wav","null","audio-keyboard-response","278","151570","0.0-1.0-277.0","",""
"null","sound/msl/goat.wav","null","audio-keyboard-response","279","152111","0.0-1.0-278.0","",""
"null","sound/msl/ding.wav","null","audio-keyboard-response","280","152610","0.0-1.0-279.0","",""
"null","sound/msl/boing.wav","null","audio-keyboard-response","281","153110","0.0-1.0-280.0","",""
"null","sound/msl/dog.wav","null","audio-keyboard-response","282","153610","0.0-1.0-281.0","",""
"null","sound/msl/door.wav","null","audio-keyboard-response","283","154111","0.0-1.0-282.0","",""
"null","sound/msl/frog.wav","null","audio-keyboard-response","284","154611","0.0-1.0-283.0","",""
"null","sound/msl/cow.wav","null","audio-keyboard-response","285","155121","0.0-1.0-284.0","",""
"null","sound/msl/bird.wav","null","audio-keyboard-response","286","155621","0.0-1.0-285.0","",""
"null","sound/msl/organ.wav","null","audio-keyboard-response","287","156120","0.0-1.0-286.0","",""
"null","sound/msl/clock.wav","null","audio-keyboard-response","288","156671","0.0-1.0-287.0","",""
"null","sound/msl/Water.wav","null","audio-keyboard-response","289","157180","0.0-1.0-288.0","",""
"null","sound/msl/slide_whistle.wav","null","audio-keyboard-response","290","157681","0.0-1.0-289.0","",""
"null","sound/msl/door_bell.wav","null","audio-keyboard-response","291","158182","0.0-1.0-290.0","",""
"null","sound/msl/ding.wav","null","audio-keyboard-response","292","158691","0.0-1.0-291.0","",""
"null","sound/msl/boing.wav","null","audio-keyboard-response","293","159191","0.0-1.0-292.0","",""
"null","sound/msl/dog.wav","null","audio-keyboard-response","294","159691","0.0-1.0-293.0","",""
"null","sound/msl/cat.wav","null","audio-keyboard-response","295","160191","0.0-1.0-294.0","",""
"null","sound/msl/duck.wav","null","audio-keyboard-response","296","160690","0.0-1.0-295.0","",""
"null","sound/msl/goat.wav","null","audio-keyboard-response","297","161230","0.0-1.0-296.0","",""
"null","sound/msl/Water.wav","null","audio-keyboard-response","298","161741","0.0-1.0-297.0","",""
"null","sound/msl/slide_whistle.wav","null","audio-keyboard-response","299","162241","0.0-1.0-298.0","",""
"null","sound/msl/door_bell.wav","null","audio-keyboard-response","300","162741","0.0-1.0-299.0","",""
"null","sound/msl/door.wav","null","audio-keyboard-response","301","163241","0.0-1.0-300.0","",""
"null","sound/msl/frog.wav","null","audio-keyboard-response","302","163741","0.0-1.0-301.0","",""
"null","sound/msl/cow.wav","null","audio-keyboard-response","303","164251","0.0-1.0-302.0","",""
"null","sound/msl/ding.wav","null","audio-keyboard-response","304","164761","0.0-1.0-303.0","",""
"null","sound/msl/boing.wav","null","audio-keyboard-response","305","165260","0.0-1.0-304.0","",""
"null","sound/msl/dog.wav","null","audio-keyboard-response","306","165771","0.0-1.0-305.0","",""
"null","sound/msl/bird.wav","null","audio-keyboard-response","307","166280","0.0-1.0-306.0","",""
"null","sound/msl/organ.wav","null","audio-keyboard-response","308","166781","0.0-1.0-307.0","",""
"null","sound/msl/clock.wav","null","audio-keyboard-response","309","167331","0.0-1.0-308.0","",""
"null","sound/msl/cat.wav","null","audio-keyboard-response","310","167831","0.0-1.0-309.0","",""
"null","sound/msl/duck.wav","null","audio-keyboard-response","311","168331","0.0-1.0-310.0","",""
"null","sound/msl/goat.wav","null","audio-keyboard-response","312","168861","0.0-1.0-311.0","",""
"null","sound/msl/Water.wav","null","audio-keyboard-response","313","169370","0.0-1.0-312.0","",""
"null","sound/msl/slide_whistle.wav","null","audio-keyboard-response","314","169871","0.0-1.0-313.0","",""
"null","sound/msl/door_bell.wav","null","audio-keyboard-response","315","170371","0.0-1.0-314.0","",""
"null","sound/msl/door.wav","null","audio-keyboard-response","316","170871","0.0-1.0-315.0","",""
"null","sound/msl/frog.wav","null","audio-keyboard-response","317","171371","0.0-1.0-316.0","",""
"null","sound/msl/cow.wav","null","audio-keyboard-response","318","171881","0.0-1.0-317.0","",""
"null","sound/msl/ding.wav","null","audio-keyboard-response","319","172390","0.0-1.0-318.0","",""
"null","sound/msl/boing.wav","null","audio-keyboard-response","320","172892","0.0-1.0-319.0","",""
"null","sound/msl/dog.wav","null","audio-keyboard-response","321","173401","0.0-1.0-320.0","",""
"null","sound/msl/cat.wav","null","audio-keyboard-response","322","173901","0.0-1.0-321.0","",""
"null","sound/msl/duck.wav","null","audio-keyboard-response","323","174400","0.0-1.0-322.0","",""
"null","sound/msl/goat.wav","null","audio-keyboard-response","324","174941","0.0-1.0-323.0","",""
"null","sound/msl/door.wav","null","audio-keyboard-response","325","175440","0.0-1.0-324.0","",""
"null","sound/msl/frog.wav","null","audio-keyboard-response","326","175951","0.0-1.0-325.0","",""
"null","sound/msl/cow.wav","null","audio-keyboard-response","327","176450","0.0-1.0-326.0","",""
"null","sound/msl/bird.wav","null","audio-keyboard-response","328","176960","0.0-1.0-327.0","",""
"null","sound/msl/organ.wav","null","audio-keyboard-response","329","177461","0.0-1.0-328.0","",""
"null","sound/msl/clock.wav","null","audio-keyboard-response","330","178011","0.0-1.0-329.0","",""
"null","sound/msl/Water.wav","null","audio-keyboard-response","331","178521","0.0-1.0-330.0","",""
"null","sound/msl/slide_whistle.wav","null","audio-keyboard-response","332","179021","0.0-1.0-331.0","",""
"null","sound/msl/door_bell.wav","null","audio-keyboard-response","333","179522","0.0-1.0-332.0","",""
"null","sound/msl/ding.wav","null","audio-keyboard-response","334","180030","0.0-1.0-333.0","",""
"null","sound/msl/boing.wav","null","audio-keyboard-response","335","180531","0.0-1.0-334.0","",""
"null","sound/msl/dog.wav","null","audio-keyboard-response","336","181040","0.0-1.0-335.0","",""
"null","sound/msl/bird.wav","null","audio-keyboard-response","337","181550","0.0-1.0-336.0","",""
"null","sound/msl/organ.wav","null","audio-keyboard-response","338","182051","0.0-1.0-337.0","",""
"null","sound/msl/clock.wav","null","audio-keyboard-response","339","182601","0.0-1.0-338.0","",""
"null","sound/msl/cat.wav","null","audio-keyboard-response","340","183101","0.0-1.0-339.0","",""
"null","sound/msl/duck.wav","null","audio-keyboard-response","341","183601","0.0-1.0-340.0","",""
"null","sound/msl/goat.wav","null","audio-keyboard-response","342","184140","0.0-1.0-341.0","",""
"null","sound/msl/ding.wav","null","audio-keyboard-response","343","184640","0.0-1.0-342.0","",""
"null","sound/msl/boing.wav","null","audio-keyboard-response","344","185140","0.0-1.0-343.0","",""
"null","sound/msl/dog.wav","null","audio-keyboard-response","345","185640","0.0-1.0-344.0","",""
"null","sound/msl/cat.wav","null","audio-keyboard-response","346","186141","0.0-1.0-345.0","",""
"null","sound/msl/duck.wav","null","audio-keyboard-response","347","186640","0.0-1.0-346.0","",""
"null","sound/msl/goat.wav","null","audio-keyboard-response","348","187180","0.0-1.0-347.0","",""
"null","sound/msl/bird.wav","null","audio-keyboard-response","349","187680","0.0-1.0-348.0","",""
"null","sound/msl/organ.wav","null","audio-keyboard-response","350","188181","0.0-1.0-349.0","",""
"null","sound/msl/clock.wav","null","audio-keyboard-response","351","188730","0.0-1.0-350.0","",""
"null","sound/msl/Water.wav","null","audio-keyboard-response","352","189241","0.0-1.0-351.0","",""
"null","sound/msl/slide_whistle.wav","null","audio-keyboard-response","353","189740","0.0-1.0-352.0","",""
"null","sound/msl/door_bell.wav","null","audio-keyboard-response","354","190241","0.0-1.0-353.0","",""
"null","sound/msl/ding.wav","null","audio-keyboard-response","355","190750","0.0-1.0-354.0","",""
"null","sound/msl/boing.wav","null","audio-keyboard-response","356","191250","0.0-1.0-355.0","",""
"null","sound/msl/dog.wav","null","audio-keyboard-response","357","191760","0.0-1.0-356.0","",""
"null","sound/msl/cat.wav","null","audio-keyboard-response","358","192261","0.0-1.0-357.0","",""
"null","sound/msl/duck.wav","null","audio-keyboard-response","359","192760","0.0-1.0-358.0","",""
"null","sound/msl/goat.wav","null","audio-keyboard-response","360","193301","0.0-1.0-359.0","",""
"13774","Instructions2-eng.png","49","image-keyboard-response","361","207075","0.0-2.0","",""
"null","sound/msl/ding.wav","null","audio-keyboard-response","362","207571","0.0-3.0-0.0","",""
"null","sound/msl/slide_whistle.wav","null","audio-keyboard-response","363","208071","0.0-3.0-1.0","",""
"null","sound/msl/goat.wav","null","audio-keyboard-response","364","208610","0.0-3.0-2.0","",""
"null","sound/asl/silence.wav","null","audio-keyboard-response","365","209112","0.0-3.0-3.0","",""
"null","sound/msl/bird.wav","null","audio-keyboard-response","366","209611","0.0-3.0-4.0","",""
"null","sound/msl/organ.wav","null","audio-keyboard-response","367","210111","0.0-3.0-5.0","",""
"null","sound/msl/clock.wav","null","audio-keyboard-response","368","210660","0.0-3.0-6.0","",""
"691","sound/asl/silence.wav","50","audio-keyboard-response","369","211360","0.0-3.0-7.0","true",""
"null","sound/msl/bird.wav","null","audio-keyboard-response","370","211871","0.0-4.0-0.0","",""
"null","sound/msl/organ.wav","null","audio-keyboard-response","371","212371","0.0-4.0-1.0","",""
"null","sound/msl/clock.wav","null","audio-keyboard-response","372","212920","0.0-4.0-2.0","",""
"null","sound/asl/silence.wav","null","audio-keyboard-response","373","213423","0.0-4.0-3.0","",""
"null","sound/msl/cat.wav","null","audio-keyboard-response","374","213921","0.0-4.0-4.0","",""
"null","sound/msl/frog.wav","null","audio-keyboard-response","375","214431","0.0-4.0-5.0","",""
"null","sound/msl/clock.wav","null","audio-keyboard-response","376","214981","0.0-4.0-6.0","",""
"541","sound/asl/silence.wav","49","audio-keyboard-response","377","215527","0.0-4.0-7.0","true",""
"null","sound/msl/door.wav","null","audio-keyboard-response","378","216031","0.0-5.0-0.0","",""
"null","sound/msl/frog.wav","null","audio-keyboard-response","379","216530","0.0-5.0-1.0","",""
"null","sound/msl/cow.wav","null","audio-keyboard-response","380","217040","0.0-5.0-2.0","",""
"null","sound/asl/silence.wav","null","audio-keyboard-response","381","217542","0.0-5.0-3.0","",""
"null","sound/msl/door.wav","null","audio-keyboard-response","382","218040","0.0-5.0-4.0","",""
"null","sound/msl/organ.wav","null","audio-keyboard-response","383","218541","0.0-5.0-5.0","",""
"null","sound/msl/dog.wav","null","audio-keyboard-response","384","219040","0.0-5.0-6.0","",""
"1229","sound/asl/silence.wav","49","audio-keyboard-response","385","220274","0.0-5.0-7.0","true",""
"null","sound/msl/door.wav","null","audio-keyboard-response","386","220770","0.0-6.0-0.0","",""
"null","sound/msl/frog.wav","null","audio-keyboard-response","387","221280","0.0-6.0-1.0","",""
"null","sound/msl/cow.wav","null","audio-keyboard-response","388","221791","0.0-6.0-2.0","",""
"null","sound/asl/silence.wav","null","audio-keyboard-response","389","222292","0.0-6.0-3.0","",""
"null","sound/msl/cat.wav","null","audio-keyboard-response","390","222790","0.0-6.0-4.0","",""
"null","sound/msl/frog.wav","null","audio-keyboard-response","391","223291","0.0-6.0-5.0","",""
"null","sound/msl/clock.wav","null","audio-keyboard-response","392","223841","0.0-6.0-6.0","",""
"739","sound/asl/silence.wav","49","audio-keyboard-response","393","224585","0.0-6.0-7.0","true",""
"null","sound/msl/bird.wav","null","audio-keyboard-response","394","225081","0.0-7.0-0.0","",""
"null","sound/msl/boing.wav","null","audio-keyboard-response","395","225581","0.0-7.0-1.0","",""
"null","sound/msl/door_bell.wav","null","audio-keyboard-response","396","226081","0.0-7.0-2.0","",""
"null","sound/asl/silence.wav","null","audio-keyboard-response","397","226583","0.0-7.0-3.0","",""
"null","sound/msl/cat.wav","null","audio-keyboard-response","398","227082","0.0-7.0-4.0","",""
"null","sound/msl/duck.wav","null","audio-keyboard-response","399","227591","0.0-7.0-5.0","",""
"null","sound/msl/goat.wav","null","audio-keyboard-response","400","228130","0.0-7.0-6.0","",""
"619","sound/asl/silence.wav","50","audio-keyboard-response","401","228760","0.0-7.0-7.0","true",""
"null","sound/msl/door.wav","null","audio-keyboard-response","402","229261","0.0-8.0-0.0","",""
"null","sound/msl/organ.wav","null","audio-keyboard-response","403","229760","0.0-8.0-1.0","",""
"null","sound/msl/dog.wav","null","audio-keyboard-response","404","230272","0.0-8.0-2.0","",""
"null","sound/asl/silence.wav","null","audio-keyboard-response","405","230773","0.0-8.0-3.0","",""
"null","sound/msl/cat.wav","null","audio-keyboard-response","406","231271","0.0-8.0-4.0","",""
"null","sound/msl/duck.wav","null","audio-keyboard-response","407","231771","0.0-8.0-5.0","",""
"null","sound/msl/goat.wav","null","audio-keyboard-response","408","232311","0.0-8.0-6.0","",""
"411","sound/asl/silence.wav","50","audio-keyboard-response","409","232721","0.0-8.0-7.0","true",""
"null","sound/msl/cat.wav","null","audio-keyboard-response","410","233221","0.0-9.0-0.0","",""
"null","sound/msl/frog.wav","null","audio-keyboard-response","411","233721","0.0-9.0-1.0","",""
"null","sound/msl/clock.wav","null","audio-keyboard-response","412","234271","0.0-9.0-2.0","",""
"null","sound/asl/silence.wav","null","audio-keyboard-response","413","234773","0.0-9.0-3.0","",""
"null","sound/msl/Water.wav","null","audio-keyboard-response","414","235281","0.0-9.0-4.0","",""
"null","sound/msl/slide_whistle.wav","null","audio-keyboard-response","415","235781","0.0-9.0-5.0","",""
"null","sound/msl/door_bell.wav","null","audio-keyboard-response","416","236281","0.0-9.0-6.0","",""
"309","sound/asl/silence.wav","49","audio-keyboard-response","417","236598","0.0-9.0-7.0","false",""
"null","sound/msl/door.wav","null","audio-keyboard-response","418","237091","0.0-10.0-0.0","",""
"null","sound/msl/organ.wav","null","audio-keyboard-response","419","237592","0.0-10.0-1.0","",""
"null","sound/msl/dog.wav","null","audio-keyboard-response","420","238090","0.0-10.0-2.0","",""
"null","sound/asl/silence.wav","null","audio-keyboard-response","421","238593","0.0-10.0-3.0","",""
"null","sound/msl/bird.wav","null","audio-keyboard-response","422","239090","0.0-10.0-4.0","",""
"null","sound/msl/organ.wav","null","audio-keyboard-response","423","239591","0.0-10.0-5.0","",""
"null","sound/msl/clock.wav","null","audio-keyboard-response","424","240140","0.0-10.0-6.0","",""
"541","sound/asl/silence.wav","50","audio-keyboard-response","425","240687","0.0-10.0-7.0","true",""
"null","sound/msl/Water.wav","null","audio-keyboard-response","426","241190","0.0-11.0-0.0","",""
"null","sound/msl/slide_whistle.wav","null","audio-keyboard-response","427","241692","0.0-11.0-1.0","",""
"null","sound/msl/door_bell.wav","null","audio-keyboard-response","428","242200","0.0-11.0-2.0","",""
"null","sound/asl/silence.wav","null","audio-keyboard-response","429","242702","0.0-11.0-3.0","",""
"null","sound/msl/Water.wav","null","audio-keyboard-response","430","243211","0.0-11.0-4.0","",""
"null","sound/msl/duck.wav","null","audio-keyboard-response","431","243721","0.0-11.0-5.0","",""
"null","sound/msl/cow.wav","null","audio-keyboard-response","432","244231","0.0-11.0-6.0","",""
"749","sound/asl/silence.wav","50","audio-keyboard-response","433","244981","0.0-11.0-7.0","false",""
"null","sound/msl/bird.wav","null","audio-keyboard-response","434","245480","0.0-12.0-0.0","",""
"null","sound/msl/organ.wav","null","audio-keyboard-response","435","245981","0.0-12.0-1.0","",""
"null","sound/msl/clock.wav","null","audio-keyboard-response","436","246531","0.0-12.0-2.0","",""
"null","sound/asl/silence.wav","null","audio-keyboard-response","437","247032","0.0-12.0-3.0","",""
"null","sound/msl/Water.wav","null","audio-keyboard-response","438","247541","0.0-12.0-4.0","",""
"null","sound/msl/duck.wav","null","audio-keyboard-response","439","248041","0.0-12.0-5.0","",""
"null","sound/msl/cow.wav","null","audio-keyboard-response","440","248550","0.0-12.0-6.0","",""
"581","sound/asl/silence.wav","49","audio-keyboard-response","441","249134","0.0-12.0-7.0","true",""
"null","sound/msl/bird.wav","null","audio-keyboard-response","442","249640","0.0-13.0-0.0","",""
"null","sound/msl/boing.wav","null","audio-keyboard-response","443","250140","0.0-13.0-1.0","",""
"null","sound/msl/door_bell.wav","null","audio-keyboard-response","444","250639","0.0-13.0-2.0","",""
"null","sound/asl/silence.wav","null","audio-keyboard-response","445","251142","0.0-13.0-3.0","",""
"null","sound/msl/bird.wav","null","audio-keyboard-response","446","251641","0.0-13.0-4.0","",""
"null","sound/msl/organ.wav","null","audio-keyboard-response","447","252142","0.0-13.0-5.0","",""
"null","sound/msl/clock.wav","null","audio-keyboard-response","448","252691","0.0-13.0-6.0","",""
"360","sound/asl/silence.wav","50","audio-keyboard-response","449","253050","0.0-13.0-7.0","true",""
"null","sound/msl/door.wav","null","audio-keyboard-response","450","253549","0.0-14.0-0.0","",""
"null","sound/msl/organ.wav","null","audio-keyboard-response","451","254049","0.0-14.0-1.0","",""
"null","sound/msl/dog.wav","null","audio-keyboard-response","452","254561","0.0-14.0-2.0","",""
"null","sound/asl/silence.wav","null","audio-keyboard-response","453","255062","0.0-14.0-3.0","",""
"null","sound/msl/ding.wav","null","audio-keyboard-response","454","255560","0.0-14.0-4.0","",""
"null","sound/msl/boing.wav","null","audio-keyboard-response","455","256060","0.0-14.0-5.0","",""
"null","sound/msl/dog.wav","null","audio-keyboard-response","456","256560","0.0-14.0-6.0","",""
"2000","sound/asl/silence.wav","49","audio-keyboard-response","457","258565","0.0-14.0-7.0","false",""
"null","sound/msl/cat.wav","null","audio-keyboard-response","458","259061","0.0-15.0-0.0","",""
"null","sound/msl/duck.wav","null","audio-keyboard-response","459","259560","0.0-15.0-1.0","",""
"null","sound/msl/goat.wav","null","audio-keyboard-response","460","260102","0.0-15.0-2.0","",""
"null","sound/asl/silence.wav","null","audio-keyboard-response","461","260603","0.0-15.0-3.0","",""
"null","sound/msl/ding.wav","null","audio-keyboard-response","462","261111","0.0-15.0-4.0","",""
"null","sound/msl/slide_whistle.wav","null","audio-keyboard-response","463","261611","0.0-15.0-5.0","",""
"null","sound/msl/goat.wav","null","audio-keyboard-response","464","262151","0.0-15.0-6.0","",""
"621","sound/asl/silence.wav","49","audio-keyboard-response","465","262779","0.0-15.0-7.0","true",""
"null","sound/msl/Water.wav","null","audio-keyboard-response","466","263291","0.0-16.0-0.0","",""
"null","sound/msl/slide_whistle.wav","null","audio-keyboard-response","467","263789","0.0-16.0-1.0","",""
"null","sound/msl/door_bell.wav","null","audio-keyboard-response","468","264291","0.0-16.0-2.0","",""
"null","sound/asl/silence.wav","null","audio-keyboard-response","469","264793","0.0-16.0-3.0","",""
"null","sound/msl/door.wav","null","audio-keyboard-response","470","265291","0.0-16.0-4.0","",""
"null","sound/msl/organ.wav","null","audio-keyboard-response","471","265791","0.0-16.0-5.0","",""
"null","sound/msl/dog.wav","null","audio-keyboard-response","472","266291","0.0-16.0-6.0","",""
"800","sound/asl/silence.wav","49","audio-keyboard-response","473","267094","0.0-16.0-7.0","true",""
"null","sound/msl/cat.wav","null","audio-keyboard-response","474","267591","0.0-17.0-0.0","",""
"null","sound/msl/duck.wav","null","audio-keyboard-response","475","268091","0.0-17.0-1.0","",""
"null","sound/msl/goat.wav","null","audio-keyboard-response","476","268630","0.0-17.0-2.0","",""
"null","sound/asl/silence.wav","null","audio-keyboard-response","477","269131","0.0-17.0-3.0","",""
"null","sound/msl/Water.wav","null","audio-keyboard-response","478","269640","0.0-17.0-4.0","",""
"null","sound/msl/duck.wav","null","audio-keyboard-response","479","270150","0.0-17.0-5.0","",""
"null","sound/msl/cow.wav","null","audio-keyboard-response","480","270650","0.0-17.0-6.0","",""
"429","sound/asl/silence.wav","49","audio-keyboard-response","481","271089","0.0-17.0-7.0","true",""
"null","sound/msl/door.wav","null","audio-keyboard-response","482","271580","0.0-18.0-0.0","",""
"null","sound/msl/frog.wav","null","audio-keyboard-response","483","272081","0.0-18.0-1.0","",""
"null","sound/msl/cow.wav","null","audio-keyboard-response","484","272590","0.0-18.0-2.0","",""
"null","sound/asl/silence.wav","null","audio-keyboard-response","485","273091","0.0-18.0-3.0","",""
"null","sound/msl/bird.wav","null","audio-keyboard-response","486","273599","0.0-18.0-4.0","",""
"null","sound/msl/boing.wav","null","audio-keyboard-response","487","274101","0.0-18.0-5.0","",""
"null","sound/msl/door_bell.wav","null","audio-keyboard-response","488","274601","0.0-18.0-6.0","",""
"469","sound/asl/silence.wav","49","audio-keyboard-response","489","275080","0.0-18.0-7.0","true",""
"null","sound/msl/bird.wav","null","audio-keyboard-response","490","275590","0.0-19.0-0.0","",""
"null","sound/msl/boing.wav","null","audio-keyboard-response","491","276090","0.0-19.0-1.0","",""
"null","sound/msl/door_bell.wav","null","audio-keyboard-response","492","276601","0.0-19.0-2.0","",""
"null","sound/asl/silence.wav","null","audio-keyboard-response","493","277102","0.0-19.0-3.0","",""
"null","sound/msl/ding.wav","null","audio-keyboard-response","494","277601","0.0-19.0-4.0","",""
"null","sound/msl/boing.wav","null","audio-keyboard-response","495","278100","0.0-19.0-5.0","",""
"null","sound/msl/dog.wav","null","audio-keyboard-response","496","278601","0.0-19.0-6.0","",""
"949","sound/asl/silence.wav","50","audio-keyboard-response","497","279554","0.0-19.0-7.0","true",""
"null","sound/msl/Water.wav","null","audio-keyboard-response","498","280061","0.0-20.0-0.0","",""
"null","sound/msl/duck.wav","null","audio-keyboard-response","499","280560","0.0-20.0-1.0","",""
"null","sound/msl/cow.wav","null","audio-keyboard-response","500","281070","0.0-20.0-2.0","",""
"null","sound/asl/silence.wav","null","audio-keyboard-response","501","281572","0.0-20.0-3.0","",""
"null","sound/msl/door.wav","null","audio-keyboard-response","502","282071","0.0-20.0-4.0","",""
"null","sound/msl/frog.wav","null","audio-keyboard-response","503","282570","0.0-20.0-5.0","",""
"null","sound/msl/cow.wav","null","audio-keyboard-response","504","283081","0.0-20.0-6.0","",""
"1291","sound/asl/silence.wav","50","audio-keyboard-response","505","284379","0.0-20.0-7.0","true",""
"null","sound/msl/bird.wav","null","audio-keyboard-response","506","284881","0.0-21.0-0.0","",""
"null","sound/msl/boing.wav","null","audio-keyboard-response","507","285381","0.0-21.0-1.0","",""
"null","sound/msl/door_bell.wav","null","audio-keyboard-response","508","285880","0.0-21.0-2.0","",""
"null","sound/asl/silence.wav","null","audio-keyboard-response","509","286382","0.0-21.0-3.0","",""
"null","sound/msl/Water.wav","null","audio-keyboard-response","510","286890","0.0-21.0-4.0","",""
"null","sound/msl/slide_whistle.wav","null","audio-keyboard-response","511","287390","0.0-21.0-5.0","",""
"null","sound/msl/door_bell.wav","null","audio-keyboard-response","512","287891","0.0-21.0-6.0","",""
"528","sound/asl/silence.wav","49","audio-keyboard-response","513","288421","0.0-21.0-7.0","false",""
"null","sound/msl/ding.wav","null","audio-keyboard-response","514","288920","0.0-22.0-0.0","",""
"null","sound/msl/boing.wav","null","audio-keyboard-response","515","289421","0.0-22.0-1.0","",""
"null","sound/msl/dog.wav","null","audio-keyboard-response","516","289920","0.0-22.0-2.0","",""
"null","sound/asl/silence.wav","null","audio-keyboard-response","517","290421","0.0-22.0-3.0","",""
"null","sound/msl/Water.wav","null","audio-keyboard-response","518","290930","0.0-22.0-4.0","",""
"null","sound/msl/duck.wav","null","audio-keyboard-response","519","291440","0.0-22.0-5.0","",""
"null","sound/msl/cow.wav","null","audio-keyboard-response","520","291951","0.0-22.0-6.0","",""
"509","sound/asl/silence.wav","50","audio-keyboard-response","521","292463","0.0-22.0-7.0","false",""
"null","sound/msl/ding.wav","null","audio-keyboard-response","522","292961","0.0-23.0-0.0","",""
"null","sound/msl/slide_whistle.wav","null","audio-keyboard-response","523","293461","0.0-23.0-1.0","",""
"null","sound/msl/goat.wav","null","audio-keyboard-response","524","294001","0.0-23.0-2.0","",""
"null","sound/asl/silence.wav","null","audio-keyboard-response","525","294502","0.0-23.0-3.0","",""
"null","sound/msl/door.wav","null","audio-keyboard-response","526","295000","0.0-23.0-4.0","",""
"null","sound/msl/frog.wav","null","audio-keyboard-response","527","295510","0.0-23.0-5.0","",""
"null","sound/msl/cow.wav","null","audio-keyboard-response","528","296011","0.0-23.0-6.0","",""
"600","sound/asl/silence.wav","50","audio-keyboard-response","529","296610","0.0-23.0-7.0","true",""
"null","sound/msl/cat.wav","null","audio-keyboard-response","530","297111","0.0-24.0-0.0","",""
"null","sound/msl/frog.wav","null","audio-keyboard-response","531","297610","0.0-24.0-1.0","",""
"null","sound/msl/clock.wav","null","audio-keyboard-response","532","298161","0.0-24.0-2.0","",""
"null","sound/asl/silence.wav","null","audio-keyboard-response","533","298662","0.0-24.0-3.0","",""
"null","sound/msl/cat.wav","null","audio-keyboard-response","534","299160","0.0-24.0-4.0","",""
"null","sound/msl/duck.wav","null","audio-keyboard-response","535","299671","0.0-24.0-5.0","",""
"null","sound/msl/goat.wav","null","audio-keyboard-response","536","300211","0.0-24.0-6.0","",""
"320","sound/asl/silence.wav","49","audio-keyboard-response","537","300534","0.0-24.0-7.0","false",""
"null","sound/msl/cat.wav","null","audio-keyboard-response","538","301031","0.0-25.0-0.0","",""
"null","sound/msl/frog.wav","null","audio-keyboard-response","539","301531","0.0-25.0-1.0","",""
"null","sound/msl/clock.wav","null","audio-keyboard-response","540","302081","0.0-25.0-2.0","",""
"null","sound/asl/silence.wav","null","audio-keyboard-response","541","302583","0.0-25.0-3.0","",""
"null","sound/msl/ding.wav","null","audio-keyboard-response","542","303081","0.0-25.0-4.0","",""
"null","sound/msl/boing.wav","null","audio-keyboard-response","543","303581","0.0-25.0-5.0","",""
"null","sound/msl/dog.wav","null","audio-keyboard-response","544","304081","0.0-25.0-6.0","",""
"659","sound/asl/silence.wav","49","audio-keyboard-response","545","304746","0.0-25.0-7.0","false",""
"null","sound/msl/ding.wav","null","audio-keyboard-response","546","305241","0.0-26.0-0.0","",""
"null","sound/msl/boing.wav","null","audio-keyboard-response","547","305741","0.0-26.0-1.0","",""
"null","sound/msl/dog.wav","null","audio-keyboard-response","548","306241","0.0-26.0-2.0","",""
"null","sound/asl/silence.wav","null","audio-keyboard-response","549","306741","0.0-26.0-3.0","",""
"null","sound/msl/ding.wav","null","audio-keyboard-response","550","307240","0.0-26.0-4.0","",""
"null","sound/msl/slide_whistle.wav","null","audio-keyboard-response","551","307741","0.0-26.0-5.0","",""
"null","sound/msl/goat.wav","null","audio-keyboard-response","552","308281","0.0-26.0-6.0","",""
"349","sound/asl/silence.wav","50","audio-keyboard-response","553","308640","0.0-26.0-7.0","false",""
"null","sound/msl/Water.wav","null","audio-keyboard-response","554","309151","0.0-27.0-0.0","",""
"null","sound/msl/slide_whistle.wav","null","audio-keyboard-response","555","309652","0.0-27.0-1.0","",""
"null","sound/msl/door_bell.wav","null","audio-keyboard-response","556","310162","0.0-27.0-2.0","",""
"null","sound/asl/silence.wav","null","audio-keyboard-response","557","310664","0.0-27.0-3.0","",""
"null","sound/msl/ding.wav","null","audio-keyboard-response","558","311163","0.0-27.0-4.0","",""
"null","sound/msl/slide_whistle.wav","null","audio-keyboard-response","559","311661","0.0-27.0-5.0","",""
"null","sound/msl/goat.wav","null","audio-keyboard-response","560","312201","0.0-27.0-6.0","",""
"1320","sound/asl/silence.wav","49","audio-keyboard-response","561","313523","0.0-27.0-7.0","true",""
"3971","","","instructions","562","317495","0.0-28.0","","[{""page_index"":0,""viewing_time"":3970}]"
