"rt","stimulus","key_press","trial_type","trial_index","time_elapsed","internal_node_id","correct","view_history","responses"
"11472","backround.jpg","49","image-keyboard-response","0","11473","0.0-0.0","","",""
"null","sound/asl/5words_lanaguage.mp3","null","audio-keyboard-response","1","147031","0.0-1.0","","",""
"7276","Instructions2-eng.png","49","image-keyboard-response","2","154308","0.0-2.0","","",""
"null","sound/asl/nadime.wav","null","audio-keyboard-response","3","155510","0.0-3.0-0.0","","",""
"null","sound/asl/gedino.wav","null","audio-keyboard-response","4","156380","0.0-3.0-1.0","","",""
"699","sound/asl/silence.wav","50","audio-keyboard-response","5","157088","0.0-3.0-2.0","true","",""
"null","sound/asl/duloga.wav","null","audio-keyboard-response","6","158291","0.0-4.0-0.0","","",""
"null","sound/asl/gedino.wav","null","audio-keyboard-response","7","159159","0.0-4.0-1.0","","",""
"480","sound/asl/silence.wav","49","audio-keyboard-response","8","159644","0.0-4.0-2.0","false","",""
"null","sound/asl/duloga.wav","null","audio-keyboard-response","9","160846","0.0-5.0-0.0","","",""
"null","sound/asl/kimuga.wav","null","audio-keyboard-response","10","161680","0.0-5.0-1.0","","",""
"640","sound/asl/silence.wav","49","audio-keyboard-response","11","162323","0.0-5.0-2.0","false","",""
"null","sound/asl/tomubi.wav","null","audio-keyboard-response","12","163526","0.0-6.0-0.0","","",""
"null","sound/asl/nalobi.wav","null","audio-keyboard-response","13","164350","0.0-6.0-1.0","","",""
"1368","sound/asl/silence.wav","50","audio-keyboard-response","14","165728","0.0-6.0-2.0","true","",""
"null","sound/asl/nalobi.wav","null","audio-keyboard-response","15","166929","0.0-7.0-0.0","","",""
"null","sound/asl/kibeno.wav","null","audio-keyboard-response","16","167789","0.0-7.0-1.0","","",""
"1699","sound/asl/silence.wav","50","audio-keyboard-response","17","169493","0.0-7.0-2.0","false","",""
"null","sound/asl/tomubi.wav","null","audio-keyboard-response","18","170695","0.0-8.0-0.0","","",""
"null","sound/asl/kimuga.wav","null","audio-keyboard-response","19","171529","0.0-8.0-1.0","","",""
"891","sound/asl/silence.wav","50","audio-keyboard-response","20","172419","0.0-8.0-2.0","true","",""
"null","sound/asl/gedino.wav","null","audio-keyboard-response","21","173621","0.0-9.0-0.0","","",""
"null","sound/asl/gekalu.wav","null","audio-keyboard-response","22","174540","0.0-9.0-1.0","","",""
"760","sound/asl/silence.wav","49","audio-keyboard-response","23","175305","0.0-9.0-2.0","true","",""
"null","sound/asl/tomubi.wav","null","audio-keyboard-response","24","176506","0.0-10.0-0.0","","",""
"null","sound/asl/gedino.wav","null","audio-keyboard-response","25","177369","0.0-10.0-1.0","","",""
"640","sound/asl/silence.wav","49","audio-keyboard-response","26","178016","0.0-10.0-2.0","false","",""
"null","sound/asl/nadime.wav","null","audio-keyboard-response","27","179218","0.0-11.0-0.0","","",""
"null","sound/asl/tobelu.wav","null","audio-keyboard-response","28","180069","0.0-11.0-1.0","","",""
"589","sound/asl/silence.wav","50","audio-keyboard-response","29","180667","0.0-11.0-2.0","true","",""
"null","sound/asl/dukame.wav","null","audio-keyboard-response","30","181869","0.0-12.0-0.0","","",""
"null","sound/asl/duloga.wav","null","audio-keyboard-response","31","182709","0.0-12.0-1.0","","",""
"2339","sound/asl/silence.wav","49","audio-keyboard-response","32","185055","0.0-12.0-2.0","true","",""
"null","sound/asl/tobelu.wav","null","audio-keyboard-response","33","186256","0.0-13.0-0.0","","",""
"null","sound/asl/gekalu.wav","null","audio-keyboard-response","34","187170","0.0-13.0-1.0","","",""
"1061","sound/asl/silence.wav","49","audio-keyboard-response","35","188231","0.0-13.0-2.0","true","",""
"null","sound/asl/nalobi.wav","null","audio-keyboard-response","36","189432","0.0-14.0-0.0","","",""
"null","sound/asl/gekalu.wav","null","audio-keyboard-response","37","190349","0.0-14.0-1.0","","",""
"389","sound/asl/silence.wav","49","audio-keyboard-response","38","190745","0.0-14.0-2.0","true","",""
"null","sound/asl/nadime.wav","null","audio-keyboard-response","39","191947","0.0-15.0-0.0","","",""
"null","sound/asl/kimuga.wav","null","audio-keyboard-response","40","192779","0.0-15.0-1.0","","",""
"659","sound/asl/silence.wav","50","audio-keyboard-response","41","193445","0.0-15.0-2.0","true","",""
"null","sound/asl/tomubi.wav","null","audio-keyboard-response","42","194646","0.0-16.0-0.0","","",""
"null","sound/asl/tobelu.wav","null","audio-keyboard-response","43","195500","0.0-16.0-1.0","","",""
"469","sound/asl/silence.wav","50","audio-keyboard-response","44","195976","0.0-16.0-2.0","true","",""
"null","sound/asl/nalobi.wav","null","audio-keyboard-response","45","197178","0.0-17.0-0.0","","",""
"null","sound/asl/duloga.wav","null","audio-keyboard-response","46","198010","0.0-17.0-1.0","","",""
"531","sound/asl/silence.wav","49","audio-keyboard-response","47","198543","0.0-17.0-2.0","true","",""
"null","sound/asl/tobelu.wav","null","audio-keyboard-response","48","199744","0.0-18.0-0.0","","",""
"null","sound/asl/kibeno.wav","null","audio-keyboard-response","49","200600","0.0-18.0-1.0","","",""
"1120","sound/asl/silence.wav","49","audio-keyboard-response","50","201725","0.0-18.0-2.0","true","",""
"null","sound/asl/nadime.wav","null","audio-keyboard-response","51","202926","0.0-19.0-0.0","","",""
"null","sound/asl/dukame.wav","null","audio-keyboard-response","52","203769","0.0-19.0-1.0","","",""
"520","sound/asl/silence.wav","49","audio-keyboard-response","53","204299","0.0-19.0-2.0","false","",""
"null","sound/asl/dukame.wav","null","audio-keyboard-response","54","205501","0.0-20.0-0.0","","",""
"null","sound/asl/kibeno.wav","null","audio-keyboard-response","55","206360","0.0-20.0-1.0","","",""
"531","sound/asl/silence.wav","50","audio-keyboard-response","56","206891","0.0-20.0-2.0","false","",""
"null","sound/asl/duloga.wav","null","audio-keyboard-response","57","208093","0.0-21.0-0.0","","",""
"null","sound/asl/tobelu.wav","null","audio-keyboard-response","58","208949","0.0-21.0-1.0","","",""
"1309","sound/asl/silence.wav","50","audio-keyboard-response","59","210267","0.0-21.0-2.0","true","",""
"null","sound/asl/kimuga.wav","null","audio-keyboard-response","60","211469","0.0-22.0-0.0","","",""
"null","sound/asl/kibeno.wav","null","audio-keyboard-response","61","212329","0.0-22.0-1.0","","",""
"429","sound/asl/silence.wav","49","audio-keyboard-response","62","212761","0.0-22.0-2.0","true","",""
"null","sound/asl/kimuga.wav","null","audio-keyboard-response","63","213963","0.0-23.0-0.0","","",""
"null","sound/asl/gekalu.wav","null","audio-keyboard-response","64","214879","0.0-23.0-1.0","","",""
"1240","sound/asl/silence.wav","49","audio-keyboard-response","65","216121","0.0-23.0-2.0","true","",""
"null","sound/asl/nalobi.wav","null","audio-keyboard-response","66","217323","0.0-24.0-0.0","","",""
"null","sound/asl/nadime.wav","null","audio-keyboard-response","67","218140","0.0-24.0-1.0","","",""
"629","sound/asl/silence.wav","49","audio-keyboard-response","68","218775","0.0-24.0-2.0","true","",""
"null","sound/asl/dukame.wav","null","audio-keyboard-response","69","219976","0.0-25.0-0.0","","",""
"null","sound/asl/gekalu.wav","null","audio-keyboard-response","70","220890","0.0-25.0-1.0","","",""
"1829","sound/asl/silence.wav","49","audio-keyboard-response","71","222727","0.0-25.0-2.0","true","",""
"null","sound/asl/gedino.wav","null","audio-keyboard-response","72","223929","0.0-26.0-0.0","","",""
"null","sound/asl/kibeno.wav","null","audio-keyboard-response","73","224789","0.0-26.0-1.0","","",""
"1120","sound/asl/silence.wav","49","audio-keyboard-response","74","225916","0.0-26.0-2.0","true","",""
"null","sound/asl/tomubi.wav","null","audio-keyboard-response","75","227119","0.0-27.0-0.0","","",""
"null","sound/asl/dukame.wav","null","audio-keyboard-response","76","227969","0.0-27.0-1.0","","",""
"1549","sound/asl/silence.wav","50","audio-keyboard-response","77","229528","0.0-27.0-2.0","true","",""
"3620","","","instructions","78","233149","0.0-28.0","","[{""page_index"":0,""viewing_time"":3620}]",""
"15991","","","survey-likert","79","249142","0.0-29.0","","","{""Q0"":2}"
"8319","","","survey-likert","80","257463","0.0-30.0","","","{""Q0"":2}"
"7494","","","survey-likert","81","264957","0.0-31.0","","","{""Q0"":2}"
"7023","","","survey-likert","82","271982","0.0-32.0","","","{""Q0"":1}"
"9503","","","survey-likert","83","281486","0.0-33.0","","","{""Q0"":4}"
"6119","","","survey-likert","84","287605","0.0-34.0","","","{""Q0"":3}"
"1384","","","instructions","85","288989","0.0-35.0","","[{""page_index"":0,""viewing_time"":1384}]",""
