"rt","stimulus","key_press","trial_type","trial_index","time_elapsed","internal_node_id","correct","view_history"
"4380","alien.jpg","49","image-keyboard-response","0","4383","0.0-0.0","",""
"null","sound/msl/duck.wav","null","audio-keyboard-response","1","4879","0.0-1.0-0.0","",""
"null","sound/msl/clock.wav","null","audio-keyboard-response","2","5429","0.0-1.0-1.0","",""
"null","sound/msl/bird.wav","null","audio-keyboard-response","3","5930","0.0-1.0-2.0","",""
"null","sound/msl/Water.wav","null","audio-keyboard-response","4","6440","0.0-1.0-3.0","",""
"null","sound/msl/boing.wav","null","audio-keyboard-response","5","6939","0.0-1.0-4.0","",""
"null","sound/msl/door_bell.wav","null","audio-keyboard-response","6","7439","0.0-1.0-5.0","",""
"null","sound/msl/cat.wav","null","audio-keyboard-response","7","7939","0.0-1.0-6.0","",""
"null","sound/msl/organ.wav","null","audio-keyboard-response","8","8439","0.0-1.0-7.0","",""
"null","sound/msl/frog.wav","null","audio-keyboard-response","9","8949","0.0-1.0-8.0","",""
"null","sound/msl/slide_whistle.wav","null","audio-keyboard-response","10","9450","0.0-1.0-9.0","",""
"null","sound/msl/cow.wav","null","audio-keyboard-response","11","9959","0.0-1.0-10.0","",""
"null","sound/msl/goat.wav","null","audio-keyboard-response","12","10499","0.0-1.0-11.0","",""
"null","sound/msl/Water.wav","null","audio-keyboard-response","13","11008","0.0-1.0-12.0","",""
"null","sound/msl/boing.wav","null","audio-keyboard-response","14","11509","0.0-1.0-13.0","",""
"null","sound/msl/door_bell.wav","null","audio-keyboard-response","15","12008","0.0-1.0-14.0","",""
"null","sound/msl/duck.wav","null","audio-keyboard-response","16","12519","0.0-1.0-15.0","",""
"null","sound/msl/clock.wav","null","audio-keyboard-response","17","13069","0.0-1.0-16.0","",""
"null","sound/msl/bird.wav","null","audio-keyboard-response","18","13569","0.0-1.0-17.0","",""
"null","sound/msl/dog.wav","null","audio-keyboard-response","19","14079","0.0-1.0-18.0","",""
"null","sound/msl/ding.wav","null","audio-keyboard-response","20","14589","0.0-1.0-19.0","",""
"null","sound/msl/door.wav","null","audio-keyboard-response","21","15089","0.0-1.0-20.0","",""
"null","sound/msl/slide_whistle.wav","null","audio-keyboard-response","22","15588","0.0-1.0-21.0","",""
"null","sound/msl/cow.wav","null","audio-keyboard-response","23","16089","0.0-1.0-22.0","",""
"null","sound/msl/goat.wav","null","audio-keyboard-response","24","16628","0.0-1.0-23.0","",""
"null","sound/msl/cat.wav","null","audio-keyboard-response","25","17129","0.0-1.0-24.0","",""
"null","sound/msl/organ.wav","null","audio-keyboard-response","26","17628","0.0-1.0-25.0","",""
"null","sound/msl/frog.wav","null","audio-keyboard-response","27","18129","0.0-1.0-26.0","",""
"null","sound/msl/duck.wav","null","audio-keyboard-response","28","18639","0.0-1.0-27.0","",""
"null","sound/msl/clock.wav","null","audio-keyboard-response","29","19189","0.0-1.0-28.0","",""
"null","sound/msl/bird.wav","null","audio-keyboard-response","30","19689","0.0-1.0-29.0","",""
"null","sound/msl/Water.wav","null","audio-keyboard-response","31","20199","0.0-1.0-30.0","",""
"null","sound/msl/boing.wav","null","audio-keyboard-response","32","20698","0.0-1.0-31.0","",""
"null","sound/msl/door_bell.wav","null","audio-keyboard-response","33","21199","0.0-1.0-32.0","",""
"null","sound/msl/dog.wav","null","audio-keyboard-response","34","21709","0.0-1.0-33.0","",""
"null","sound/msl/ding.wav","null","audio-keyboard-response","35","22208","0.0-1.0-34.0","",""
"null","sound/msl/door.wav","null","audio-keyboard-response","36","22709","0.0-1.0-35.0","",""
"null","sound/msl/cat.wav","null","audio-keyboard-response","37","23210","0.0-1.0-36.0","",""
"null","sound/msl/organ.wav","null","audio-keyboard-response","38","23709","0.0-1.0-37.0","",""
"null","sound/msl/frog.wav","null","audio-keyboard-response","39","24209","0.0-1.0-38.0","",""
"null","sound/msl/slide_whistle.wav","null","audio-keyboard-response","40","24709","0.0-1.0-39.0","",""
"null","sound/msl/cow.wav","null","audio-keyboard-response","41","25209","0.0-1.0-40.0","",""
"null","sound/msl/goat.wav","null","audio-keyboard-response","42","25748","0.0-1.0-41.0","",""
"null","sound/msl/dog.wav","null","audio-keyboard-response","43","26248","0.0-1.0-42.0","",""
"null","sound/msl/ding.wav","null","audio-keyboard-response","44","26758","0.0-1.0-43.0","",""
"null","sound/msl/door.wav","null","audio-keyboard-response","45","27258","0.0-1.0-44.0","",""
"null","sound/msl/Water.wav","null","audio-keyboard-response","46","27768","0.0-1.0-45.0","",""
"null","sound/msl/boing.wav","null","audio-keyboard-response","47","28268","0.0-1.0-46.0","",""
"null","sound/msl/door_bell.wav","null","audio-keyboard-response","48","28768","0.0-1.0-47.0","",""
"null","sound/msl/cat.wav","null","audio-keyboard-response","49","29268","0.0-1.0-48.0","",""
"null","sound/msl/organ.wav","null","audio-keyboard-response","50","29768","0.0-1.0-49.0","",""
"null","sound/msl/frog.wav","null","audio-keyboard-response","51","30278","0.0-1.0-50.0","",""
"null","sound/msl/duck.wav","null","audio-keyboard-response","52","30789","0.0-1.0-51.0","",""
"null","sound/msl/clock.wav","null","audio-keyboard-response","53","31339","0.0-1.0-52.0","",""
"null","sound/msl/bird.wav","null","audio-keyboard-response","54","31838","0.0-1.0-53.0","",""
"null","sound/msl/Water.wav","null","audio-keyboard-response","55","32349","0.0-1.0-54.0","",""
"null","sound/msl/boing.wav","null","audio-keyboard-response","56","32849","0.0-1.0-55.0","",""
"null","sound/msl/door_bell.wav","null","audio-keyboard-response","57","33358","0.0-1.0-56.0","",""
"null","sound/msl/cat.wav","null","audio-keyboard-response","58","33859","0.0-1.0-57.0","",""
"null","sound/msl/organ.wav","null","audio-keyboard-response","59","34358","0.0-1.0-58.0","",""
"null","sound/msl/frog.wav","null","audio-keyboard-response","60","34868","0.0-1.0-59.0","",""
"null","sound/msl/slide_whistle.wav","null","audio-keyboard-response","61","35368","0.0-1.0-60.0","",""
"null","sound/msl/cow.wav","null","audio-keyboard-response","62","35878","0.0-1.0-61.0","",""
"null","sound/msl/goat.wav","null","audio-keyboard-response","63","36418","0.0-1.0-62.0","",""
"null","sound/msl/dog.wav","null","audio-keyboard-response","64","36918","0.0-1.0-63.0","",""
"null","sound/msl/ding.wav","null","audio-keyboard-response","65","37429","0.0-1.0-64.0","",""
"null","sound/msl/door.wav","null","audio-keyboard-response","66","37928","0.0-1.0-65.0","",""
"null","sound/msl/Water.wav","null","audio-keyboard-response","67","38438","0.0-1.0-66.0","",""
"null","sound/msl/boing.wav","null","audio-keyboard-response","68","38939","0.0-1.0-67.0","",""
"null","sound/msl/door_bell.wav","null","audio-keyboard-response","69","39438","0.0-1.0-68.0","",""
"null","sound/msl/duck.wav","null","audio-keyboard-response","70","39949","0.0-1.0-69.0","",""
"null","sound/msl/clock.wav","null","audio-keyboard-response","71","40499","0.0-1.0-70.0","",""
"null","sound/msl/bird.wav","null","audio-keyboard-response","72","40998","0.0-1.0-71.0","",""
"null","sound/msl/cat.wav","null","audio-keyboard-response","73","41499","0.0-1.0-72.0","",""
"null","sound/msl/organ.wav","null","audio-keyboard-response","74","41998","0.0-1.0-73.0","",""
"null","sound/msl/frog.wav","null","audio-keyboard-response","75","42508","0.0-1.0-74.0","",""
"null","sound/msl/slide_whistle.wav","null","audio-keyboard-response","76","43009","0.0-1.0-75.0","",""
"null","sound/msl/cow.wav","null","audio-keyboard-response","77","43518","0.0-1.0-76.0","",""
"null","sound/msl/goat.wav","null","audio-keyboard-response","78","44058","0.0-1.0-77.0","",""
"null","sound/msl/cat.wav","null","audio-keyboard-response","79","44558","0.0-1.0-78.0","",""
"null","sound/msl/organ.wav","null","audio-keyboard-response","80","45059","0.0-1.0-79.0","",""
"null","sound/msl/frog.wav","null","audio-keyboard-response","81","45559","0.0-1.0-80.0","",""
"null","sound/msl/dog.wav","null","audio-keyboard-response","82","46068","0.0-1.0-81.0","",""
"null","sound/msl/ding.wav","null","audio-keyboard-response","83","46568","0.0-1.0-82.0","",""
"null","sound/msl/door.wav","null","audio-keyboard-response","84","47069","0.0-1.0-83.0","",""
"null","sound/msl/duck.wav","null","audio-keyboard-response","85","47569","0.0-1.0-84.0","",""
"null","sound/msl/clock.wav","null","audio-keyboard-response","86","48118","0.0-1.0-85.0","",""
"null","sound/msl/bird.wav","null","audio-keyboard-response","87","48629","0.0-1.0-86.0","",""
"null","sound/msl/Water.wav","null","audio-keyboard-response","88","49139","0.0-1.0-87.0","",""
"null","sound/msl/boing.wav","null","audio-keyboard-response","89","49639","0.0-1.0-88.0","",""
"null","sound/msl/door_bell.wav","null","audio-keyboard-response","90","50149","0.0-1.0-89.0","",""
"null","sound/msl/dog.wav","null","audio-keyboard-response","91","50649","0.0-1.0-90.0","",""
"null","sound/msl/ding.wav","null","audio-keyboard-response","92","51159","0.0-1.0-91.0","",""
"null","sound/msl/door.wav","null","audio-keyboard-response","93","51659","0.0-1.0-92.0","",""
"null","sound/msl/slide_whistle.wav","null","audio-keyboard-response","94","52158","0.0-1.0-93.0","",""
"null","sound/msl/cow.wav","null","audio-keyboard-response","95","52669","0.0-1.0-94.0","",""
"null","sound/msl/goat.wav","null","audio-keyboard-response","96","53208","0.0-1.0-95.0","",""
"null","sound/msl/cat.wav","null","audio-keyboard-response","97","53708","0.0-1.0-96.0","",""
"null","sound/msl/organ.wav","null","audio-keyboard-response","98","54208","0.0-1.0-97.0","",""
"null","sound/msl/frog.wav","null","audio-keyboard-response","99","54719","0.0-1.0-98.0","",""
"null","sound/msl/Water.wav","null","audio-keyboard-response","100","55229","0.0-1.0-99.0","",""
"null","sound/msl/boing.wav","null","audio-keyboard-response","101","55729","0.0-1.0-100.0","",""
"null","sound/msl/door_bell.wav","null","audio-keyboard-response","102","56238","0.0-1.0-101.0","",""
"null","sound/msl/dog.wav","null","audio-keyboard-response","103","56749","0.0-1.0-102.0","",""
"null","sound/msl/ding.wav","null","audio-keyboard-response","104","57249","0.0-1.0-103.0","",""
"null","sound/msl/door.wav","null","audio-keyboard-response","105","57749","0.0-1.0-104.0","",""
"null","sound/msl/duck.wav","null","audio-keyboard-response","106","58248","0.0-1.0-105.0","",""
"null","sound/msl/clock.wav","null","audio-keyboard-response","107","58799","0.0-1.0-106.0","",""
"null","sound/msl/bird.wav","null","audio-keyboard-response","108","59309","0.0-1.0-107.0","",""
"null","sound/msl/Water.wav","null","audio-keyboard-response","109","59818","0.0-1.0-108.0","",""
"null","sound/msl/boing.wav","null","audio-keyboard-response","110","60318","0.0-1.0-109.0","",""
"null","sound/msl/door_bell.wav","null","audio-keyboard-response","111","60828","0.0-1.0-110.0","",""
"null","sound/msl/slide_whistle.wav","null","audio-keyboard-response","112","61329","0.0-1.0-111.0","",""
"null","sound/msl/cow.wav","null","audio-keyboard-response","113","61838","0.0-1.0-112.0","",""
"null","sound/msl/goat.wav","null","audio-keyboard-response","114","62378","0.0-1.0-113.0","",""
"null","sound/msl/dog.wav","null","audio-keyboard-response","115","62878","0.0-1.0-114.0","",""
"null","sound/msl/ding.wav","null","audio-keyboard-response","116","63388","0.0-1.0-115.0","",""
"null","sound/msl/door.wav","null","audio-keyboard-response","117","63888","0.0-1.0-116.0","",""
"null","sound/msl/cat.wav","null","audio-keyboard-response","118","64388","0.0-1.0-117.0","",""
"null","sound/msl/organ.wav","null","audio-keyboard-response","119","64888","0.0-1.0-118.0","",""
"null","sound/msl/frog.wav","null","audio-keyboard-response","120","65399","0.0-1.0-119.0","",""
"null","sound/msl/duck.wav","null","audio-keyboard-response","121","65908","0.0-1.0-120.0","",""
"null","sound/msl/clock.wav","null","audio-keyboard-response","122","66458","0.0-1.0-121.0","",""
"null","sound/msl/bird.wav","null","audio-keyboard-response","123","66959","0.0-1.0-122.0","",""
"null","sound/msl/Water.wav","null","audio-keyboard-response","124","67468","0.0-1.0-123.0","",""
"null","sound/msl/boing.wav","null","audio-keyboard-response","125","67969","0.0-1.0-124.0","",""
"null","sound/msl/door_bell.wav","null","audio-keyboard-response","126","68479","0.0-1.0-125.0","",""
"null","sound/msl/dog.wav","null","audio-keyboard-response","127","68988","0.0-1.0-126.0","",""
"null","sound/msl/ding.wav","null","audio-keyboard-response","128","69489","0.0-1.0-127.0","",""
"null","sound/msl/door.wav","null","audio-keyboard-response","129","69988","0.0-1.0-128.0","",""
"null","sound/msl/slide_whistle.wav","null","audio-keyboard-response","130","70489","0.0-1.0-129.0","",""
"null","sound/msl/cow.wav","null","audio-keyboard-response","131","70998","0.0-1.0-130.0","",""
"null","sound/msl/goat.wav","null","audio-keyboard-response","132","71538","0.0-1.0-131.0","",""
"null","sound/msl/Water.wav","null","audio-keyboard-response","133","72048","0.0-1.0-132.0","",""
"null","sound/msl/boing.wav","null","audio-keyboard-response","134","72549","0.0-1.0-133.0","",""
"null","sound/msl/door_bell.wav","null","audio-keyboard-response","135","73048","0.0-1.0-134.0","",""
"null","sound/msl/cat.wav","null","audio-keyboard-response","136","73548","0.0-1.0-135.0","",""
"null","sound/msl/organ.wav","null","audio-keyboard-response","137","74048","0.0-1.0-136.0","",""
"null","sound/msl/frog.wav","null","audio-keyboard-response","138","74558","0.0-1.0-137.0","",""
"null","sound/msl/slide_whistle.wav","null","audio-keyboard-response","139","75058","0.0-1.0-138.0","",""
"null","sound/msl/cow.wav","null","audio-keyboard-response","140","75559","0.0-1.0-139.0","",""
"null","sound/msl/goat.wav","null","audio-keyboard-response","141","76099","0.0-1.0-140.0","",""
"null","sound/msl/duck.wav","null","audio-keyboard-response","142","76598","0.0-1.0-141.0","",""
"null","sound/msl/clock.wav","null","audio-keyboard-response","143","77148","0.0-1.0-142.0","",""
"null","sound/msl/bird.wav","null","audio-keyboard-response","144","77648","0.0-1.0-143.0","",""
"null","sound/msl/dog.wav","null","audio-keyboard-response","145","78159","0.0-1.0-144.0","",""
"null","sound/msl/ding.wav","null","audio-keyboard-response","146","78668","0.0-1.0-145.0","",""
"null","sound/msl/door.wav","null","audio-keyboard-response","147","79169","0.0-1.0-146.0","",""
"null","sound/msl/cat.wav","null","audio-keyboard-response","148","79669","0.0-1.0-147.0","",""
"null","sound/msl/organ.wav","null","audio-keyboard-response","149","80169","0.0-1.0-148.0","",""
"null","sound/msl/frog.wav","null","audio-keyboard-response","150","80679","0.0-1.0-149.0","",""
"null","sound/msl/duck.wav","null","audio-keyboard-response","151","81189","0.0-1.0-150.0","",""
"null","sound/msl/clock.wav","null","audio-keyboard-response","152","81739","0.0-1.0-151.0","",""
"null","sound/msl/bird.wav","null","audio-keyboard-response","153","82238","0.0-1.0-152.0","",""
"null","sound/msl/Water.wav","null","audio-keyboard-response","154","82748","0.0-1.0-153.0","",""
"null","sound/msl/boing.wav","null","audio-keyboard-response","155","83249","0.0-1.0-154.0","",""
"null","sound/msl/door_bell.wav","null","audio-keyboard-response","156","83759","0.0-1.0-155.0","",""
"null","sound/msl/slide_whistle.wav","null","audio-keyboard-response","157","84258","0.0-1.0-156.0","",""
"null","sound/msl/cow.wav","null","audio-keyboard-response","158","84759","0.0-1.0-157.0","",""
"null","sound/msl/goat.wav","null","audio-keyboard-response","159","85298","0.0-1.0-158.0","",""
"null","sound/msl/dog.wav","null","audio-keyboard-response","160","85798","0.0-1.0-159.0","",""
"null","sound/msl/ding.wav","null","audio-keyboard-response","161","86309","0.0-1.0-160.0","",""
"null","sound/msl/door.wav","null","audio-keyboard-response","162","86809","0.0-1.0-161.0","",""
"null","sound/msl/Water.wav","null","audio-keyboard-response","163","87318","0.0-1.0-162.0","",""
"null","sound/msl/boing.wav","null","audio-keyboard-response","164","87818","0.0-1.0-163.0","",""
"null","sound/msl/door_bell.wav","null","audio-keyboard-response","165","88318","0.0-1.0-164.0","",""
"null","sound/msl/slide_whistle.wav","null","audio-keyboard-response","166","88819","0.0-1.0-165.0","",""
"null","sound/msl/cow.wav","null","audio-keyboard-response","167","89318","0.0-1.0-166.0","",""
"null","sound/msl/goat.wav","null","audio-keyboard-response","168","89859","0.0-1.0-167.0","",""
"null","sound/msl/duck.wav","null","audio-keyboard-response","169","90359","0.0-1.0-168.0","",""
"null","sound/msl/clock.wav","null","audio-keyboard-response","170","90909","0.0-1.0-169.0","",""
"null","sound/msl/bird.wav","null","audio-keyboard-response","171","91409","0.0-1.0-170.0","",""
"null","sound/msl/cat.wav","null","audio-keyboard-response","172","91909","0.0-1.0-171.0","",""
"null","sound/msl/organ.wav","null","audio-keyboard-response","173","92408","0.0-1.0-172.0","",""
"null","sound/msl/frog.wav","null","audio-keyboard-response","174","92918","0.0-1.0-173.0","",""
"null","sound/msl/dog.wav","null","audio-keyboard-response","175","93429","0.0-1.0-174.0","",""
"null","sound/msl/ding.wav","null","audio-keyboard-response","176","93928","0.0-1.0-175.0","",""
"null","sound/msl/door.wav","null","audio-keyboard-response","177","94429","0.0-1.0-176.0","",""
"null","sound/msl/Water.wav","null","audio-keyboard-response","178","94939","0.0-1.0-177.0","",""
"null","sound/msl/boing.wav","null","audio-keyboard-response","179","95438","0.0-1.0-178.0","",""
"null","sound/msl/door_bell.wav","null","audio-keyboard-response","180","95949","0.0-1.0-179.0","",""
"null","sound/msl/cat.wav","null","audio-keyboard-response","181","96448","0.0-1.0-180.0","",""
"null","sound/msl/organ.wav","null","audio-keyboard-response","182","96949","0.0-1.0-181.0","",""
"null","sound/msl/frog.wav","null","audio-keyboard-response","183","97449","0.0-1.0-182.0","",""
"null","sound/msl/slide_whistle.wav","null","audio-keyboard-response","184","97948","0.0-1.0-183.0","",""
"null","sound/msl/cow.wav","null","audio-keyboard-response","185","98448","0.0-1.0-184.0","",""
"null","sound/msl/goat.wav","null","audio-keyboard-response","186","98989","0.0-1.0-185.0","",""
"null","sound/msl/duck.wav","null","audio-keyboard-response","187","99489","0.0-1.0-186.0","",""
"null","sound/msl/clock.wav","null","audio-keyboard-response","188","100038","0.0-1.0-187.0","",""
"null","sound/msl/bird.wav","null","audio-keyboard-response","189","100548","0.0-1.0-188.0","",""
"null","sound/msl/dog.wav","null","audio-keyboard-response","190","101048","0.0-1.0-189.0","",""
"null","sound/msl/ding.wav","null","audio-keyboard-response","191","101559","0.0-1.0-190.0","",""
"null","sound/msl/door.wav","null","audio-keyboard-response","192","102058","0.0-1.0-191.0","",""
"null","sound/msl/Water.wav","null","audio-keyboard-response","193","102568","0.0-1.0-192.0","",""
"null","sound/msl/boing.wav","null","audio-keyboard-response","194","103068","0.0-1.0-193.0","",""
"null","sound/msl/door_bell.wav","null","audio-keyboard-response","195","103569","0.0-1.0-194.0","",""
"null","sound/msl/cat.wav","null","audio-keyboard-response","196","104068","0.0-1.0-195.0","",""
"null","sound/msl/organ.wav","null","audio-keyboard-response","197","104568","0.0-1.0-196.0","",""
"null","sound/msl/frog.wav","null","audio-keyboard-response","198","105078","0.0-1.0-197.0","",""
"null","sound/msl/duck.wav","null","audio-keyboard-response","199","105588","0.0-1.0-198.0","",""
"null","sound/msl/clock.wav","null","audio-keyboard-response","200","106139","0.0-1.0-199.0","",""
"null","sound/msl/bird.wav","null","audio-keyboard-response","201","106638","0.0-1.0-200.0","",""
"null","sound/msl/slide_whistle.wav","null","audio-keyboard-response","202","107138","0.0-1.0-201.0","",""
"null","sound/msl/cow.wav","null","audio-keyboard-response","203","107639","0.0-1.0-202.0","",""
"null","sound/msl/goat.wav","null","audio-keyboard-response","204","108179","0.0-1.0-203.0","",""
"null","sound/msl/dog.wav","null","audio-keyboard-response","205","108679","0.0-1.0-204.0","",""
"null","sound/msl/ding.wav","null","audio-keyboard-response","206","109189","0.0-1.0-205.0","",""
"null","sound/msl/door.wav","null","audio-keyboard-response","207","109689","0.0-1.0-206.0","",""
"null","sound/msl/Water.wav","null","audio-keyboard-response","208","110198","0.0-1.0-207.0","",""
"null","sound/msl/boing.wav","null","audio-keyboard-response","209","110698","0.0-1.0-208.0","",""
"null","sound/msl/door_bell.wav","null","audio-keyboard-response","210","111198","0.0-1.0-209.0","",""
"null","sound/msl/duck.wav","null","audio-keyboard-response","211","111708","0.0-1.0-210.0","",""
"null","sound/msl/clock.wav","null","audio-keyboard-response","212","112258","0.0-1.0-211.0","",""
"null","sound/msl/bird.wav","null","audio-keyboard-response","213","112759","0.0-1.0-212.0","",""
"null","sound/msl/dog.wav","null","audio-keyboard-response","214","113268","0.0-1.0-213.0","",""
"null","sound/msl/ding.wav","null","audio-keyboard-response","215","113769","0.0-1.0-214.0","",""
"null","sound/msl/door.wav","null","audio-keyboard-response","216","114268","0.0-1.0-215.0","",""
"null","sound/msl/cat.wav","null","audio-keyboard-response","217","114768","0.0-1.0-216.0","",""
"null","sound/msl/organ.wav","null","audio-keyboard-response","218","115269","0.0-1.0-217.0","",""
"null","sound/msl/frog.wav","null","audio-keyboard-response","219","115769","0.0-1.0-218.0","",""
"null","sound/msl/slide_whistle.wav","null","audio-keyboard-response","220","116269","0.0-1.0-219.0","",""
"null","sound/msl/cow.wav","null","audio-keyboard-response","221","116769","0.0-1.0-220.0","",""
"null","sound/msl/goat.wav","null","audio-keyboard-response","222","117308","0.0-1.0-221.0","",""
"null","sound/msl/Water.wav","null","audio-keyboard-response","223","117818","0.0-1.0-222.0","",""
"null","sound/msl/boing.wav","null","audio-keyboard-response","224","118318","0.0-1.0-223.0","",""
"null","sound/msl/door_bell.wav","null","audio-keyboard-response","225","118828","0.0-1.0-224.0","",""
"null","sound/msl/cat.wav","null","audio-keyboard-response","226","119328","0.0-1.0-225.0","",""
"null","sound/msl/organ.wav","null","audio-keyboard-response","227","119828","0.0-1.0-226.0","",""
"null","sound/msl/frog.wav","null","audio-keyboard-response","228","120329","0.0-1.0-227.0","",""
"null","sound/msl/dog.wav","null","audio-keyboard-response","229","120838","0.0-1.0-228.0","",""
"null","sound/msl/ding.wav","null","audio-keyboard-response","230","121348","0.0-1.0-229.0","",""
"null","sound/msl/door.wav","null","audio-keyboard-response","231","121848","0.0-1.0-230.0","",""
"null","sound/msl/cat.wav","null","audio-keyboard-response","232","122348","0.0-1.0-231.0","",""
"null","sound/msl/organ.wav","null","audio-keyboard-response","233","122848","0.0-1.0-232.0","",""
"null","sound/msl/frog.wav","null","audio-keyboard-response","234","123359","0.0-1.0-233.0","",""
"null","sound/msl/Water.wav","null","audio-keyboard-response","235","123868","0.0-1.0-234.0","",""
"null","sound/msl/boing.wav","null","audio-keyboard-response","236","124368","0.0-1.0-235.0","",""
"null","sound/msl/door_bell.wav","null","audio-keyboard-response","237","124878","0.0-1.0-236.0","",""
"null","sound/msl/slide_whistle.wav","null","audio-keyboard-response","238","125379","0.0-1.0-237.0","",""
"null","sound/msl/cow.wav","null","audio-keyboard-response","239","125879","0.0-1.0-238.0","",""
"null","sound/msl/goat.wav","null","audio-keyboard-response","240","126418","0.0-1.0-239.0","",""
"null","sound/msl/duck.wav","null","audio-keyboard-response","241","126918","0.0-1.0-240.0","",""
"null","sound/msl/clock.wav","null","audio-keyboard-response","242","127469","0.0-1.0-241.0","",""
"null","sound/msl/bird.wav","null","audio-keyboard-response","243","127968","0.0-1.0-242.0","",""
"null","sound/msl/dog.wav","null","audio-keyboard-response","244","128478","0.0-1.0-243.0","",""
"null","sound/msl/ding.wav","null","audio-keyboard-response","245","128988","0.0-1.0-244.0","",""
"null","sound/msl/door.wav","null","audio-keyboard-response","246","129488","0.0-1.0-245.0","",""
"null","sound/msl/Water.wav","null","audio-keyboard-response","247","129998","0.0-1.0-246.0","",""
"null","sound/msl/boing.wav","null","audio-keyboard-response","248","130498","0.0-1.0-247.0","",""
"null","sound/msl/door_bell.wav","null","audio-keyboard-response","249","130998","0.0-1.0-248.0","",""
"null","sound/msl/slide_whistle.wav","null","audio-keyboard-response","250","131498","0.0-1.0-249.0","",""
"null","sound/msl/cow.wav","null","audio-keyboard-response","251","131999","0.0-1.0-250.0","",""
"null","sound/msl/goat.wav","null","audio-keyboard-response","252","132538","0.0-1.0-251.0","",""
"null","sound/msl/duck.wav","null","audio-keyboard-response","253","133038","0.0-1.0-252.0","",""
"null","sound/msl/clock.wav","null","audio-keyboard-response","254","133588","0.0-1.0-253.0","",""
"null","sound/msl/bird.wav","null","audio-keyboard-response","255","134088","0.0-1.0-254.0","",""
"null","sound/msl/cat.wav","null","audio-keyboard-response","256","134588","0.0-1.0-255.0","",""
"null","sound/msl/organ.wav","null","audio-keyboard-response","257","135088","0.0-1.0-256.0","",""
"null","sound/msl/frog.wav","null","audio-keyboard-response","258","135598","0.0-1.0-257.0","",""
"null","sound/msl/dog.wav","null","audio-keyboard-response","259","136108","0.0-1.0-258.0","",""
"null","sound/msl/ding.wav","null","audio-keyboard-response","260","136608","0.0-1.0-259.0","",""
"null","sound/msl/door.wav","null","audio-keyboard-response","261","137109","0.0-1.0-260.0","",""
"null","sound/msl/duck.wav","null","audio-keyboard-response","262","137609","0.0-1.0-261.0","",""
"null","sound/msl/clock.wav","null","audio-keyboard-response","263","138158","0.0-1.0-262.0","",""
"null","sound/msl/bird.wav","null","audio-keyboard-response","264","138668","0.0-1.0-263.0","",""
"null","sound/msl/slide_whistle.wav","null","audio-keyboard-response","265","139168","0.0-1.0-264.0","",""
"null","sound/msl/cow.wav","null","audio-keyboard-response","266","139678","0.0-1.0-265.0","",""
"null","sound/msl/goat.wav","null","audio-keyboard-response","267","140218","0.0-1.0-266.0","",""
"null","sound/msl/cat.wav","null","audio-keyboard-response","268","140718","0.0-1.0-267.0","",""
"null","sound/msl/organ.wav","null","audio-keyboard-response","269","141218","0.0-1.0-268.0","",""
"null","sound/msl/frog.wav","null","audio-keyboard-response","270","141719","0.0-1.0-269.0","",""
"null","sound/msl/Water.wav","null","audio-keyboard-response","271","142229","0.0-1.0-270.0","",""
"null","sound/msl/boing.wav","null","audio-keyboard-response","272","142728","0.0-1.0-271.0","",""
"null","sound/msl/door_bell.wav","null","audio-keyboard-response","273","143238","0.0-1.0-272.0","",""
"null","sound/msl/dog.wav","null","audio-keyboard-response","274","143748","0.0-1.0-273.0","",""
"null","sound/msl/ding.wav","null","audio-keyboard-response","275","144248","0.0-1.0-274.0","",""
"null","sound/msl/door.wav","null","audio-keyboard-response","276","144748","0.0-1.0-275.0","",""
"null","sound/msl/duck.wav","null","audio-keyboard-response","277","145248","0.0-1.0-276.0","",""
"null","sound/msl/clock.wav","null","audio-keyboard-response","278","145799","0.0-1.0-277.0","",""
"null","sound/msl/bird.wav","null","audio-keyboard-response","279","146308","0.0-1.0-278.0","",""
"null","sound/msl/slide_whistle.wav","null","audio-keyboard-response","280","146809","0.0-1.0-279.0","",""
"null","sound/msl/cow.wav","null","audio-keyboard-response","281","147318","0.0-1.0-280.0","",""
"null","sound/msl/goat.wav","null","audio-keyboard-response","282","147858","0.0-1.0-281.0","",""
"null","sound/msl/Water.wav","null","audio-keyboard-response","283","148368","0.0-1.0-282.0","",""
"null","sound/msl/boing.wav","null","audio-keyboard-response","284","148869","0.0-1.0-283.0","",""
"null","sound/msl/door_bell.wav","null","audio-keyboard-response","285","149368","0.0-1.0-284.0","",""
"null","sound/msl/cat.wav","null","audio-keyboard-response","286","149868","0.0-1.0-285.0","",""
"null","sound/msl/organ.wav","null","audio-keyboard-response","287","150368","0.0-1.0-286.0","",""
"null","sound/msl/frog.wav","null","audio-keyboard-response","288","150878","0.0-1.0-287.0","",""
"null","sound/msl/dog.wav","null","audio-keyboard-response","289","151388","0.0-1.0-288.0","",""
"null","sound/msl/ding.wav","null","audio-keyboard-response","290","151889","0.0-1.0-289.0","",""
"null","sound/msl/door.wav","null","audio-keyboard-response","291","152388","0.0-1.0-290.0","",""
"null","sound/msl/slide_whistle.wav","null","audio-keyboard-response","292","152888","0.0-1.0-291.0","",""
"null","sound/msl/cow.wav","null","audio-keyboard-response","293","153399","0.0-1.0-292.0","",""
"null","sound/msl/goat.wav","null","audio-keyboard-response","294","153938","0.0-1.0-293.0","",""
"null","sound/msl/duck.wav","null","audio-keyboard-response","295","154438","0.0-1.0-294.0","",""
"null","sound/msl/clock.wav","null","audio-keyboard-response","296","154988","0.0-1.0-295.0","",""
"null","sound/msl/bird.wav","null","audio-keyboard-response","297","155488","0.0-1.0-296.0","",""
"null","sound/msl/dog.wav","null","audio-keyboard-response","298","155998","0.0-1.0-297.0","",""
"null","sound/msl/ding.wav","null","audio-keyboard-response","299","156509","0.0-1.0-298.0","",""
"null","sound/msl/door.wav","null","audio-keyboard-response","300","157008","0.0-1.0-299.0","",""
"null","sound/msl/Water.wav","null","audio-keyboard-response","301","157519","0.0-1.0-300.0","",""
"null","sound/msl/boing.wav","null","audio-keyboard-response","302","158018","0.0-1.0-301.0","",""
"null","sound/msl/door_bell.wav","null","audio-keyboard-response","303","158519","0.0-1.0-302.0","",""
"null","sound/msl/slide_whistle.wav","null","audio-keyboard-response","304","159018","0.0-1.0-303.0","",""
"null","sound/msl/cow.wav","null","audio-keyboard-response","305","159519","0.0-1.0-304.0","",""
"null","sound/msl/goat.wav","null","audio-keyboard-response","306","160058","0.0-1.0-305.0","",""
"null","sound/msl/cat.wav","null","audio-keyboard-response","307","160558","0.0-1.0-306.0","",""
"null","sound/msl/organ.wav","null","audio-keyboard-response","308","161058","0.0-1.0-307.0","",""
"null","sound/msl/frog.wav","null","audio-keyboard-response","309","161558","0.0-1.0-308.0","",""
"null","sound/msl/duck.wav","null","audio-keyboard-response","310","162068","0.0-1.0-309.0","",""
"null","sound/msl/clock.wav","null","audio-keyboard-response","311","162618","0.0-1.0-310.0","",""
"null","sound/msl/bird.wav","null","audio-keyboard-response","312","163118","0.0-1.0-311.0","",""
"null","sound/msl/dog.wav","null","audio-keyboard-response","313","163628","0.0-1.0-312.0","",""
"null","sound/msl/ding.wav","null","audio-keyboard-response","314","164129","0.0-1.0-313.0","",""
"null","sound/msl/door.wav","null","audio-keyboard-response","315","164629","0.0-1.0-314.0","",""
"null","sound/msl/Water.wav","null","audio-keyboard-response","316","165139","0.0-1.0-315.0","",""
"null","sound/msl/boing.wav","null","audio-keyboard-response","317","165638","0.0-1.0-316.0","",""
"null","sound/msl/door_bell.wav","null","audio-keyboard-response","318","166149","0.0-1.0-317.0","",""
"null","sound/msl/slide_whistle.wav","null","audio-keyboard-response","319","166648","0.0-1.0-318.0","",""
"null","sound/msl/cow.wav","null","audio-keyboard-response","320","167159","0.0-1.0-319.0","",""
"null","sound/msl/goat.wav","null","audio-keyboard-response","321","167698","0.0-1.0-320.0","",""
"null","sound/msl/duck.wav","null","audio-keyboard-response","322","168198","0.0-1.0-321.0","",""
"null","sound/msl/clock.wav","null","audio-keyboard-response","323","168749","0.0-1.0-322.0","",""
"null","sound/msl/bird.wav","null","audio-keyboard-response","324","169249","0.0-1.0-323.0","",""
"null","sound/msl/Water.wav","null","audio-keyboard-response","325","169758","0.0-1.0-324.0","",""
"null","sound/msl/boing.wav","null","audio-keyboard-response","326","170258","0.0-1.0-325.0","",""
"null","sound/msl/door_bell.wav","null","audio-keyboard-response","327","170759","0.0-1.0-326.0","",""
"null","sound/msl/cat.wav","null","audio-keyboard-response","328","171258","0.0-1.0-327.0","",""
"null","sound/msl/organ.wav","null","audio-keyboard-response","329","171759","0.0-1.0-328.0","",""
"null","sound/msl/frog.wav","null","audio-keyboard-response","330","172268","0.0-1.0-329.0","",""
"null","sound/msl/dog.wav","null","audio-keyboard-response","331","172768","0.0-1.0-330.0","",""
"null","sound/msl/ding.wav","null","audio-keyboard-response","332","173278","0.0-1.0-331.0","",""
"null","sound/msl/door.wav","null","audio-keyboard-response","333","173779","0.0-1.0-332.0","",""
"null","sound/msl/slide_whistle.wav","null","audio-keyboard-response","334","174279","0.0-1.0-333.0","",""
"null","sound/msl/cow.wav","null","audio-keyboard-response","335","174789","0.0-1.0-334.0","",""
"null","sound/msl/goat.wav","null","audio-keyboard-response","336","175328","0.0-1.0-335.0","",""
"null","sound/msl/cat.wav","null","audio-keyboard-response","337","175829","0.0-1.0-336.0","",""
"null","sound/msl/organ.wav","null","audio-keyboard-response","338","176329","0.0-1.0-337.0","",""
"null","sound/msl/frog.wav","null","audio-keyboard-response","339","176839","0.0-1.0-338.0","",""
"null","sound/msl/duck.wav","null","audio-keyboard-response","340","177349","0.0-1.0-339.0","",""
"null","sound/msl/clock.wav","null","audio-keyboard-response","341","177899","0.0-1.0-340.0","",""
"null","sound/msl/bird.wav","null","audio-keyboard-response","342","178399","0.0-1.0-341.0","",""
"null","sound/msl/slide_whistle.wav","null","audio-keyboard-response","343","178899","0.0-1.0-342.0","",""
"null","sound/msl/cow.wav","null","audio-keyboard-response","344","179399","0.0-1.0-343.0","",""
"null","sound/msl/goat.wav","null","audio-keyboard-response","345","179939","0.0-1.0-344.0","",""
"null","sound/msl/duck.wav","null","audio-keyboard-response","346","180439","0.0-1.0-345.0","",""
"null","sound/msl/clock.wav","null","audio-keyboard-response","347","180989","0.0-1.0-346.0","",""
"null","sound/msl/bird.wav","null","audio-keyboard-response","348","181488","0.0-1.0-347.0","",""
"null","sound/msl/cat.wav","null","audio-keyboard-response","349","181989","0.0-1.0-348.0","",""
"null","sound/msl/organ.wav","null","audio-keyboard-response","350","182489","0.0-1.0-349.0","",""
"null","sound/msl/frog.wav","null","audio-keyboard-response","351","182998","0.0-1.0-350.0","",""
"null","sound/msl/dog.wav","null","audio-keyboard-response","352","183508","0.0-1.0-351.0","",""
"null","sound/msl/ding.wav","null","audio-keyboard-response","353","184009","0.0-1.0-352.0","",""
"null","sound/msl/door.wav","null","audio-keyboard-response","354","184509","0.0-1.0-353.0","",""
"null","sound/msl/slide_whistle.wav","null","audio-keyboard-response","355","185008","0.0-1.0-354.0","",""
"null","sound/msl/cow.wav","null","audio-keyboard-response","356","185519","0.0-1.0-355.0","",""
"null","sound/msl/goat.wav","null","audio-keyboard-response","357","186058","0.0-1.0-356.0","",""
"null","sound/msl/duck.wav","null","audio-keyboard-response","358","186559","0.0-1.0-357.0","",""
"null","sound/msl/clock.wav","null","audio-keyboard-response","359","187108","0.0-1.0-358.0","",""
"null","sound/msl/bird.wav","null","audio-keyboard-response","360","187608","0.0-1.0-359.0","",""
"4391","Instructions2-eng.png","49","image-keyboard-response","361","191999","0.0-2.0","",""
"null","sound/msl/dog.wav","null","audio-keyboard-response","362","192509","0.0-3.0-0.0","",""
"null","sound/msl/ding.wav","null","audio-keyboard-response","363","193008","0.0-3.0-1.0","",""
"null","sound/msl/door.wav","null","audio-keyboard-response","364","193509","0.0-3.0-2.0","",""
"null","sound/asl/silence.wav","null","audio-keyboard-response","365","194010","0.0-3.0-3.0","",""
"null","sound/msl/slide_whistle.wav","null","audio-keyboard-response","366","194509","0.0-3.0-4.0","",""
"null","sound/msl/ding.wav","null","audio-keyboard-response","367","195009","0.0-3.0-5.0","",""
"null","sound/msl/bird.wav","null","audio-keyboard-response","368","195519","0.0-3.0-6.0","",""
"349","sound/asl/silence.wav","49","audio-keyboard-response","369","195878","0.0-3.0-7.0","true",""
"null","sound/msl/Water.wav","null","audio-keyboard-response","370","196389","0.0-4.0-0.0","",""
"null","sound/msl/organ.wav","null","audio-keyboard-response","371","196889","0.0-4.0-1.0","",""
"null","sound/msl/goat.wav","null","audio-keyboard-response","372","197429","0.0-4.0-2.0","",""
"null","sound/asl/silence.wav","null","audio-keyboard-response","373","197929","0.0-4.0-3.0","",""
"null","sound/msl/duck.wav","null","audio-keyboard-response","374","198439","0.0-4.0-4.0","",""
"null","sound/msl/clock.wav","null","audio-keyboard-response","375","198989","0.0-4.0-5.0","",""
"null","sound/msl/bird.wav","null","audio-keyboard-response","376","199489","0.0-4.0-6.0","",""
"389","sound/asl/silence.wav","49","audio-keyboard-response","377","199879","0.0-4.0-7.0","false",""
"null","sound/msl/duck.wav","null","audio-keyboard-response","378","200389","0.0-5.0-0.0","",""
"null","sound/msl/clock.wav","null","audio-keyboard-response","379","200939","0.0-5.0-1.0","",""
"null","sound/msl/bird.wav","null","audio-keyboard-response","380","201438","0.0-5.0-2.0","",""
"null","sound/asl/silence.wav","null","audio-keyboard-response","381","201941","0.0-5.0-3.0","",""
"null","sound/msl/slide_whistle.wav","null","audio-keyboard-response","382","202438","0.0-5.0-4.0","",""
"null","sound/msl/ding.wav","null","audio-keyboard-response","383","202948","0.0-5.0-5.0","",""
"null","sound/msl/bird.wav","null","audio-keyboard-response","384","203448","0.0-5.0-6.0","",""
"728","sound/asl/silence.wav","49","audio-keyboard-response","385","204182","0.0-5.0-7.0","true",""
"null","sound/msl/dog.wav","null","audio-keyboard-response","386","204679","0.0-6.0-0.0","",""
"null","sound/msl/clock.wav","null","audio-keyboard-response","387","205228","0.0-6.0-1.0","",""
"null","sound/msl/door_bell.wav","null","audio-keyboard-response","388","205729","0.0-6.0-2.0","",""
"null","sound/asl/silence.wav","null","audio-keyboard-response","389","206230","0.0-6.0-3.0","",""
"null","sound/msl/Water.wav","null","audio-keyboard-response","390","206739","0.0-6.0-4.0","",""
"null","sound/msl/boing.wav","null","audio-keyboard-response","391","207239","0.0-6.0-5.0","",""
"null","sound/msl/door_bell.wav","null","audio-keyboard-response","392","207749","0.0-6.0-6.0","",""
"309","sound/asl/silence.wav","50","audio-keyboard-response","393","208065","0.0-6.0-7.0","true",""
"null","sound/msl/slide_whistle.wav","null","audio-keyboard-response","394","208559","0.0-7.0-0.0","",""
"null","sound/msl/cow.wav","null","audio-keyboard-response","395","209069","0.0-7.0-1.0","",""
"null","sound/msl/goat.wav","null","audio-keyboard-response","396","209609","0.0-7.0-2.0","",""
"null","sound/asl/silence.wav","null","audio-keyboard-response","397","210111","0.0-7.0-3.0","",""
"null","sound/msl/slide_whistle.wav","null","audio-keyboard-response","398","210609","0.0-7.0-4.0","",""
"null","sound/msl/ding.wav","null","audio-keyboard-response","399","211119","0.0-7.0-5.0","",""
"null","sound/msl/bird.wav","null","audio-keyboard-response","400","211629","0.0-7.0-6.0","",""
"301","sound/asl/silence.wav","49","audio-keyboard-response","401","211929","0.0-7.0-7.0","true",""
"null","sound/msl/Water.wav","null","audio-keyboard-response","402","212438","0.0-8.0-0.0","",""
"null","sound/msl/organ.wav","null","audio-keyboard-response","403","212939","0.0-8.0-1.0","",""
"null","sound/msl/goat.wav","null","audio-keyboard-response","404","213479","0.0-8.0-2.0","",""
"null","sound/asl/silence.wav","null","audio-keyboard-response","405","213980","0.0-8.0-3.0","",""
"null","sound/msl/cat.wav","null","audio-keyboard-response","406","214479","0.0-8.0-4.0","",""
"null","sound/msl/organ.wav","null","audio-keyboard-response","407","214979","0.0-8.0-5.0","",""
"null","sound/msl/frog.wav","null","audio-keyboard-response","408","215478","0.0-8.0-6.0","",""
"389","sound/asl/silence.wav","50","audio-keyboard-response","409","215874","0.0-8.0-7.0","true",""
"null","sound/msl/cat.wav","null","audio-keyboard-response","410","216368","0.0-9.0-0.0","",""
"null","sound/msl/cow.wav","null","audio-keyboard-response","411","216879","0.0-9.0-1.0","",""
"null","sound/msl/door.wav","null","audio-keyboard-response","412","217379","0.0-9.0-2.0","",""
"null","sound/asl/silence.wav","null","audio-keyboard-response","413","217879","0.0-9.0-3.0","",""
"null","sound/msl/dog.wav","null","audio-keyboard-response","414","218389","0.0-9.0-4.0","",""
"null","sound/msl/ding.wav","null","audio-keyboard-response","415","218890","0.0-9.0-5.0","",""
"null","sound/msl/door.wav","null","audio-keyboard-response","416","219389","0.0-9.0-6.0","",""
"1181","sound/asl/silence.wav","50","audio-keyboard-response","417","220572","0.0-9.0-7.0","true",""
"null","sound/msl/cat.wav","null","audio-keyboard-response","418","221069","0.0-10.0-0.0","",""
"null","sound/msl/organ.wav","null","audio-keyboard-response","419","221569","0.0-10.0-1.0","",""
"null","sound/msl/frog.wav","null","audio-keyboard-response","420","222078","0.0-10.0-2.0","",""
"null","sound/asl/silence.wav","null","audio-keyboard-response","421","222580","0.0-10.0-3.0","",""
"null","sound/msl/duck.wav","null","audio-keyboard-response","422","223079","0.0-10.0-4.0","",""
"null","sound/msl/boing.wav","null","audio-keyboard-response","423","223578","0.0-10.0-5.0","",""
"null","sound/msl/frog.wav","null","audio-keyboard-response","424","224079","0.0-10.0-6.0","",""
"339","sound/asl/silence.wav","49","audio-keyboard-response","425","224426","0.0-10.0-7.0","true",""
"null","sound/msl/dog.wav","null","audio-keyboard-response","426","224918","0.0-11.0-0.0","",""
"null","sound/msl/ding.wav","null","audio-keyboard-response","427","225428","0.0-11.0-1.0","",""
"null","sound/msl/door.wav","null","audio-keyboard-response","428","225928","0.0-11.0-2.0","",""
"null","sound/asl/silence.wav","null","audio-keyboard-response","429","226430","0.0-11.0-3.0","",""
"null","sound/msl/Water.wav","null","audio-keyboard-response","430","226938","0.0-11.0-4.0","",""
"null","sound/msl/organ.wav","null","audio-keyboard-response","431","227439","0.0-11.0-5.0","",""
"null","sound/msl/goat.wav","null","audio-keyboard-response","432","227979","0.0-11.0-6.0","",""
"312","sound/asl/silence.wav","49","audio-keyboard-response","433","228294","0.0-11.0-7.0","true",""
"null","sound/msl/Water.wav","null","audio-keyboard-response","434","228799","0.0-12.0-0.0","",""
"null","sound/msl/organ.wav","null","audio-keyboard-response","435","229299","0.0-12.0-1.0","",""
"null","sound/msl/goat.wav","null","audio-keyboard-response","436","229839","0.0-12.0-2.0","",""
"null","sound/asl/silence.wav","null","audio-keyboard-response","437","230340","0.0-12.0-3.0","",""
"null","sound/msl/slide_whistle.wav","null","audio-keyboard-response","438","230838","0.0-12.0-4.0","",""
"null","sound/msl/cow.wav","null","audio-keyboard-response","439","231348","0.0-12.0-5.0","",""
"null","sound/msl/goat.wav","null","audio-keyboard-response","440","231888","0.0-12.0-6.0","",""
"1829","sound/asl/silence.wav","49","audio-keyboard-response","441","233726","0.0-12.0-7.0","false",""
"null","sound/msl/cat.wav","null","audio-keyboard-response","442","234218","0.0-13.0-0.0","",""
"null","sound/msl/cow.wav","null","audio-keyboard-response","443","234718","0.0-13.0-1.0","",""
"null","sound/msl/door.wav","null","audio-keyboard-response","444","235219","0.0-13.0-2.0","",""
"null","sound/asl/silence.wav","null","audio-keyboard-response","445","235719","0.0-13.0-3.0","",""
"null","sound/msl/cat.wav","null","audio-keyboard-response","446","236219","0.0-13.0-4.0","",""
"null","sound/msl/organ.wav","null","audio-keyboard-response","447","236719","0.0-13.0-5.0","",""
"null","sound/msl/frog.wav","null","audio-keyboard-response","448","237229","0.0-13.0-6.0","",""
"320","sound/asl/silence.wav","50","audio-keyboard-response","449","237551","0.0-13.0-7.0","true",""
"null","sound/msl/Water.wav","null","audio-keyboard-response","450","238059","0.0-14.0-0.0","",""
"null","sound/msl/boing.wav","null","audio-keyboard-response","451","238559","0.0-14.0-1.0","",""
"null","sound/msl/door_bell.wav","null","audio-keyboard-response","452","239069","0.0-14.0-2.0","",""
"null","sound/asl/silence.wav","null","audio-keyboard-response","453","239569","0.0-14.0-3.0","",""
"null","sound/msl/Water.wav","null","audio-keyboard-response","454","240079","0.0-14.0-4.0","",""
"null","sound/msl/organ.wav","null","audio-keyboard-response","455","240579","0.0-14.0-5.0","",""
"null","sound/msl/goat.wav","null","audio-keyboard-response","456","241118","0.0-14.0-6.0","",""
"899","sound/asl/silence.wav","49","audio-keyboard-response","457","242028","0.0-14.0-7.0","true",""
"null","sound/msl/duck.wav","null","audio-keyboard-response","458","242529","0.0-15.0-0.0","",""
"null","sound/msl/boing.wav","null","audio-keyboard-response","459","243029","0.0-15.0-1.0","",""
"null","sound/msl/frog.wav","null","audio-keyboard-response","460","243529","0.0-15.0-2.0","",""
"null","sound/asl/silence.wav","null","audio-keyboard-response","461","244030","0.0-15.0-3.0","",""
"null","sound/msl/dog.wav","null","audio-keyboard-response","462","244528","0.0-15.0-4.0","",""
"null","sound/msl/ding.wav","null","audio-keyboard-response","463","245038","0.0-15.0-5.0","",""
"null","sound/msl/door.wav","null","audio-keyboard-response","464","245539","0.0-15.0-6.0","",""
"272","sound/asl/silence.wav","50","audio-keyboard-response","465","245809","0.0-15.0-7.0","true",""
"null","sound/msl/slide_whistle.wav","null","audio-keyboard-response","466","246309","0.0-16.0-0.0","",""
"null","sound/msl/ding.wav","null","audio-keyboard-response","467","246809","0.0-16.0-1.0","",""
"null","sound/msl/bird.wav","null","audio-keyboard-response","468","247318","0.0-16.0-2.0","",""
"null","sound/asl/silence.wav","null","audio-keyboard-response","469","247820","0.0-16.0-3.0","",""
"null","sound/msl/cat.wav","null","audio-keyboard-response","470","248318","0.0-16.0-4.0","",""
"null","sound/msl/organ.wav","null","audio-keyboard-response","471","248819","0.0-16.0-5.0","",""
"null","sound/msl/frog.wav","null","audio-keyboard-response","472","249318","0.0-16.0-6.0","",""
"440","sound/asl/silence.wav","50","audio-keyboard-response","473","249760","0.0-16.0-7.0","true",""
"null","sound/msl/cat.wav","null","audio-keyboard-response","474","250258","0.0-17.0-0.0","",""
"null","sound/msl/cow.wav","null","audio-keyboard-response","475","250758","0.0-17.0-1.0","",""
"null","sound/msl/door.wav","null","audio-keyboard-response","476","251260","0.0-17.0-2.0","",""
"null","sound/asl/silence.wav","null","audio-keyboard-response","477","251760","0.0-17.0-3.0","",""
"null","sound/msl/slide_whistle.wav","null","audio-keyboard-response","478","252258","0.0-17.0-4.0","",""
"null","sound/msl/cow.wav","null","audio-keyboard-response","479","252759","0.0-17.0-5.0","",""
"null","sound/msl/goat.wav","null","audio-keyboard-response","480","253298","0.0-17.0-6.0","",""
"1221","sound/asl/silence.wav","49","audio-keyboard-response","481","254519","0.0-17.0-7.0","false",""
"null","sound/msl/duck.wav","null","audio-keyboard-response","482","255029","0.0-18.0-0.0","",""
"null","sound/msl/boing.wav","null","audio-keyboard-response","483","255529","0.0-18.0-1.0","",""
"null","sound/msl/frog.wav","null","audio-keyboard-response","484","256039","0.0-18.0-2.0","",""
"null","sound/asl/silence.wav","null","audio-keyboard-response","485","256539","0.0-18.0-3.0","",""
"null","sound/msl/duck.wav","null","audio-keyboard-response","486","257038","0.0-18.0-4.0","",""
"null","sound/msl/clock.wav","null","audio-keyboard-response","487","257588","0.0-18.0-5.0","",""
"null","sound/msl/bird.wav","null","audio-keyboard-response","488","258088","0.0-18.0-6.0","",""
"1309","sound/asl/silence.wav","49","audio-keyboard-response","489","259404","0.0-18.0-7.0","false",""
"null","sound/msl/cat.wav","null","audio-keyboard-response","490","259899","0.0-19.0-0.0","",""
"null","sound/msl/cow.wav","null","audio-keyboard-response","491","260399","0.0-19.0-1.0","",""
"null","sound/msl/door.wav","null","audio-keyboard-response","492","260898","0.0-19.0-2.0","",""
"null","sound/asl/silence.wav","null","audio-keyboard-response","493","261399","0.0-19.0-3.0","",""
"null","sound/msl/duck.wav","null","audio-keyboard-response","494","261909","0.0-19.0-4.0","",""
"null","sound/msl/clock.wav","null","audio-keyboard-response","495","262459","0.0-19.0-5.0","",""
"null","sound/msl/bird.wav","null","audio-keyboard-response","496","262958","0.0-19.0-6.0","",""
"699","sound/asl/silence.wav","50","audio-keyboard-response","497","263658","0.0-19.0-7.0","true",""
"null","sound/msl/slide_whistle.wav","null","audio-keyboard-response","498","264158","0.0-20.0-0.0","",""
"null","sound/msl/cow.wav","null","audio-keyboard-response","499","264669","0.0-20.0-1.0","",""
"null","sound/msl/goat.wav","null","audio-keyboard-response","500","265208","0.0-20.0-2.0","",""
"null","sound/asl/silence.wav","null","audio-keyboard-response","501","265710","0.0-20.0-3.0","",""
"null","sound/msl/dog.wav","null","audio-keyboard-response","502","266209","0.0-20.0-4.0","",""
"null","sound/msl/clock.wav","null","audio-keyboard-response","503","266759","0.0-20.0-5.0","",""
"null","sound/msl/door_bell.wav","null","audio-keyboard-response","504","267268","0.0-20.0-6.0","",""
"269","sound/asl/silence.wav","49","audio-keyboard-response","505","267547","0.0-20.0-7.0","true",""
"null","sound/msl/duck.wav","null","audio-keyboard-response","506","268039","0.0-21.0-0.0","",""
"null","sound/msl/boing.wav","null","audio-keyboard-response","507","268539","0.0-21.0-1.0","",""
"null","sound/msl/frog.wav","null","audio-keyboard-response","508","269039","0.0-21.0-2.0","",""
"null","sound/asl/silence.wav","null","audio-keyboard-response","509","269540","0.0-21.0-3.0","",""
"null","sound/msl/slide_whistle.wav","null","audio-keyboard-response","510","270038","0.0-21.0-4.0","",""
"null","sound/msl/cow.wav","null","audio-keyboard-response","511","270548","0.0-21.0-5.0","",""
"null","sound/msl/goat.wav","null","audio-keyboard-response","512","271088","0.0-21.0-6.0","",""
"808","sound/asl/silence.wav","50","audio-keyboard-response","513","271906","0.0-21.0-7.0","true",""
"null","sound/msl/Water.wav","null","audio-keyboard-response","514","272408","0.0-22.0-0.0","",""
"null","sound/msl/boing.wav","null","audio-keyboard-response","515","272909","0.0-22.0-1.0","",""
"null","sound/msl/door_bell.wav","null","audio-keyboard-response","516","273408","0.0-22.0-2.0","",""
"null","sound/asl/silence.wav","null","audio-keyboard-response","517","273909","0.0-22.0-3.0","",""
"null","sound/msl/cat.wav","null","audio-keyboard-response","518","274409","0.0-22.0-4.0","",""
"null","sound/msl/cow.wav","null","audio-keyboard-response","519","274918","0.0-22.0-5.0","",""
"null","sound/msl/door.wav","null","audio-keyboard-response","520","275418","0.0-22.0-6.0","",""
"421","sound/asl/silence.wav","49","audio-keyboard-response","521","275841","0.0-22.0-7.0","true",""
"null","sound/msl/Water.wav","null","audio-keyboard-response","522","276348","0.0-23.0-0.0","",""
"null","sound/msl/boing.wav","null","audio-keyboard-response","523","276849","0.0-23.0-1.0","",""
"null","sound/msl/door_bell.wav","null","audio-keyboard-response","524","277359","0.0-23.0-2.0","",""
"null","sound/asl/silence.wav","null","audio-keyboard-response","525","277860","0.0-23.0-3.0","",""
"null","sound/msl/duck.wav","null","audio-keyboard-response","526","278359","0.0-23.0-4.0","",""
"null","sound/msl/boing.wav","null","audio-keyboard-response","527","278859","0.0-23.0-5.0","",""
"null","sound/msl/frog.wav","null","audio-keyboard-response","528","279358","0.0-23.0-6.0","",""
"331","sound/asl/silence.wav","49","audio-keyboard-response","529","279698","0.0-23.0-7.0","true",""
"null","sound/msl/dog.wav","null","audio-keyboard-response","530","280198","0.0-24.0-0.0","",""
"null","sound/msl/ding.wav","null","audio-keyboard-response","531","280709","0.0-24.0-1.0","",""
"null","sound/msl/door.wav","null","audio-keyboard-response","532","281209","0.0-24.0-2.0","",""
"null","sound/asl/silence.wav","null","audio-keyboard-response","533","281709","0.0-24.0-3.0","",""
"null","sound/msl/dog.wav","null","audio-keyboard-response","534","282208","0.0-24.0-4.0","",""
"null","sound/msl/clock.wav","null","audio-keyboard-response","535","282759","0.0-24.0-5.0","",""
"null","sound/msl/door_bell.wav","null","audio-keyboard-response","536","283268","0.0-24.0-6.0","",""
"51","sound/asl/silence.wav","49","audio-keyboard-response","537","283323","0.0-24.0-7.0","true",""
"null","sound/msl/cat.wav","null","audio-keyboard-response","538","283819","0.0-25.0-0.0","",""
"null","sound/msl/organ.wav","null","audio-keyboard-response","539","284318","0.0-25.0-1.0","",""
"null","sound/msl/frog.wav","null","audio-keyboard-response","540","284829","0.0-25.0-2.0","",""
"null","sound/asl/silence.wav","null","audio-keyboard-response","541","285330","0.0-25.0-3.0","",""
"null","sound/msl/dog.wav","null","audio-keyboard-response","542","285839","0.0-25.0-4.0","",""
"null","sound/msl/clock.wav","null","audio-keyboard-response","543","286389","0.0-25.0-5.0","",""
"null","sound/msl/door_bell.wav","null","audio-keyboard-response","544","286888","0.0-25.0-6.0","",""
"619","sound/asl/silence.wav","49","audio-keyboard-response","545","287510","0.0-25.0-7.0","true",""
"null","sound/msl/slide_whistle.wav","null","audio-keyboard-response","546","288009","0.0-26.0-0.0","",""
"null","sound/msl/ding.wav","null","audio-keyboard-response","547","288518","0.0-26.0-1.0","",""
"null","sound/msl/bird.wav","null","audio-keyboard-response","548","289028","0.0-26.0-2.0","",""
"null","sound/asl/silence.wav","null","audio-keyboard-response","549","289530","0.0-26.0-3.0","",""
"null","sound/msl/Water.wav","null","audio-keyboard-response","550","290039","0.0-26.0-4.0","",""
"null","sound/msl/boing.wav","null","audio-keyboard-response","551","290540","0.0-26.0-5.0","",""
"null","sound/msl/door_bell.wav","null","audio-keyboard-response","552","291039","0.0-26.0-6.0","",""
"429","sound/asl/silence.wav","50","audio-keyboard-response","553","291475","0.0-26.0-7.0","true",""
"null","sound/msl/duck.wav","null","audio-keyboard-response","554","291968","0.0-27.0-0.0","",""
"null","sound/msl/clock.wav","null","audio-keyboard-response","555","292519","0.0-27.0-1.0","",""
"null","sound/msl/bird.wav","null","audio-keyboard-response","556","293028","0.0-27.0-2.0","",""
"null","sound/asl/silence.wav","null","audio-keyboard-response","557","293530","0.0-27.0-3.0","",""
"null","sound/msl/dog.wav","null","audio-keyboard-response","558","294039","0.0-27.0-4.0","",""
"null","sound/msl/clock.wav","null","audio-keyboard-response","559","294589","0.0-27.0-5.0","",""
"null","sound/msl/door_bell.wav","null","audio-keyboard-response","560","295089","0.0-27.0-6.0","",""
"1320","sound/asl/silence.wav","49","audio-keyboard-response","561","296418","0.0-27.0-7.0","true",""
"1776","","","instructions","562","298196","0.0-28.0","","[{""page_index"":0,""viewing_time"":1775}]"
