"rt","stimulus","key_press","trial_type","trial_index","time_elapsed","internal_node_id","correct","view_history"
"36624","alien.jpg","49","image-keyboard-response","0","36628","0.0-0.0","",""
"null","sound/msl/door_bell.wav","null","audio-keyboard-response","1","37136","0.0-1.0-0.0","",""
"null","sound/msl/Water.wav","null","audio-keyboard-response","2","37656","0.0-1.0-1.0","",""
"null","sound/msl/clock.wav","null","audio-keyboard-response","3","38218","0.0-1.0-2.0","",""
"null","sound/msl/goat.wav","null","audio-keyboard-response","4","38766","0.0-1.0-3.0","",""
"null","sound/msl/slide_whistle.wav","null","audio-keyboard-response","5","39286","0.0-1.0-4.0","",""
"null","sound/msl/cow.wav","null","audio-keyboard-response","6","39806","0.0-1.0-5.0","",""
"null","sound/msl/frog.wav","null","audio-keyboard-response","7","40326","0.0-1.0-6.0","",""
"null","sound/msl/bird.wav","null","audio-keyboard-response","8","40846","0.0-1.0-7.0","",""
"null","sound/msl/door.wav","null","audio-keyboard-response","9","41356","0.0-1.0-8.0","",""
"null","sound/msl/organ.wav","null","audio-keyboard-response","10","41866","0.0-1.0-9.0","",""
"null","sound/msl/dog.wav","null","audio-keyboard-response","11","42376","0.0-1.0-10.0","",""
"null","sound/msl/ding.wav","null","audio-keyboard-response","12","42884","0.0-1.0-11.0","",""
"null","sound/msl/goat.wav","null","audio-keyboard-response","13","43438","0.0-1.0-12.0","",""
"null","sound/msl/slide_whistle.wav","null","audio-keyboard-response","14","43954","0.0-1.0-13.0","",""
"null","sound/msl/cow.wav","null","audio-keyboard-response","15","44476","0.0-1.0-14.0","",""
"null","sound/msl/door_bell.wav","null","audio-keyboard-response","16","44994","0.0-1.0-15.0","",""
"null","sound/msl/Water.wav","null","audio-keyboard-response","17","45516","0.0-1.0-16.0","",""
"null","sound/msl/clock.wav","null","audio-keyboard-response","18","46074","0.0-1.0-17.0","",""
"null","sound/msl/duck.wav","null","audio-keyboard-response","19","46596","0.0-1.0-18.0","",""
"null","sound/msl/cat.wav","null","audio-keyboard-response","20","47106","0.0-1.0-19.0","",""
"null","sound/msl/boing.wav","null","audio-keyboard-response","21","47614","0.0-1.0-20.0","",""
"null","sound/msl/organ.wav","null","audio-keyboard-response","22","48126","0.0-1.0-21.0","",""
"null","sound/msl/dog.wav","null","audio-keyboard-response","23","48646","0.0-1.0-22.0","",""
"null","sound/msl/ding.wav","null","audio-keyboard-response","24","49166","0.0-1.0-23.0","",""
"null","sound/msl/frog.wav","null","audio-keyboard-response","25","49686","0.0-1.0-24.0","",""
"null","sound/msl/bird.wav","null","audio-keyboard-response","26","50206","0.0-1.0-25.0","",""
"null","sound/msl/door.wav","null","audio-keyboard-response","27","50716","0.0-1.0-26.0","",""
"null","sound/msl/door_bell.wav","null","audio-keyboard-response","28","51236","0.0-1.0-27.0","",""
"null","sound/msl/Water.wav","null","audio-keyboard-response","29","51756","0.0-1.0-28.0","",""
"null","sound/msl/clock.wav","null","audio-keyboard-response","30","52316","0.0-1.0-29.0","",""
"null","sound/msl/goat.wav","null","audio-keyboard-response","31","52866","0.0-1.0-30.0","",""
"null","sound/msl/slide_whistle.wav","null","audio-keyboard-response","32","53376","0.0-1.0-31.0","",""
"null","sound/msl/cow.wav","null","audio-keyboard-response","33","53886","0.0-1.0-32.0","",""
"null","sound/msl/duck.wav","null","audio-keyboard-response","34","54406","0.0-1.0-33.0","",""
"null","sound/msl/cat.wav","null","audio-keyboard-response","35","54916","0.0-1.0-34.0","",""
"null","sound/msl/boing.wav","null","audio-keyboard-response","36","55426","0.0-1.0-35.0","",""
"null","sound/msl/frog.wav","null","audio-keyboard-response","37","55936","0.0-1.0-36.0","",""
"null","sound/msl/bird.wav","null","audio-keyboard-response","38","56446","0.0-1.0-37.0","",""
"null","sound/msl/door.wav","null","audio-keyboard-response","39","56956","0.0-1.0-38.0","",""
"null","sound/msl/organ.wav","null","audio-keyboard-response","40","57466","0.0-1.0-39.0","",""
"null","sound/msl/dog.wav","null","audio-keyboard-response","41","57976","0.0-1.0-40.0","",""
"null","sound/msl/ding.wav","null","audio-keyboard-response","42","58486","0.0-1.0-41.0","",""
"null","sound/msl/duck.wav","null","audio-keyboard-response","43","59006","0.0-1.0-42.0","",""
"null","sound/msl/cat.wav","null","audio-keyboard-response","44","59516","0.0-1.0-43.0","",""
"null","sound/msl/boing.wav","null","audio-keyboard-response","45","60026","0.0-1.0-44.0","",""
"null","sound/msl/goat.wav","null","audio-keyboard-response","46","60576","0.0-1.0-45.0","",""
"null","sound/msl/slide_whistle.wav","null","audio-keyboard-response","47","61086","0.0-1.0-46.0","",""
"null","sound/msl/cow.wav","null","audio-keyboard-response","48","61606","0.0-1.0-47.0","",""
"null","sound/msl/frog.wav","null","audio-keyboard-response","49","62126","0.0-1.0-48.0","",""
"null","sound/msl/bird.wav","null","audio-keyboard-response","50","62646","0.0-1.0-49.0","",""
"null","sound/msl/door.wav","null","audio-keyboard-response","51","63156","0.0-1.0-50.0","",""
"null","sound/msl/door_bell.wav","null","audio-keyboard-response","52","63676","0.0-1.0-51.0","",""
"null","sound/msl/Water.wav","null","audio-keyboard-response","53","64196","0.0-1.0-52.0","",""
"null","sound/msl/clock.wav","null","audio-keyboard-response","54","64756","0.0-1.0-53.0","",""
"null","sound/msl/goat.wav","null","audio-keyboard-response","55","65306","0.0-1.0-54.0","",""
"null","sound/msl/slide_whistle.wav","null","audio-keyboard-response","56","65816","0.0-1.0-55.0","",""
"null","sound/msl/cow.wav","null","audio-keyboard-response","57","66326","0.0-1.0-56.0","",""
"null","sound/msl/frog.wav","null","audio-keyboard-response","58","66848","0.0-1.0-57.0","",""
"null","sound/msl/bird.wav","null","audio-keyboard-response","59","67366","0.0-1.0-58.0","",""
"null","sound/msl/door.wav","null","audio-keyboard-response","60","67876","0.0-1.0-59.0","",""
"null","sound/msl/organ.wav","null","audio-keyboard-response","61","68386","0.0-1.0-60.0","",""
"null","sound/msl/dog.wav","null","audio-keyboard-response","62","68898","0.0-1.0-61.0","",""
"null","sound/msl/ding.wav","null","audio-keyboard-response","63","69406","0.0-1.0-62.0","",""
"null","sound/msl/duck.wav","null","audio-keyboard-response","64","69926","0.0-1.0-63.0","",""
"null","sound/msl/cat.wav","null","audio-keyboard-response","65","70436","0.0-1.0-64.0","",""
"null","sound/msl/boing.wav","null","audio-keyboard-response","66","70946","0.0-1.0-65.0","",""
"null","sound/msl/goat.wav","null","audio-keyboard-response","67","71496","0.0-1.0-66.0","",""
"null","sound/msl/slide_whistle.wav","null","audio-keyboard-response","68","72006","0.0-1.0-67.0","",""
"null","sound/msl/cow.wav","null","audio-keyboard-response","69","72528","0.0-1.0-68.0","",""
"null","sound/msl/door_bell.wav","null","audio-keyboard-response","70","73046","0.0-1.0-69.0","",""
"null","sound/msl/Water.wav","null","audio-keyboard-response","71","73568","0.0-1.0-70.0","",""
"null","sound/msl/clock.wav","null","audio-keyboard-response","72","74126","0.0-1.0-71.0","",""
"null","sound/msl/frog.wav","null","audio-keyboard-response","73","74646","0.0-1.0-72.0","",""
"null","sound/msl/bird.wav","null","audio-keyboard-response","74","75166","0.0-1.0-73.0","",""
"null","sound/msl/door.wav","null","audio-keyboard-response","75","75676","0.0-1.0-74.0","",""
"null","sound/msl/organ.wav","null","audio-keyboard-response","76","76186","0.0-1.0-75.0","",""
"null","sound/msl/dog.wav","null","audio-keyboard-response","77","76696","0.0-1.0-76.0","",""
"null","sound/msl/ding.wav","null","audio-keyboard-response","78","77206","0.0-1.0-77.0","",""
"null","sound/msl/frog.wav","null","audio-keyboard-response","79","77726","0.0-1.0-78.0","",""
"null","sound/msl/bird.wav","null","audio-keyboard-response","80","78244","0.0-1.0-79.0","",""
"null","sound/msl/door.wav","null","audio-keyboard-response","81","78756","0.0-1.0-80.0","",""
"null","sound/msl/duck.wav","null","audio-keyboard-response","82","79276","0.0-1.0-81.0","",""
"null","sound/msl/cat.wav","null","audio-keyboard-response","83","79786","0.0-1.0-82.0","",""
"null","sound/msl/boing.wav","null","audio-keyboard-response","84","80296","0.0-1.0-83.0","",""
"null","sound/msl/door_bell.wav","null","audio-keyboard-response","85","80806","0.0-1.0-84.0","",""
"null","sound/msl/Water.wav","null","audio-keyboard-response","86","81326","0.0-1.0-85.0","",""
"null","sound/msl/clock.wav","null","audio-keyboard-response","87","81886","0.0-1.0-86.0","",""
"null","sound/msl/goat.wav","null","audio-keyboard-response","88","82436","0.0-1.0-87.0","",""
"null","sound/msl/slide_whistle.wav","null","audio-keyboard-response","89","82956","0.0-1.0-88.0","",""
"null","sound/msl/cow.wav","null","audio-keyboard-response","90","83476","0.0-1.0-89.0","",""
"null","sound/msl/duck.wav","null","audio-keyboard-response","91","83996","0.0-1.0-90.0","",""
"null","sound/msl/cat.wav","null","audio-keyboard-response","92","84506","0.0-1.0-91.0","",""
"null","sound/msl/boing.wav","null","audio-keyboard-response","93","85016","0.0-1.0-92.0","",""
"null","sound/msl/organ.wav","null","audio-keyboard-response","94","85526","0.0-1.0-93.0","",""
"null","sound/msl/dog.wav","null","audio-keyboard-response","95","86048","0.0-1.0-94.0","",""
"null","sound/msl/ding.wav","null","audio-keyboard-response","96","86566","0.0-1.0-95.0","",""
"null","sound/msl/frog.wav","null","audio-keyboard-response","97","87086","0.0-1.0-96.0","",""
"null","sound/msl/bird.wav","null","audio-keyboard-response","98","87606","0.0-1.0-97.0","",""
"null","sound/msl/door.wav","null","audio-keyboard-response","99","88116","0.0-1.0-98.0","",""
"null","sound/msl/goat.wav","null","audio-keyboard-response","100","88666","0.0-1.0-99.0","",""
"null","sound/msl/slide_whistle.wav","null","audio-keyboard-response","101","89176","0.0-1.0-100.0","",""
"null","sound/msl/cow.wav","null","audio-keyboard-response","102","89686","0.0-1.0-101.0","",""
"null","sound/msl/duck.wav","null","audio-keyboard-response","103","90206","0.0-1.0-102.0","",""
"null","sound/msl/cat.wav","null","audio-keyboard-response","104","90716","0.0-1.0-103.0","",""
"null","sound/msl/boing.wav","null","audio-keyboard-response","105","91226","0.0-1.0-104.0","",""
"null","sound/msl/door_bell.wav","null","audio-keyboard-response","106","91736","0.0-1.0-105.0","",""
"null","sound/msl/Water.wav","null","audio-keyboard-response","107","92256","0.0-1.0-106.0","",""
"null","sound/msl/clock.wav","null","audio-keyboard-response","108","92814","0.0-1.0-107.0","",""
"null","sound/msl/goat.wav","null","audio-keyboard-response","109","93364","0.0-1.0-108.0","",""
"null","sound/msl/slide_whistle.wav","null","audio-keyboard-response","110","93886","0.0-1.0-109.0","",""
"null","sound/msl/cow.wav","null","audio-keyboard-response","111","94406","0.0-1.0-110.0","",""
"null","sound/msl/organ.wav","null","audio-keyboard-response","112","94914","0.0-1.0-111.0","",""
"null","sound/msl/dog.wav","null","audio-keyboard-response","113","95436","0.0-1.0-112.0","",""
"null","sound/msl/ding.wav","null","audio-keyboard-response","114","95956","0.0-1.0-113.0","",""
"null","sound/msl/duck.wav","null","audio-keyboard-response","115","96476","0.0-1.0-114.0","",""
"null","sound/msl/cat.wav","null","audio-keyboard-response","116","96986","0.0-1.0-115.0","",""
"null","sound/msl/boing.wav","null","audio-keyboard-response","117","97496","0.0-1.0-116.0","",""
"null","sound/msl/frog.wav","null","audio-keyboard-response","118","98006","0.0-1.0-117.0","",""
"null","sound/msl/bird.wav","null","audio-keyboard-response","119","98526","0.0-1.0-118.0","",""
"null","sound/msl/door.wav","null","audio-keyboard-response","120","99036","0.0-1.0-119.0","",""
"null","sound/msl/door_bell.wav","null","audio-keyboard-response","121","99556","0.0-1.0-120.0","",""
"null","sound/msl/Water.wav","null","audio-keyboard-response","122","100076","0.0-1.0-121.0","",""
"null","sound/msl/clock.wav","null","audio-keyboard-response","123","100634","0.0-1.0-122.0","",""
"null","sound/msl/goat.wav","null","audio-keyboard-response","124","101186","0.0-1.0-123.0","",""
"null","sound/msl/slide_whistle.wav","null","audio-keyboard-response","125","101694","0.0-1.0-124.0","",""
"null","sound/msl/cow.wav","null","audio-keyboard-response","126","102206","0.0-1.0-125.0","",""
"null","sound/msl/duck.wav","null","audio-keyboard-response","127","102726","0.0-1.0-126.0","",""
"null","sound/msl/cat.wav","null","audio-keyboard-response","128","103236","0.0-1.0-127.0","",""
"null","sound/msl/boing.wav","null","audio-keyboard-response","129","103746","0.0-1.0-128.0","",""
"null","sound/msl/organ.wav","null","audio-keyboard-response","130","104256","0.0-1.0-129.0","",""
"null","sound/msl/dog.wav","null","audio-keyboard-response","131","104766","0.0-1.0-130.0","",""
"null","sound/msl/ding.wav","null","audio-keyboard-response","132","105286","0.0-1.0-131.0","",""
"null","sound/msl/goat.wav","null","audio-keyboard-response","133","105836","0.0-1.0-132.0","",""
"null","sound/msl/slide_whistle.wav","null","audio-keyboard-response","134","106356","0.0-1.0-133.0","",""
"null","sound/msl/cow.wav","null","audio-keyboard-response","135","106876","0.0-1.0-134.0","",""
"null","sound/msl/frog.wav","null","audio-keyboard-response","136","107396","0.0-1.0-135.0","",""
"null","sound/msl/bird.wav","null","audio-keyboard-response","137","107916","0.0-1.0-136.0","",""
"null","sound/msl/door.wav","null","audio-keyboard-response","138","108426","0.0-1.0-137.0","",""
"null","sound/msl/organ.wav","null","audio-keyboard-response","139","108936","0.0-1.0-138.0","",""
"null","sound/msl/dog.wav","null","audio-keyboard-response","140","109446","0.0-1.0-139.0","",""
"null","sound/msl/ding.wav","null","audio-keyboard-response","141","109966","0.0-1.0-140.0","",""
"null","sound/msl/door_bell.wav","null","audio-keyboard-response","142","110486","0.0-1.0-141.0","",""
"null","sound/msl/Water.wav","null","audio-keyboard-response","143","111006","0.0-1.0-142.0","",""
"null","sound/msl/clock.wav","null","audio-keyboard-response","144","111566","0.0-1.0-143.0","",""
"null","sound/msl/duck.wav","null","audio-keyboard-response","145","112086","0.0-1.0-144.0","",""
"null","sound/msl/cat.wav","null","audio-keyboard-response","146","112596","0.0-1.0-145.0","",""
"null","sound/msl/boing.wav","null","audio-keyboard-response","147","113106","0.0-1.0-146.0","",""
"null","sound/msl/frog.wav","null","audio-keyboard-response","148","113616","0.0-1.0-147.0","",""
"null","sound/msl/bird.wav","null","audio-keyboard-response","149","114126","0.0-1.0-148.0","",""
"null","sound/msl/door.wav","null","audio-keyboard-response","150","114636","0.0-1.0-149.0","",""
"null","sound/msl/door_bell.wav","null","audio-keyboard-response","151","115156","0.0-1.0-150.0","",""
"null","sound/msl/Water.wav","null","audio-keyboard-response","152","115676","0.0-1.0-151.0","",""
"null","sound/msl/clock.wav","null","audio-keyboard-response","153","116236","0.0-1.0-152.0","",""
"null","sound/msl/goat.wav","null","audio-keyboard-response","154","116786","0.0-1.0-153.0","",""
"null","sound/msl/slide_whistle.wav","null","audio-keyboard-response","155","117296","0.0-1.0-154.0","",""
"null","sound/msl/cow.wav","null","audio-keyboard-response","156","117806","0.0-1.0-155.0","",""
"null","sound/msl/organ.wav","null","audio-keyboard-response","157","118316","0.0-1.0-156.0","",""
"null","sound/msl/dog.wav","null","audio-keyboard-response","158","118836","0.0-1.0-157.0","",""
"null","sound/msl/ding.wav","null","audio-keyboard-response","159","119356","0.0-1.0-158.0","",""
"null","sound/msl/duck.wav","null","audio-keyboard-response","160","119876","0.0-1.0-159.0","",""
"null","sound/msl/cat.wav","null","audio-keyboard-response","161","120386","0.0-1.0-160.0","",""
"null","sound/msl/boing.wav","null","audio-keyboard-response","162","120896","0.0-1.0-161.0","",""
"null","sound/msl/goat.wav","null","audio-keyboard-response","163","121446","0.0-1.0-162.0","",""
"null","sound/msl/slide_whistle.wav","null","audio-keyboard-response","164","121966","0.0-1.0-163.0","",""
"null","sound/msl/cow.wav","null","audio-keyboard-response","165","122486","0.0-1.0-164.0","",""
"null","sound/msl/organ.wav","null","audio-keyboard-response","166","122996","0.0-1.0-165.0","",""
"null","sound/msl/dog.wav","null","audio-keyboard-response","167","123516","0.0-1.0-166.0","",""
"null","sound/msl/ding.wav","null","audio-keyboard-response","168","124036","0.0-1.0-167.0","",""
"null","sound/msl/door_bell.wav","null","audio-keyboard-response","169","124556","0.0-1.0-168.0","",""
"null","sound/msl/Water.wav","null","audio-keyboard-response","170","125076","0.0-1.0-169.0","",""
"null","sound/msl/clock.wav","null","audio-keyboard-response","171","125636","0.0-1.0-170.0","",""
"null","sound/msl/frog.wav","null","audio-keyboard-response","172","126156","0.0-1.0-171.0","",""
"null","sound/msl/bird.wav","null","audio-keyboard-response","173","126676","0.0-1.0-172.0","",""
"null","sound/msl/door.wav","null","audio-keyboard-response","174","127186","0.0-1.0-173.0","",""
"null","sound/msl/duck.wav","null","audio-keyboard-response","175","127696","0.0-1.0-174.0","",""
"null","sound/msl/cat.wav","null","audio-keyboard-response","176","128206","0.0-1.0-175.0","",""
"null","sound/msl/boing.wav","null","audio-keyboard-response","177","128726","0.0-1.0-176.0","",""
"null","sound/msl/goat.wav","null","audio-keyboard-response","178","129276","0.0-1.0-177.0","",""
"null","sound/msl/slide_whistle.wav","null","audio-keyboard-response","179","129796","0.0-1.0-178.0","",""
"null","sound/msl/cow.wav","null","audio-keyboard-response","180","130316","0.0-1.0-179.0","",""
"null","sound/msl/frog.wav","null","audio-keyboard-response","181","130836","0.0-1.0-180.0","",""
"null","sound/msl/bird.wav","null","audio-keyboard-response","182","131356","0.0-1.0-181.0","",""
"null","sound/msl/door.wav","null","audio-keyboard-response","183","131866","0.0-1.0-182.0","",""
"null","sound/msl/organ.wav","null","audio-keyboard-response","184","132376","0.0-1.0-183.0","",""
"null","sound/msl/dog.wav","null","audio-keyboard-response","185","132886","0.0-1.0-184.0","",""
"null","sound/msl/ding.wav","null","audio-keyboard-response","186","133408","0.0-1.0-185.0","",""
"null","sound/msl/door_bell.wav","null","audio-keyboard-response","187","133926","0.0-1.0-186.0","",""
"null","sound/msl/Water.wav","null","audio-keyboard-response","188","134446","0.0-1.0-187.0","",""
"null","sound/msl/clock.wav","null","audio-keyboard-response","189","135006","0.0-1.0-188.0","",""
"null","sound/msl/duck.wav","null","audio-keyboard-response","190","135526","0.0-1.0-189.0","",""
"null","sound/msl/cat.wav","null","audio-keyboard-response","191","136036","0.0-1.0-190.0","",""
"null","sound/msl/boing.wav","null","audio-keyboard-response","192","136546","0.0-1.0-191.0","",""
"null","sound/msl/goat.wav","null","audio-keyboard-response","193","137096","0.0-1.0-192.0","",""
"null","sound/msl/slide_whistle.wav","null","audio-keyboard-response","194","137606","0.0-1.0-193.0","",""
"null","sound/msl/cow.wav","null","audio-keyboard-response","195","138126","0.0-1.0-194.0","",""
"null","sound/msl/frog.wav","null","audio-keyboard-response","196","138648","0.0-1.0-195.0","",""
"null","sound/msl/bird.wav","null","audio-keyboard-response","197","139166","0.0-1.0-196.0","",""
"null","sound/msl/door.wav","null","audio-keyboard-response","198","139676","0.0-1.0-197.0","",""
"null","sound/msl/door_bell.wav","null","audio-keyboard-response","199","140196","0.0-1.0-198.0","",""
"null","sound/msl/Water.wav","null","audio-keyboard-response","200","140716","0.0-1.0-199.0","",""
"null","sound/msl/clock.wav","null","audio-keyboard-response","201","141276","0.0-1.0-200.0","",""
"null","sound/msl/organ.wav","null","audio-keyboard-response","202","141786","0.0-1.0-201.0","",""
"null","sound/msl/dog.wav","null","audio-keyboard-response","203","142296","0.0-1.0-202.0","",""
"null","sound/msl/ding.wav","null","audio-keyboard-response","204","142806","0.0-1.0-203.0","",""
"null","sound/msl/duck.wav","null","audio-keyboard-response","205","143326","0.0-1.0-204.0","",""
"null","sound/msl/cat.wav","null","audio-keyboard-response","206","143836","0.0-1.0-205.0","",""
"null","sound/msl/boing.wav","null","audio-keyboard-response","207","144346","0.0-1.0-206.0","",""
"null","sound/msl/goat.wav","null","audio-keyboard-response","208","144896","0.0-1.0-207.0","",""
"null","sound/msl/slide_whistle.wav","null","audio-keyboard-response","209","145406","0.0-1.0-208.0","",""
"null","sound/msl/cow.wav","null","audio-keyboard-response","210","145926","0.0-1.0-209.0","",""
"null","sound/msl/door_bell.wav","null","audio-keyboard-response","211","146446","0.0-1.0-210.0","",""
"null","sound/msl/Water.wav","null","audio-keyboard-response","212","146968","0.0-1.0-211.0","",""
"null","sound/msl/clock.wav","null","audio-keyboard-response","213","147526","0.0-1.0-212.0","",""
"null","sound/msl/duck.wav","null","audio-keyboard-response","214","148046","0.0-1.0-213.0","",""
"null","sound/msl/cat.wav","null","audio-keyboard-response","215","148556","0.0-1.0-214.0","",""
"null","sound/msl/boing.wav","null","audio-keyboard-response","216","149066","0.0-1.0-215.0","",""
"null","sound/msl/frog.wav","null","audio-keyboard-response","217","149576","0.0-1.0-216.0","",""
"null","sound/msl/bird.wav","null","audio-keyboard-response","218","150086","0.0-1.0-217.0","",""
"null","sound/msl/door.wav","null","audio-keyboard-response","219","150596","0.0-1.0-218.0","",""
"null","sound/msl/organ.wav","null","audio-keyboard-response","220","151106","0.0-1.0-219.0","",""
"null","sound/msl/dog.wav","null","audio-keyboard-response","221","151616","0.0-1.0-220.0","",""
"null","sound/msl/ding.wav","null","audio-keyboard-response","222","152126","0.0-1.0-221.0","",""
"null","sound/msl/goat.wav","null","audio-keyboard-response","223","152676","0.0-1.0-222.0","",""
"null","sound/msl/slide_whistle.wav","null","audio-keyboard-response","224","153196","0.0-1.0-223.0","",""
"null","sound/msl/cow.wav","null","audio-keyboard-response","225","153716","0.0-1.0-224.0","",""
"null","sound/msl/frog.wav","null","audio-keyboard-response","226","154236","0.0-1.0-225.0","",""
"null","sound/msl/bird.wav","null","audio-keyboard-response","227","154756","0.0-1.0-226.0","",""
"null","sound/msl/door.wav","null","audio-keyboard-response","228","155266","0.0-1.0-227.0","",""
"null","sound/msl/duck.wav","null","audio-keyboard-response","229","155776","0.0-1.0-228.0","",""
"null","sound/msl/cat.wav","null","audio-keyboard-response","230","156286","0.0-1.0-229.0","",""
"null","sound/msl/boing.wav","null","audio-keyboard-response","231","156796","0.0-1.0-230.0","",""
"null","sound/msl/frog.wav","null","audio-keyboard-response","232","157316","0.0-1.0-231.0","",""
"null","sound/msl/bird.wav","null","audio-keyboard-response","233","157836","0.0-1.0-232.0","",""
"null","sound/msl/door.wav","null","audio-keyboard-response","234","158346","0.0-1.0-233.0","",""
"null","sound/msl/goat.wav","null","audio-keyboard-response","235","158896","0.0-1.0-234.0","",""
"null","sound/msl/slide_whistle.wav","null","audio-keyboard-response","236","159406","0.0-1.0-235.0","",""
"null","sound/msl/cow.wav","null","audio-keyboard-response","237","159926","0.0-1.0-236.0","",""
"null","sound/msl/organ.wav","null","audio-keyboard-response","238","160436","0.0-1.0-237.0","",""
"null","sound/msl/dog.wav","null","audio-keyboard-response","239","160956","0.0-1.0-238.0","",""
"null","sound/msl/ding.wav","null","audio-keyboard-response","240","161476","0.0-1.0-239.0","",""
"null","sound/msl/door_bell.wav","null","audio-keyboard-response","241","161996","0.0-1.0-240.0","",""
"null","sound/msl/Water.wav","null","audio-keyboard-response","242","162516","0.0-1.0-241.0","",""
"null","sound/msl/clock.wav","null","audio-keyboard-response","243","163076","0.0-1.0-242.0","",""
"null","sound/msl/duck.wav","null","audio-keyboard-response","244","163596","0.0-1.0-243.0","",""
"null","sound/msl/cat.wav","null","audio-keyboard-response","245","164104","0.0-1.0-244.0","",""
"null","sound/msl/boing.wav","null","audio-keyboard-response","246","164616","0.0-1.0-245.0","",""
"null","sound/msl/goat.wav","null","audio-keyboard-response","247","165166","0.0-1.0-246.0","",""
"null","sound/msl/slide_whistle.wav","null","audio-keyboard-response","248","165686","0.0-1.0-247.0","",""
"null","sound/msl/cow.wav","null","audio-keyboard-response","249","166204","0.0-1.0-248.0","",""
"null","sound/msl/organ.wav","null","audio-keyboard-response","250","166716","0.0-1.0-249.0","",""
"null","sound/msl/dog.wav","null","audio-keyboard-response","251","167236","0.0-1.0-250.0","",""
"null","sound/msl/ding.wav","null","audio-keyboard-response","252","167756","0.0-1.0-251.0","",""
"null","sound/msl/door_bell.wav","null","audio-keyboard-response","253","168278","0.0-1.0-252.0","",""
"null","sound/msl/Water.wav","null","audio-keyboard-response","254","168796","0.0-1.0-253.0","",""
"null","sound/msl/clock.wav","null","audio-keyboard-response","255","169356","0.0-1.0-254.0","",""
"null","sound/msl/frog.wav","null","audio-keyboard-response","256","169876","0.0-1.0-255.0","",""
"null","sound/msl/bird.wav","null","audio-keyboard-response","257","170396","0.0-1.0-256.0","",""
"null","sound/msl/door.wav","null","audio-keyboard-response","258","170906","0.0-1.0-257.0","",""
"null","sound/msl/duck.wav","null","audio-keyboard-response","259","171416","0.0-1.0-258.0","",""
"null","sound/msl/cat.wav","null","audio-keyboard-response","260","171926","0.0-1.0-259.0","",""
"null","sound/msl/boing.wav","null","audio-keyboard-response","261","172436","0.0-1.0-260.0","",""
"null","sound/msl/door_bell.wav","null","audio-keyboard-response","262","172956","0.0-1.0-261.0","",""
"null","sound/msl/Water.wav","null","audio-keyboard-response","263","173476","0.0-1.0-262.0","",""
"null","sound/msl/clock.wav","null","audio-keyboard-response","264","174036","0.0-1.0-263.0","",""
"null","sound/msl/organ.wav","null","audio-keyboard-response","265","174546","0.0-1.0-264.0","",""
"null","sound/msl/dog.wav","null","audio-keyboard-response","266","175056","0.0-1.0-265.0","",""
"null","sound/msl/ding.wav","null","audio-keyboard-response","267","175566","0.0-1.0-266.0","",""
"null","sound/msl/frog.wav","null","audio-keyboard-response","268","176086","0.0-1.0-267.0","",""
"null","sound/msl/bird.wav","null","audio-keyboard-response","269","176606","0.0-1.0-268.0","",""
"null","sound/msl/door.wav","null","audio-keyboard-response","270","177116","0.0-1.0-269.0","",""
"null","sound/msl/goat.wav","null","audio-keyboard-response","271","177666","0.0-1.0-270.0","",""
"null","sound/msl/slide_whistle.wav","null","audio-keyboard-response","272","178176","0.0-1.0-271.0","",""
"null","sound/msl/cow.wav","null","audio-keyboard-response","273","178688","0.0-1.0-272.0","",""
"null","sound/msl/duck.wav","null","audio-keyboard-response","274","179206","0.0-1.0-273.0","",""
"null","sound/msl/cat.wav","null","audio-keyboard-response","275","179716","0.0-1.0-274.0","",""
"null","sound/msl/boing.wav","null","audio-keyboard-response","276","180226","0.0-1.0-275.0","",""
"null","sound/msl/door_bell.wav","null","audio-keyboard-response","277","180736","0.0-1.0-276.0","",""
"null","sound/msl/Water.wav","null","audio-keyboard-response","278","181256","0.0-1.0-277.0","",""
"null","sound/msl/clock.wav","null","audio-keyboard-response","279","181816","0.0-1.0-278.0","",""
"null","sound/msl/organ.wav","null","audio-keyboard-response","280","182326","0.0-1.0-279.0","",""
"null","sound/msl/dog.wav","null","audio-keyboard-response","281","182846","0.0-1.0-280.0","",""
"null","sound/msl/ding.wav","null","audio-keyboard-response","282","183366","0.0-1.0-281.0","",""
"null","sound/msl/goat.wav","null","audio-keyboard-response","283","183916","0.0-1.0-282.0","",""
"null","sound/msl/slide_whistle.wav","null","audio-keyboard-response","284","184436","0.0-1.0-283.0","",""
"null","sound/msl/cow.wav","null","audio-keyboard-response","285","184956","0.0-1.0-284.0","",""
"null","sound/msl/frog.wav","null","audio-keyboard-response","286","185476","0.0-1.0-285.0","",""
"null","sound/msl/bird.wav","null","audio-keyboard-response","287","185996","0.0-1.0-286.0","",""
"null","sound/msl/door.wav","null","audio-keyboard-response","288","186506","0.0-1.0-287.0","",""
"null","sound/msl/duck.wav","null","audio-keyboard-response","289","187016","0.0-1.0-288.0","",""
"null","sound/msl/cat.wav","null","audio-keyboard-response","290","187526","0.0-1.0-289.0","",""
"null","sound/msl/boing.wav","null","audio-keyboard-response","291","188036","0.0-1.0-290.0","",""
"null","sound/msl/organ.wav","null","audio-keyboard-response","292","188546","0.0-1.0-291.0","",""
"null","sound/msl/dog.wav","null","audio-keyboard-response","293","189056","0.0-1.0-292.0","",""
"null","sound/msl/ding.wav","null","audio-keyboard-response","294","189566","0.0-1.0-293.0","",""
"null","sound/msl/door_bell.wav","null","audio-keyboard-response","295","190086","0.0-1.0-294.0","",""
"null","sound/msl/Water.wav","null","audio-keyboard-response","296","190606","0.0-1.0-295.0","",""
"null","sound/msl/clock.wav","null","audio-keyboard-response","297","191166","0.0-1.0-296.0","",""
"null","sound/msl/duck.wav","null","audio-keyboard-response","298","191686","0.0-1.0-297.0","",""
"null","sound/msl/cat.wav","null","audio-keyboard-response","299","192196","0.0-1.0-298.0","",""
"null","sound/msl/boing.wav","null","audio-keyboard-response","300","192706","0.0-1.0-299.0","",""
"null","sound/msl/goat.wav","null","audio-keyboard-response","301","193256","0.0-1.0-300.0","",""
"null","sound/msl/slide_whistle.wav","null","audio-keyboard-response","302","193766","0.0-1.0-301.0","",""
"null","sound/msl/cow.wav","null","audio-keyboard-response","303","194286","0.0-1.0-302.0","",""
"null","sound/msl/organ.wav","null","audio-keyboard-response","304","194796","0.0-1.0-303.0","",""
"null","sound/msl/dog.wav","null","audio-keyboard-response","305","195314","0.0-1.0-304.0","",""
"null","sound/msl/ding.wav","null","audio-keyboard-response","306","195834","0.0-1.0-305.0","",""
"null","sound/msl/frog.wav","null","audio-keyboard-response","307","196356","0.0-1.0-306.0","",""
"null","sound/msl/bird.wav","null","audio-keyboard-response","308","196876","0.0-1.0-307.0","",""
"null","sound/msl/door.wav","null","audio-keyboard-response","309","197386","0.0-1.0-308.0","",""
"null","sound/msl/door_bell.wav","null","audio-keyboard-response","310","197896","0.0-1.0-309.0","",""
"null","sound/msl/Water.wav","null","audio-keyboard-response","311","198416","0.0-1.0-310.0","",""
"null","sound/msl/clock.wav","null","audio-keyboard-response","312","198974","0.0-1.0-311.0","",""
"null","sound/msl/duck.wav","null","audio-keyboard-response","313","199486","0.0-1.0-312.0","",""
"null","sound/msl/cat.wav","null","audio-keyboard-response","314","199996","0.0-1.0-313.0","",""
"null","sound/msl/boing.wav","null","audio-keyboard-response","315","200506","0.0-1.0-314.0","",""
"null","sound/msl/goat.wav","null","audio-keyboard-response","316","201056","0.0-1.0-315.0","",""
"null","sound/msl/slide_whistle.wav","null","audio-keyboard-response","317","201566","0.0-1.0-316.0","",""
"null","sound/msl/cow.wav","null","audio-keyboard-response","318","202086","0.0-1.0-317.0","",""
"null","sound/msl/organ.wav","null","audio-keyboard-response","319","202596","0.0-1.0-318.0","",""
"null","sound/msl/dog.wav","null","audio-keyboard-response","320","203116","0.0-1.0-319.0","",""
"null","sound/msl/ding.wav","null","audio-keyboard-response","321","203636","0.0-1.0-320.0","",""
"null","sound/msl/door_bell.wav","null","audio-keyboard-response","322","204156","0.0-1.0-321.0","",""
"null","sound/msl/Water.wav","null","audio-keyboard-response","323","204676","0.0-1.0-322.0","",""
"null","sound/msl/clock.wav","null","audio-keyboard-response","324","205236","0.0-1.0-323.0","",""
"null","sound/msl/goat.wav","null","audio-keyboard-response","325","205786","0.0-1.0-324.0","",""
"null","sound/msl/slide_whistle.wav","null","audio-keyboard-response","326","206296","0.0-1.0-325.0","",""
"null","sound/msl/cow.wav","null","audio-keyboard-response","327","206806","0.0-1.0-326.0","",""
"null","sound/msl/frog.wav","null","audio-keyboard-response","328","207326","0.0-1.0-327.0","",""
"null","sound/msl/bird.wav","null","audio-keyboard-response","329","207846","0.0-1.0-328.0","",""
"null","sound/msl/door.wav","null","audio-keyboard-response","330","208356","0.0-1.0-329.0","",""
"null","sound/msl/duck.wav","null","audio-keyboard-response","331","208876","0.0-1.0-330.0","",""
"null","sound/msl/cat.wav","null","audio-keyboard-response","332","209386","0.0-1.0-331.0","",""
"null","sound/msl/boing.wav","null","audio-keyboard-response","333","209896","0.0-1.0-332.0","",""
"null","sound/msl/organ.wav","null","audio-keyboard-response","334","210406","0.0-1.0-333.0","",""
"null","sound/msl/dog.wav","null","audio-keyboard-response","335","210926","0.0-1.0-334.0","",""
"null","sound/msl/ding.wav","null","audio-keyboard-response","336","211446","0.0-1.0-335.0","",""
"null","sound/msl/frog.wav","null","audio-keyboard-response","337","211966","0.0-1.0-336.0","",""
"null","sound/msl/bird.wav","null","audio-keyboard-response","338","212486","0.0-1.0-337.0","",""
"null","sound/msl/door.wav","null","audio-keyboard-response","339","212996","0.0-1.0-338.0","",""
"null","sound/msl/door_bell.wav","null","audio-keyboard-response","340","213516","0.0-1.0-339.0","",""
"null","sound/msl/Water.wav","null","audio-keyboard-response","341","214036","0.0-1.0-340.0","",""
"null","sound/msl/clock.wav","null","audio-keyboard-response","342","214596","0.0-1.0-341.0","",""
"null","sound/msl/organ.wav","null","audio-keyboard-response","343","215108","0.0-1.0-342.0","",""
"null","sound/msl/dog.wav","null","audio-keyboard-response","344","215616","0.0-1.0-343.0","",""
"null","sound/msl/ding.wav","null","audio-keyboard-response","345","216126","0.0-1.0-344.0","",""
"null","sound/msl/door_bell.wav","null","audio-keyboard-response","346","216646","0.0-1.0-345.0","",""
"null","sound/msl/Water.wav","null","audio-keyboard-response","347","217166","0.0-1.0-346.0","",""
"null","sound/msl/clock.wav","null","audio-keyboard-response","348","217726","0.0-1.0-347.0","",""
"null","sound/msl/frog.wav","null","audio-keyboard-response","349","218246","0.0-1.0-348.0","",""
"null","sound/msl/bird.wav","null","audio-keyboard-response","350","218766","0.0-1.0-349.0","",""
"null","sound/msl/door.wav","null","audio-keyboard-response","351","219276","0.0-1.0-350.0","",""
"null","sound/msl/duck.wav","null","audio-keyboard-response","352","219796","0.0-1.0-351.0","",""
"null","sound/msl/cat.wav","null","audio-keyboard-response","353","220306","0.0-1.0-352.0","",""
"null","sound/msl/boing.wav","null","audio-keyboard-response","354","220816","0.0-1.0-353.0","",""
"null","sound/msl/organ.wav","null","audio-keyboard-response","355","221326","0.0-1.0-354.0","",""
"null","sound/msl/dog.wav","null","audio-keyboard-response","356","221846","0.0-1.0-355.0","",""
"null","sound/msl/ding.wav","null","audio-keyboard-response","357","222366","0.0-1.0-356.0","",""
"null","sound/msl/door_bell.wav","null","audio-keyboard-response","358","222886","0.0-1.0-357.0","",""
"null","sound/msl/Water.wav","null","audio-keyboard-response","359","223406","0.0-1.0-358.0","",""
"null","sound/msl/clock.wav","null","audio-keyboard-response","360","223966","0.0-1.0-359.0","",""
"13220","Instructions2-eng.png","49","image-keyboard-response","361","237190","0.0-2.0","",""
"null","sound/msl/frog.wav","null","audio-keyboard-response","362","237716","0.0-3.0-0.0","",""
"null","sound/msl/dog.wav","null","audio-keyboard-response","363","238236","0.0-3.0-1.0","",""
"null","sound/msl/boing.wav","null","audio-keyboard-response","364","238746","0.0-3.0-2.0","",""
"null","sound/asl/silence.wav","null","audio-keyboard-response","365","239248","0.0-3.0-3.0","",""
"null","sound/msl/organ.wav","null","audio-keyboard-response","366","239756","0.0-3.0-4.0","",""
"null","sound/msl/dog.wav","null","audio-keyboard-response","367","240276","0.0-3.0-5.0","",""
"null","sound/msl/ding.wav","null","audio-keyboard-response","368","240796","0.0-3.0-6.0","",""
"13470","sound/asl/silence.wav","49","audio-keyboard-response","369","254276","0.0-3.0-7.0","false",""
"null","sound/msl/door_bell.wav","null","audio-keyboard-response","370","254796","0.0-4.0-0.0","",""
"null","sound/msl/slide_whistle.wav","null","audio-keyboard-response","371","255316","0.0-4.0-1.0","",""
"null","sound/msl/door.wav","null","audio-keyboard-response","372","255826","0.0-4.0-2.0","",""
"null","sound/asl/silence.wav","null","audio-keyboard-response","373","256326","0.0-4.0-3.0","",""
"null","sound/msl/organ.wav","null","audio-keyboard-response","374","256836","0.0-4.0-4.0","",""
"null","sound/msl/dog.wav","null","audio-keyboard-response","375","257356","0.0-4.0-5.0","",""
"null","sound/msl/ding.wav","null","audio-keyboard-response","376","257878","0.0-4.0-6.0","",""
"6612","sound/asl/silence.wav","49","audio-keyboard-response","377","264492","0.0-4.0-7.0","false",""
"null","sound/msl/organ.wav","null","audio-keyboard-response","378","265006","0.0-5.0-0.0","",""
"null","sound/msl/dog.wav","null","audio-keyboard-response","379","265526","0.0-5.0-1.0","",""
"null","sound/msl/ding.wav","null","audio-keyboard-response","380","266046","0.0-5.0-2.0","",""
"null","sound/asl/silence.wav","null","audio-keyboard-response","381","266548","0.0-5.0-3.0","",""
"null","sound/msl/duck.wav","null","audio-keyboard-response","382","267056","0.0-5.0-4.0","",""
"null","sound/msl/Water.wav","null","audio-keyboard-response","383","267576","0.0-5.0-5.0","",""
"null","sound/msl/cow.wav","null","audio-keyboard-response","384","268086","0.0-5.0-6.0","",""
"2810","sound/asl/silence.wav","50","audio-keyboard-response","385","270906","0.0-5.0-7.0","false",""
"null","sound/msl/frog.wav","null","audio-keyboard-response","386","271416","0.0-6.0-0.0","",""
"null","sound/msl/bird.wav","null","audio-keyboard-response","387","271926","0.0-6.0-1.0","",""
"null","sound/msl/door.wav","null","audio-keyboard-response","388","272436","0.0-6.0-2.0","",""
"null","sound/asl/silence.wav","null","audio-keyboard-response","389","272938","0.0-6.0-3.0","",""
"null","sound/msl/door_bell.wav","null","audio-keyboard-response","390","273446","0.0-6.0-4.0","",""
"null","sound/msl/slide_whistle.wav","null","audio-keyboard-response","391","273966","0.0-6.0-5.0","",""
"null","sound/msl/door.wav","null","audio-keyboard-response","392","274476","0.0-6.0-6.0","",""
"732","sound/asl/silence.wav","49","audio-keyboard-response","393","275208","0.0-6.0-7.0","true",""
"null","sound/msl/duck.wav","null","audio-keyboard-response","394","275726","0.0-7.0-0.0","",""
"null","sound/msl/Water.wav","null","audio-keyboard-response","395","276246","0.0-7.0-1.0","",""
"null","sound/msl/cow.wav","null","audio-keyboard-response","396","276766","0.0-7.0-2.0","",""
"null","sound/asl/silence.wav","null","audio-keyboard-response","397","277268","0.0-7.0-3.0","",""
"null","sound/msl/goat.wav","null","audio-keyboard-response","398","277816","0.0-7.0-4.0","",""
"null","sound/msl/slide_whistle.wav","null","audio-keyboard-response","399","278326","0.0-7.0-5.0","",""
"null","sound/msl/cow.wav","null","audio-keyboard-response","400","278846","0.0-7.0-6.0","",""
"1068","sound/asl/silence.wav","50","audio-keyboard-response","401","279916","0.0-7.0-7.0","true",""
"null","sound/msl/frog.wav","null","audio-keyboard-response","402","280436","0.0-8.0-0.0","",""
"null","sound/msl/bird.wav","null","audio-keyboard-response","403","280956","0.0-8.0-1.0","",""
"null","sound/msl/door.wav","null","audio-keyboard-response","404","281466","0.0-8.0-2.0","",""
"null","sound/asl/silence.wav","null","audio-keyboard-response","405","281968","0.0-8.0-3.0","",""
"null","sound/msl/duck.wav","null","audio-keyboard-response","406","282486","0.0-8.0-4.0","",""
"null","sound/msl/Water.wav","null","audio-keyboard-response","407","283006","0.0-8.0-5.0","",""
"null","sound/msl/cow.wav","null","audio-keyboard-response","408","283526","0.0-8.0-6.0","",""
"2800","sound/asl/silence.wav","49","audio-keyboard-response","409","286334","0.0-8.0-7.0","true",""
"null","sound/msl/frog.wav","null","audio-keyboard-response","410","286846","0.0-9.0-0.0","",""
"null","sound/msl/dog.wav","null","audio-keyboard-response","411","287366","0.0-9.0-1.0","",""
"null","sound/msl/boing.wav","null","audio-keyboard-response","412","287876","0.0-9.0-2.0","",""
"null","sound/asl/silence.wav","null","audio-keyboard-response","413","288376","0.0-9.0-3.0","",""
"null","sound/msl/duck.wav","null","audio-keyboard-response","414","288886","0.0-9.0-4.0","",""
"null","sound/msl/cat.wav","null","audio-keyboard-response","415","289396","0.0-9.0-5.0","",""
"null","sound/msl/boing.wav","null","audio-keyboard-response","416","289906","0.0-9.0-6.0","",""
"5312","sound/asl/silence.wav","49","audio-keyboard-response","417","295220","0.0-9.0-7.0","false",""
"null","sound/msl/duck.wav","null","audio-keyboard-response","418","295726","0.0-10.0-0.0","",""
"null","sound/msl/cat.wav","null","audio-keyboard-response","419","296236","0.0-10.0-1.0","",""
"null","sound/msl/boing.wav","null","audio-keyboard-response","420","296746","0.0-10.0-2.0","",""
"null","sound/asl/silence.wav","null","audio-keyboard-response","421","297246","0.0-10.0-3.0","",""
"null","sound/msl/goat.wav","null","audio-keyboard-response","422","297796","0.0-10.0-4.0","",""
"null","sound/msl/bird.wav","null","audio-keyboard-response","423","298316","0.0-10.0-5.0","",""
"null","sound/msl/ding.wav","null","audio-keyboard-response","424","298836","0.0-10.0-6.0","",""
"3022","sound/asl/silence.wav","50","audio-keyboard-response","425","301858","0.0-10.0-7.0","false",""
"null","sound/msl/goat.wav","null","audio-keyboard-response","426","302406","0.0-11.0-0.0","",""
"null","sound/msl/bird.wav","null","audio-keyboard-response","427","302926","0.0-11.0-1.0","",""
"null","sound/msl/ding.wav","null","audio-keyboard-response","428","303446","0.0-11.0-2.0","",""
"null","sound/asl/silence.wav","null","audio-keyboard-response","429","303946","0.0-11.0-3.0","",""
"null","sound/msl/door_bell.wav","null","audio-keyboard-response","430","304456","0.0-11.0-4.0","",""
"null","sound/msl/Water.wav","null","audio-keyboard-response","431","304976","0.0-11.0-5.0","",""
"null","sound/msl/clock.wav","null","audio-keyboard-response","432","305536","0.0-11.0-6.0","",""
"3150","sound/asl/silence.wav","50","audio-keyboard-response","433","308696","0.0-11.0-7.0","true",""
"null","sound/msl/frog.wav","null","audio-keyboard-response","434","309206","0.0-12.0-0.0","",""
"null","sound/msl/dog.wav","null","audio-keyboard-response","435","309726","0.0-12.0-1.0","",""
"null","sound/msl/boing.wav","null","audio-keyboard-response","436","310236","0.0-12.0-2.0","",""
"null","sound/asl/silence.wav","null","audio-keyboard-response","437","310740","0.0-12.0-3.0","",""
"null","sound/msl/frog.wav","null","audio-keyboard-response","438","311246","0.0-12.0-4.0","",""
"null","sound/msl/bird.wav","null","audio-keyboard-response","439","311766","0.0-12.0-5.0","",""
"null","sound/msl/door.wav","null","audio-keyboard-response","440","312276","0.0-12.0-6.0","",""
"492","sound/asl/silence.wav","49","audio-keyboard-response","441","312770","0.0-12.0-7.0","false",""
"null","sound/msl/organ.wav","null","audio-keyboard-response","442","313276","0.0-13.0-0.0","",""
"null","sound/msl/dog.wav","null","audio-keyboard-response","443","313796","0.0-13.0-1.0","",""
"null","sound/msl/ding.wav","null","audio-keyboard-response","444","314316","0.0-13.0-2.0","",""
"null","sound/asl/silence.wav","null","audio-keyboard-response","445","314818","0.0-13.0-3.0","",""
"null","sound/msl/organ.wav","null","audio-keyboard-response","446","315326","0.0-13.0-4.0","",""
"null","sound/msl/cat.wav","null","audio-keyboard-response","447","315836","0.0-13.0-5.0","",""
"null","sound/msl/clock.wav","null","audio-keyboard-response","448","316396","0.0-13.0-6.0","",""
"2510","sound/asl/silence.wav","50","audio-keyboard-response","449","318912","0.0-13.0-7.0","false",""
"null","sound/msl/door_bell.wav","null","audio-keyboard-response","450","319416","0.0-14.0-0.0","",""
"null","sound/msl/Water.wav","null","audio-keyboard-response","451","319936","0.0-14.0-1.0","",""
"null","sound/msl/clock.wav","null","audio-keyboard-response","452","320496","0.0-14.0-2.0","",""
"null","sound/asl/silence.wav","null","audio-keyboard-response","453","320996","0.0-14.0-3.0","",""
"null","sound/msl/duck.wav","null","audio-keyboard-response","454","321516","0.0-14.0-4.0","",""
"null","sound/msl/Water.wav","null","audio-keyboard-response","455","322044","0.0-14.0-5.0","",""
"null","sound/msl/cow.wav","null","audio-keyboard-response","456","322566","0.0-14.0-6.0","",""
"1618","sound/asl/silence.wav","49","audio-keyboard-response","457","324196","0.0-14.0-7.0","true",""
"null","sound/msl/duck.wav","null","audio-keyboard-response","458","324716","0.0-15.0-0.0","",""
"null","sound/msl/cat.wav","null","audio-keyboard-response","459","325226","0.0-15.0-1.0","",""
"null","sound/msl/boing.wav","null","audio-keyboard-response","460","325736","0.0-15.0-2.0","",""
"null","sound/asl/silence.wav","null","audio-keyboard-response","461","326240","0.0-15.0-3.0","",""
"null","sound/msl/duck.wav","null","audio-keyboard-response","462","326758","0.0-15.0-4.0","",""
"null","sound/msl/Water.wav","null","audio-keyboard-response","463","327276","0.0-15.0-5.0","",""
"null","sound/msl/cow.wav","null","audio-keyboard-response","464","327796","0.0-15.0-6.0","",""
"892","sound/asl/silence.wav","49","audio-keyboard-response","465","328694","0.0-15.0-7.0","true",""
"null","sound/msl/organ.wav","null","audio-keyboard-response","466","329206","0.0-16.0-0.0","",""
"null","sound/msl/cat.wav","null","audio-keyboard-response","467","329716","0.0-16.0-1.0","",""
"null","sound/msl/clock.wav","null","audio-keyboard-response","468","330276","0.0-16.0-2.0","",""
"null","sound/asl/silence.wav","null","audio-keyboard-response","469","330778","0.0-16.0-3.0","",""
"null","sound/msl/frog.wav","null","audio-keyboard-response","470","331286","0.0-16.0-4.0","",""
"null","sound/msl/bird.wav","null","audio-keyboard-response","471","331808","0.0-16.0-5.0","",""
"null","sound/msl/door.wav","null","audio-keyboard-response","472","332318","0.0-16.0-6.0","",""
"452","sound/asl/silence.wav","50","audio-keyboard-response","473","332770","0.0-16.0-7.0","true",""
"null","sound/msl/organ.wav","null","audio-keyboard-response","474","333276","0.0-17.0-0.0","",""
"null","sound/msl/cat.wav","null","audio-keyboard-response","475","333786","0.0-17.0-1.0","",""
"null","sound/msl/clock.wav","null","audio-keyboard-response","476","334346","0.0-17.0-2.0","",""
"null","sound/asl/silence.wav","null","audio-keyboard-response","477","334848","0.0-17.0-3.0","",""
"null","sound/msl/goat.wav","null","audio-keyboard-response","478","335396","0.0-17.0-4.0","",""
"null","sound/msl/slide_whistle.wav","null","audio-keyboard-response","479","335916","0.0-17.0-5.0","",""
"null","sound/msl/cow.wav","null","audio-keyboard-response","480","336436","0.0-17.0-6.0","",""
"3102","sound/asl/silence.wav","50","audio-keyboard-response","481","339536","0.0-17.0-7.0","true",""
"null","sound/msl/goat.wav","null","audio-keyboard-response","482","340086","0.0-18.0-0.0","",""
"null","sound/msl/slide_whistle.wav","null","audio-keyboard-response","483","340606","0.0-18.0-1.0","",""
"null","sound/msl/cow.wav","null","audio-keyboard-response","484","341126","0.0-18.0-2.0","",""
"null","sound/asl/silence.wav","null","audio-keyboard-response","485","341628","0.0-18.0-3.0","",""
"null","sound/msl/goat.wav","null","audio-keyboard-response","486","342176","0.0-18.0-4.0","",""
"null","sound/msl/bird.wav","null","audio-keyboard-response","487","342686","0.0-18.0-5.0","",""
"null","sound/msl/ding.wav","null","audio-keyboard-response","488","343206","0.0-18.0-6.0","",""
"1130","sound/asl/silence.wav","49","audio-keyboard-response","489","344342","0.0-18.0-7.0","true",""
"null","sound/msl/door_bell.wav","null","audio-keyboard-response","490","344846","0.0-19.0-0.0","",""
"null","sound/msl/Water.wav","null","audio-keyboard-response","491","345366","0.0-19.0-1.0","",""
"null","sound/msl/clock.wav","null","audio-keyboard-response","492","345926","0.0-19.0-2.0","",""
"null","sound/asl/silence.wav","null","audio-keyboard-response","493","346426","0.0-19.0-3.0","",""
"null","sound/msl/organ.wav","null","audio-keyboard-response","494","346936","0.0-19.0-4.0","",""
"null","sound/msl/cat.wav","null","audio-keyboard-response","495","347446","0.0-19.0-5.0","",""
"null","sound/msl/clock.wav","null","audio-keyboard-response","496","348004","0.0-19.0-6.0","",""
"3138","sound/asl/silence.wav","49","audio-keyboard-response","497","351154","0.0-19.0-7.0","true",""
"null","sound/msl/frog.wav","null","audio-keyboard-response","498","351676","0.0-20.0-0.0","",""
"null","sound/msl/dog.wav","null","audio-keyboard-response","499","352196","0.0-20.0-1.0","",""
"null","sound/msl/boing.wav","null","audio-keyboard-response","500","352706","0.0-20.0-2.0","",""
"null","sound/asl/silence.wav","null","audio-keyboard-response","501","353206","0.0-20.0-3.0","",""
"null","sound/msl/door_bell.wav","null","audio-keyboard-response","502","353726","0.0-20.0-4.0","",""
"null","sound/msl/Water.wav","null","audio-keyboard-response","503","354246","0.0-20.0-5.0","",""
"null","sound/msl/clock.wav","null","audio-keyboard-response","504","354806","0.0-20.0-6.0","",""
"680","sound/asl/silence.wav","50","audio-keyboard-response","505","355490","0.0-20.0-7.0","true",""
"null","sound/msl/door_bell.wav","null","audio-keyboard-response","506","356006","0.0-21.0-0.0","",""
"null","sound/msl/slide_whistle.wav","null","audio-keyboard-response","507","356526","0.0-21.0-1.0","",""
"null","sound/msl/door.wav","null","audio-keyboard-response","508","357036","0.0-21.0-2.0","",""
"null","sound/asl/silence.wav","null","audio-keyboard-response","509","357538","0.0-21.0-3.0","",""
"null","sound/msl/duck.wav","null","audio-keyboard-response","510","358046","0.0-21.0-4.0","",""
"null","sound/msl/cat.wav","null","audio-keyboard-response","511","358556","0.0-21.0-5.0","",""
"null","sound/msl/boing.wav","null","audio-keyboard-response","512","359066","0.0-21.0-6.0","",""
"982","sound/asl/silence.wav","49","audio-keyboard-response","513","360054","0.0-21.0-7.0","false",""
"null","sound/msl/goat.wav","null","audio-keyboard-response","514","360606","0.0-22.0-0.0","",""
"null","sound/msl/bird.wav","null","audio-keyboard-response","515","361126","0.0-22.0-1.0","",""
"null","sound/msl/ding.wav","null","audio-keyboard-response","516","361646","0.0-22.0-2.0","",""
"null","sound/asl/silence.wav","null","audio-keyboard-response","517","362148","0.0-22.0-3.0","",""
"null","sound/msl/organ.wav","null","audio-keyboard-response","518","362656","0.0-22.0-4.0","",""
"null","sound/msl/dog.wav","null","audio-keyboard-response","519","363166","0.0-22.0-5.0","",""
"null","sound/msl/ding.wav","null","audio-keyboard-response","520","363686","0.0-22.0-6.0","",""
"1530","sound/asl/silence.wav","49","audio-keyboard-response","521","365218","0.0-22.0-7.0","false",""
"null","sound/msl/goat.wav","null","audio-keyboard-response","522","365766","0.0-23.0-0.0","",""
"null","sound/msl/slide_whistle.wav","null","audio-keyboard-response","523","366286","0.0-23.0-1.0","",""
"null","sound/msl/cow.wav","null","audio-keyboard-response","524","366806","0.0-23.0-2.0","",""
"null","sound/asl/silence.wav","null","audio-keyboard-response","525","367308","0.0-23.0-3.0","",""
"null","sound/msl/frog.wav","null","audio-keyboard-response","526","367816","0.0-23.0-4.0","",""
"null","sound/msl/dog.wav","null","audio-keyboard-response","527","368326","0.0-23.0-5.0","",""
"null","sound/msl/boing.wav","null","audio-keyboard-response","528","368836","0.0-23.0-6.0","",""
"840","sound/asl/silence.wav","49","audio-keyboard-response","529","369684","0.0-23.0-7.0","true",""
"null","sound/msl/goat.wav","null","audio-keyboard-response","530","370226","0.0-24.0-0.0","",""
"null","sound/msl/slide_whistle.wav","null","audio-keyboard-response","531","370736","0.0-24.0-1.0","",""
"null","sound/msl/cow.wav","null","audio-keyboard-response","532","371246","0.0-24.0-2.0","",""
"null","sound/asl/silence.wav","null","audio-keyboard-response","533","371746","0.0-24.0-3.0","",""
"null","sound/msl/door_bell.wav","null","audio-keyboard-response","534","372256","0.0-24.0-4.0","",""
"null","sound/msl/slide_whistle.wav","null","audio-keyboard-response","535","372766","0.0-24.0-5.0","",""
"null","sound/msl/door.wav","null","audio-keyboard-response","536","373276","0.0-24.0-6.0","",""
"760","sound/asl/silence.wav","50","audio-keyboard-response","537","374044","0.0-24.0-7.0","false",""
"null","sound/msl/goat.wav","null","audio-keyboard-response","538","374596","0.0-25.0-0.0","",""
"null","sound/msl/bird.wav","null","audio-keyboard-response","539","375116","0.0-25.0-1.0","",""
"null","sound/msl/ding.wav","null","audio-keyboard-response","540","375636","0.0-25.0-2.0","",""
"null","sound/asl/silence.wav","null","audio-keyboard-response","541","376136","0.0-25.0-3.0","",""
"null","sound/msl/frog.wav","null","audio-keyboard-response","542","376646","0.0-25.0-4.0","",""
"null","sound/msl/bird.wav","null","audio-keyboard-response","543","377166","0.0-25.0-5.0","",""
"null","sound/msl/door.wav","null","audio-keyboard-response","544","377676","0.0-25.0-6.0","",""
"800","sound/asl/silence.wav","50","audio-keyboard-response","545","378484","0.0-25.0-7.0","true",""
"null","sound/msl/door_bell.wav","null","audio-keyboard-response","546","379006","0.0-26.0-0.0","",""
"null","sound/msl/slide_whistle.wav","null","audio-keyboard-response","547","379526","0.0-26.0-1.0","",""
"null","sound/msl/door.wav","null","audio-keyboard-response","548","380036","0.0-26.0-2.0","",""
"null","sound/asl/silence.wav","null","audio-keyboard-response","549","380538","0.0-26.0-3.0","",""
"null","sound/msl/door_bell.wav","null","audio-keyboard-response","550","381046","0.0-26.0-4.0","",""
"null","sound/msl/Water.wav","null","audio-keyboard-response","551","381566","0.0-26.0-5.0","",""
"null","sound/msl/clock.wav","null","audio-keyboard-response","552","382126","0.0-26.0-6.0","",""
"680","sound/asl/silence.wav","49","audio-keyboard-response","553","382810","0.0-26.0-7.0","false",""
"null","sound/msl/duck.wav","null","audio-keyboard-response","554","383326","0.0-27.0-0.0","",""
"null","sound/msl/cat.wav","null","audio-keyboard-response","555","383836","0.0-27.0-1.0","",""
"null","sound/msl/boing.wav","null","audio-keyboard-response","556","384346","0.0-27.0-2.0","",""
"null","sound/asl/silence.wav","null","audio-keyboard-response","557","384848","0.0-27.0-3.0","",""
"null","sound/msl/organ.wav","null","audio-keyboard-response","558","385356","0.0-27.0-4.0","",""
"null","sound/msl/cat.wav","null","audio-keyboard-response","559","385866","0.0-27.0-5.0","",""
"null","sound/msl/clock.wav","null","audio-keyboard-response","560","386426","0.0-27.0-6.0","",""
"3832","sound/asl/silence.wav","49","audio-keyboard-response","561","390260","0.0-27.0-7.0","true",""
"3798","","","instructions","562","394062","0.0-28.0","","[{""page_index"":0,""viewing_time"":3798}]"
