"rt","stimulus","key_press","trial_type","trial_index","time_elapsed","internal_node_id","correct","view_history"
"2448","alien.jpg","49","image-keyboard-response","0","2452","0.0-0.0","",""
"null","sound/msl/slide_whistle.wav","null","audio-keyboard-response","1","2964","0.0-1.0-0.0","",""
"null","sound/msl/cat.wav","null","audio-keyboard-response","2","3474","0.0-1.0-1.0","",""
"null","sound/msl/ding.wav","null","audio-keyboard-response","3","3996","0.0-1.0-2.0","",""
"null","sound/msl/goat.wav","null","audio-keyboard-response","4","4544","0.0-1.0-3.0","",""
"null","sound/msl/bird.wav","null","audio-keyboard-response","5","5054","0.0-1.0-4.0","",""
"null","sound/msl/duck.wav","null","audio-keyboard-response","6","5564","0.0-1.0-5.0","",""
"null","sound/msl/boing.wav","null","audio-keyboard-response","7","6074","0.0-1.0-6.0","",""
"null","sound/msl/door.wav","null","audio-keyboard-response","8","6584","0.0-1.0-7.0","",""
"null","sound/msl/cow.wav","null","audio-keyboard-response","9","7094","0.0-1.0-8.0","",""
"null","sound/msl/Water.wav","null","audio-keyboard-response","10","7614","0.0-1.0-9.0","",""
"null","sound/msl/clock.wav","null","audio-keyboard-response","11","8174","0.0-1.0-10.0","",""
"null","sound/msl/organ.wav","null","audio-keyboard-response","12","8684","0.0-1.0-11.0","",""
"null","sound/msl/goat.wav","null","audio-keyboard-response","13","9236","0.0-1.0-12.0","",""
"null","sound/msl/bird.wav","null","audio-keyboard-response","14","9754","0.0-1.0-13.0","",""
"null","sound/msl/duck.wav","null","audio-keyboard-response","15","10280","0.0-1.0-14.0","",""
"null","sound/msl/slide_whistle.wav","null","audio-keyboard-response","16","10794","0.0-1.0-15.0","",""
"null","sound/msl/cat.wav","null","audio-keyboard-response","17","11304","0.0-1.0-16.0","",""
"null","sound/msl/ding.wav","null","audio-keyboard-response","18","11814","0.0-1.0-17.0","",""
"null","sound/msl/dog.wav","null","audio-keyboard-response","19","12324","0.0-1.0-18.0","",""
"null","sound/msl/frog.wav","null","audio-keyboard-response","20","12844","0.0-1.0-19.0","",""
"null","sound/msl/door_bell.wav","null","audio-keyboard-response","21","13364","0.0-1.0-20.0","",""
"null","sound/msl/Water.wav","null","audio-keyboard-response","22","13884","0.0-1.0-21.0","",""
"null","sound/msl/clock.wav","null","audio-keyboard-response","23","14444","0.0-1.0-22.0","",""
"null","sound/msl/organ.wav","null","audio-keyboard-response","24","14954","0.0-1.0-23.0","",""
"null","sound/msl/boing.wav","null","audio-keyboard-response","25","15466","0.0-1.0-24.0","",""
"null","sound/msl/door.wav","null","audio-keyboard-response","26","15974","0.0-1.0-25.0","",""
"null","sound/msl/cow.wav","null","audio-keyboard-response","27","16484","0.0-1.0-26.0","",""
"null","sound/msl/slide_whistle.wav","null","audio-keyboard-response","28","17004","0.0-1.0-27.0","",""
"null","sound/msl/cat.wav","null","audio-keyboard-response","29","17514","0.0-1.0-28.0","",""
"null","sound/msl/ding.wav","null","audio-keyboard-response","30","18034","0.0-1.0-29.0","",""
"null","sound/msl/goat.wav","null","audio-keyboard-response","31","18584","0.0-1.0-30.0","",""
"null","sound/msl/bird.wav","null","audio-keyboard-response","32","19094","0.0-1.0-31.0","",""
"null","sound/msl/duck.wav","null","audio-keyboard-response","33","19604","0.0-1.0-32.0","",""
"null","sound/msl/dog.wav","null","audio-keyboard-response","34","20124","0.0-1.0-33.0","",""
"null","sound/msl/frog.wav","null","audio-keyboard-response","35","20644","0.0-1.0-34.0","",""
"null","sound/msl/door_bell.wav","null","audio-keyboard-response","36","21164","0.0-1.0-35.0","",""
"null","sound/msl/boing.wav","null","audio-keyboard-response","37","21674","0.0-1.0-36.0","",""
"null","sound/msl/door.wav","null","audio-keyboard-response","38","22184","0.0-1.0-37.0","",""
"null","sound/msl/cow.wav","null","audio-keyboard-response","39","22694","0.0-1.0-38.0","",""
"null","sound/msl/Water.wav","null","audio-keyboard-response","40","23214","0.0-1.0-39.0","",""
"null","sound/msl/clock.wav","null","audio-keyboard-response","41","23774","0.0-1.0-40.0","",""
"null","sound/msl/organ.wav","null","audio-keyboard-response","42","24284","0.0-1.0-41.0","",""
"null","sound/msl/dog.wav","null","audio-keyboard-response","43","24804","0.0-1.0-42.0","",""
"null","sound/msl/frog.wav","null","audio-keyboard-response","44","25324","0.0-1.0-43.0","",""
"null","sound/msl/door_bell.wav","null","audio-keyboard-response","45","25844","0.0-1.0-44.0","",""
"null","sound/msl/goat.wav","null","audio-keyboard-response","46","26394","0.0-1.0-45.0","",""
"null","sound/msl/bird.wav","null","audio-keyboard-response","47","26914","0.0-1.0-46.0","",""
"null","sound/msl/duck.wav","null","audio-keyboard-response","48","27434","0.0-1.0-47.0","",""
"null","sound/msl/boing.wav","null","audio-keyboard-response","49","27944","0.0-1.0-48.0","",""
"null","sound/msl/door.wav","null","audio-keyboard-response","50","28454","0.0-1.0-49.0","",""
"null","sound/msl/cow.wav","null","audio-keyboard-response","51","28966","0.0-1.0-50.0","",""
"null","sound/msl/slide_whistle.wav","null","audio-keyboard-response","52","29484","0.0-1.0-51.0","",""
"null","sound/msl/cat.wav","null","audio-keyboard-response","53","29994","0.0-1.0-52.0","",""
"null","sound/msl/ding.wav","null","audio-keyboard-response","54","30514","0.0-1.0-53.0","",""
"null","sound/msl/goat.wav","null","audio-keyboard-response","55","31062","0.0-1.0-54.0","",""
"null","sound/msl/bird.wav","null","audio-keyboard-response","56","31574","0.0-1.0-55.0","",""
"null","sound/msl/duck.wav","null","audio-keyboard-response","57","32086","0.0-1.0-56.0","",""
"null","sound/msl/boing.wav","null","audio-keyboard-response","58","32594","0.0-1.0-57.0","",""
"null","sound/msl/door.wav","null","audio-keyboard-response","59","33104","0.0-1.0-58.0","",""
"null","sound/msl/cow.wav","null","audio-keyboard-response","60","33614","0.0-1.0-59.0","",""
"null","sound/msl/Water.wav","null","audio-keyboard-response","61","34134","0.0-1.0-60.0","",""
"null","sound/msl/clock.wav","null","audio-keyboard-response","62","34694","0.0-1.0-61.0","",""
"null","sound/msl/organ.wav","null","audio-keyboard-response","63","35204","0.0-1.0-62.0","",""
"null","sound/msl/dog.wav","null","audio-keyboard-response","64","35724","0.0-1.0-63.0","",""
"null","sound/msl/frog.wav","null","audio-keyboard-response","65","36244","0.0-1.0-64.0","",""
"null","sound/msl/door_bell.wav","null","audio-keyboard-response","66","36764","0.0-1.0-65.0","",""
"null","sound/msl/goat.wav","null","audio-keyboard-response","67","37314","0.0-1.0-66.0","",""
"null","sound/msl/bird.wav","null","audio-keyboard-response","68","37834","0.0-1.0-67.0","",""
"null","sound/msl/duck.wav","null","audio-keyboard-response","69","38354","0.0-1.0-68.0","",""
"null","sound/msl/slide_whistle.wav","null","audio-keyboard-response","70","38874","0.0-1.0-69.0","",""
"null","sound/msl/cat.wav","null","audio-keyboard-response","71","39384","0.0-1.0-70.0","",""
"null","sound/msl/ding.wav","null","audio-keyboard-response","72","39894","0.0-1.0-71.0","",""
"null","sound/msl/boing.wav","null","audio-keyboard-response","73","40404","0.0-1.0-72.0","",""
"null","sound/msl/door.wav","null","audio-keyboard-response","74","40914","0.0-1.0-73.0","",""
"null","sound/msl/cow.wav","null","audio-keyboard-response","75","41434","0.0-1.0-74.0","",""
"null","sound/msl/Water.wav","null","audio-keyboard-response","76","41954","0.0-1.0-75.0","",""
"null","sound/msl/clock.wav","null","audio-keyboard-response","77","42514","0.0-1.0-76.0","",""
"null","sound/msl/organ.wav","null","audio-keyboard-response","78","43024","0.0-1.0-77.0","",""
"null","sound/msl/boing.wav","null","audio-keyboard-response","79","43534","0.0-1.0-78.0","",""
"null","sound/msl/door.wav","null","audio-keyboard-response","80","44044","0.0-1.0-79.0","",""
"null","sound/msl/cow.wav","null","audio-keyboard-response","81","44564","0.0-1.0-80.0","",""
"null","sound/msl/dog.wav","null","audio-keyboard-response","82","45084","0.0-1.0-81.0","",""
"null","sound/msl/frog.wav","null","audio-keyboard-response","83","45604","0.0-1.0-82.0","",""
"null","sound/msl/door_bell.wav","null","audio-keyboard-response","84","46124","0.0-1.0-83.0","",""
"null","sound/msl/slide_whistle.wav","null","audio-keyboard-response","85","46644","0.0-1.0-84.0","",""
"null","sound/msl/cat.wav","null","audio-keyboard-response","86","47154","0.0-1.0-85.0","",""
"null","sound/msl/ding.wav","null","audio-keyboard-response","87","47674","0.0-1.0-86.0","",""
"null","sound/msl/goat.wav","null","audio-keyboard-response","88","48224","0.0-1.0-87.0","",""
"null","sound/msl/bird.wav","null","audio-keyboard-response","89","48734","0.0-1.0-88.0","",""
"null","sound/msl/duck.wav","null","audio-keyboard-response","90","49244","0.0-1.0-89.0","",""
"null","sound/msl/dog.wav","null","audio-keyboard-response","91","49764","0.0-1.0-90.0","",""
"null","sound/msl/frog.wav","null","audio-keyboard-response","92","50284","0.0-1.0-91.0","",""
"null","sound/msl/door_bell.wav","null","audio-keyboard-response","93","50804","0.0-1.0-92.0","",""
"null","sound/msl/Water.wav","null","audio-keyboard-response","94","51324","0.0-1.0-93.0","",""
"null","sound/msl/clock.wav","null","audio-keyboard-response","95","51884","0.0-1.0-94.0","",""
"null","sound/msl/organ.wav","null","audio-keyboard-response","96","52394","0.0-1.0-95.0","",""
"null","sound/msl/boing.wav","null","audio-keyboard-response","97","52904","0.0-1.0-96.0","",""
"null","sound/msl/door.wav","null","audio-keyboard-response","98","53414","0.0-1.0-97.0","",""
"null","sound/msl/cow.wav","null","audio-keyboard-response","99","53924","0.0-1.0-98.0","",""
"null","sound/msl/goat.wav","null","audio-keyboard-response","100","54474","0.0-1.0-99.0","",""
"null","sound/msl/bird.wav","null","audio-keyboard-response","101","54994","0.0-1.0-100.0","",""
"null","sound/msl/duck.wav","null","audio-keyboard-response","102","55514","0.0-1.0-101.0","",""
"null","sound/msl/dog.wav","null","audio-keyboard-response","103","56034","0.0-1.0-102.0","",""
"null","sound/msl/frog.wav","null","audio-keyboard-response","104","56554","0.0-1.0-103.0","",""
"null","sound/msl/door_bell.wav","null","audio-keyboard-response","105","57072","0.0-1.0-104.0","",""
"null","sound/msl/slide_whistle.wav","null","audio-keyboard-response","106","57594","0.0-1.0-105.0","",""
"null","sound/msl/cat.wav","null","audio-keyboard-response","107","58104","0.0-1.0-106.0","",""
"null","sound/msl/ding.wav","null","audio-keyboard-response","108","58612","0.0-1.0-107.0","",""
"null","sound/msl/goat.wav","null","audio-keyboard-response","109","59164","0.0-1.0-108.0","",""
"null","sound/msl/bird.wav","null","audio-keyboard-response","110","59684","0.0-1.0-109.0","",""
"null","sound/msl/duck.wav","null","audio-keyboard-response","111","60204","0.0-1.0-110.0","",""
"null","sound/msl/Water.wav","null","audio-keyboard-response","112","60724","0.0-1.0-111.0","",""
"null","sound/msl/clock.wav","null","audio-keyboard-response","113","61284","0.0-1.0-112.0","",""
"null","sound/msl/organ.wav","null","audio-keyboard-response","114","61796","0.0-1.0-113.0","",""
"null","sound/msl/dog.wav","null","audio-keyboard-response","115","62314","0.0-1.0-114.0","",""
"null","sound/msl/frog.wav","null","audio-keyboard-response","116","62834","0.0-1.0-115.0","",""
"null","sound/msl/door_bell.wav","null","audio-keyboard-response","117","63354","0.0-1.0-116.0","",""
"null","sound/msl/boing.wav","null","audio-keyboard-response","118","63864","0.0-1.0-117.0","",""
"null","sound/msl/door.wav","null","audio-keyboard-response","119","64376","0.0-1.0-118.0","",""
"null","sound/msl/cow.wav","null","audio-keyboard-response","120","64884","0.0-1.0-119.0","",""
"null","sound/msl/slide_whistle.wav","null","audio-keyboard-response","121","65404","0.0-1.0-120.0","",""
"null","sound/msl/cat.wav","null","audio-keyboard-response","122","65914","0.0-1.0-121.0","",""
"null","sound/msl/ding.wav","null","audio-keyboard-response","123","66434","0.0-1.0-122.0","",""
"null","sound/msl/goat.wav","null","audio-keyboard-response","124","66984","0.0-1.0-123.0","",""
"null","sound/msl/bird.wav","null","audio-keyboard-response","125","67494","0.0-1.0-124.0","",""
"null","sound/msl/duck.wav","null","audio-keyboard-response","126","68004","0.0-1.0-125.0","",""
"null","sound/msl/dog.wav","null","audio-keyboard-response","127","68526","0.0-1.0-126.0","",""
"null","sound/msl/frog.wav","null","audio-keyboard-response","128","69044","0.0-1.0-127.0","",""
"null","sound/msl/door_bell.wav","null","audio-keyboard-response","129","69564","0.0-1.0-128.0","",""
"null","sound/msl/Water.wav","null","audio-keyboard-response","130","70084","0.0-1.0-129.0","",""
"null","sound/msl/clock.wav","null","audio-keyboard-response","131","70644","0.0-1.0-130.0","",""
"null","sound/msl/organ.wav","null","audio-keyboard-response","132","71154","0.0-1.0-131.0","",""
"null","sound/msl/goat.wav","null","audio-keyboard-response","133","71704","0.0-1.0-132.0","",""
"null","sound/msl/bird.wav","null","audio-keyboard-response","134","72214","0.0-1.0-133.0","",""
"null","sound/msl/duck.wav","null","audio-keyboard-response","135","72724","0.0-1.0-134.0","",""
"null","sound/msl/boing.wav","null","audio-keyboard-response","136","73234","0.0-1.0-135.0","",""
"null","sound/msl/door.wav","null","audio-keyboard-response","137","73744","0.0-1.0-136.0","",""
"null","sound/msl/cow.wav","null","audio-keyboard-response","138","74254","0.0-1.0-137.0","",""
"null","sound/msl/Water.wav","null","audio-keyboard-response","139","74774","0.0-1.0-138.0","",""
"null","sound/msl/clock.wav","null","audio-keyboard-response","140","75334","0.0-1.0-139.0","",""
"null","sound/msl/organ.wav","null","audio-keyboard-response","141","75844","0.0-1.0-140.0","",""
"null","sound/msl/slide_whistle.wav","null","audio-keyboard-response","142","76364","0.0-1.0-141.0","",""
"null","sound/msl/cat.wav","null","audio-keyboard-response","143","76874","0.0-1.0-142.0","",""
"null","sound/msl/ding.wav","null","audio-keyboard-response","144","77394","0.0-1.0-143.0","",""
"null","sound/msl/dog.wav","null","audio-keyboard-response","145","77914","0.0-1.0-144.0","",""
"null","sound/msl/frog.wav","null","audio-keyboard-response","146","78434","0.0-1.0-145.0","",""
"null","sound/msl/door_bell.wav","null","audio-keyboard-response","147","78954","0.0-1.0-146.0","",""
"null","sound/msl/boing.wav","null","audio-keyboard-response","148","79464","0.0-1.0-147.0","",""
"null","sound/msl/door.wav","null","audio-keyboard-response","149","79974","0.0-1.0-148.0","",""
"null","sound/msl/cow.wav","null","audio-keyboard-response","150","80484","0.0-1.0-149.0","",""
"null","sound/msl/slide_whistle.wav","null","audio-keyboard-response","151","81004","0.0-1.0-150.0","",""
"null","sound/msl/cat.wav","null","audio-keyboard-response","152","81512","0.0-1.0-151.0","",""
"null","sound/msl/ding.wav","null","audio-keyboard-response","153","82034","0.0-1.0-152.0","",""
"null","sound/msl/goat.wav","null","audio-keyboard-response","154","82584","0.0-1.0-153.0","",""
"null","sound/msl/bird.wav","null","audio-keyboard-response","155","83094","0.0-1.0-154.0","",""
"null","sound/msl/duck.wav","null","audio-keyboard-response","156","83604","0.0-1.0-155.0","",""
"null","sound/msl/Water.wav","null","audio-keyboard-response","157","84124","0.0-1.0-156.0","",""
"null","sound/msl/clock.wav","null","audio-keyboard-response","158","84684","0.0-1.0-157.0","",""
"null","sound/msl/organ.wav","null","audio-keyboard-response","159","85194","0.0-1.0-158.0","",""
"null","sound/msl/dog.wav","null","audio-keyboard-response","160","85714","0.0-1.0-159.0","",""
"null","sound/msl/frog.wav","null","audio-keyboard-response","161","86234","0.0-1.0-160.0","",""
"null","sound/msl/door_bell.wav","null","audio-keyboard-response","162","86754","0.0-1.0-161.0","",""
"null","sound/msl/goat.wav","null","audio-keyboard-response","163","87304","0.0-1.0-162.0","",""
"null","sound/msl/bird.wav","null","audio-keyboard-response","164","87814","0.0-1.0-163.0","",""
"null","sound/msl/duck.wav","null","audio-keyboard-response","165","88324","0.0-1.0-164.0","",""
"null","sound/msl/Water.wav","null","audio-keyboard-response","166","88844","0.0-1.0-165.0","",""
"null","sound/msl/clock.wav","null","audio-keyboard-response","167","89404","0.0-1.0-166.0","",""
"null","sound/msl/organ.wav","null","audio-keyboard-response","168","89914","0.0-1.0-167.0","",""
"null","sound/msl/slide_whistle.wav","null","audio-keyboard-response","169","90434","0.0-1.0-168.0","",""
"null","sound/msl/cat.wav","null","audio-keyboard-response","170","90944","0.0-1.0-169.0","",""
"null","sound/msl/ding.wav","null","audio-keyboard-response","171","91454","0.0-1.0-170.0","",""
"null","sound/msl/boing.wav","null","audio-keyboard-response","172","91964","0.0-1.0-171.0","",""
"null","sound/msl/door.wav","null","audio-keyboard-response","173","92474","0.0-1.0-172.0","",""
"null","sound/msl/cow.wav","null","audio-keyboard-response","174","92994","0.0-1.0-173.0","",""
"null","sound/msl/dog.wav","null","audio-keyboard-response","175","93514","0.0-1.0-174.0","",""
"null","sound/msl/frog.wav","null","audio-keyboard-response","176","94034","0.0-1.0-175.0","",""
"null","sound/msl/door_bell.wav","null","audio-keyboard-response","177","94554","0.0-1.0-176.0","",""
"null","sound/msl/goat.wav","null","audio-keyboard-response","178","95104","0.0-1.0-177.0","",""
"null","sound/msl/bird.wav","null","audio-keyboard-response","179","95614","0.0-1.0-178.0","",""
"null","sound/msl/duck.wav","null","audio-keyboard-response","180","96124","0.0-1.0-179.0","",""
"null","sound/msl/boing.wav","null","audio-keyboard-response","181","96634","0.0-1.0-180.0","",""
"null","sound/msl/door.wav","null","audio-keyboard-response","182","97144","0.0-1.0-181.0","",""
"null","sound/msl/cow.wav","null","audio-keyboard-response","183","97654","0.0-1.0-182.0","",""
"null","sound/msl/Water.wav","null","audio-keyboard-response","184","98174","0.0-1.0-183.0","",""
"null","sound/msl/clock.wav","null","audio-keyboard-response","185","98734","0.0-1.0-184.0","",""
"null","sound/msl/organ.wav","null","audio-keyboard-response","186","99244","0.0-1.0-185.0","",""
"null","sound/msl/slide_whistle.wav","null","audio-keyboard-response","187","99764","0.0-1.0-186.0","",""
"null","sound/msl/cat.wav","null","audio-keyboard-response","188","100274","0.0-1.0-187.0","",""
"null","sound/msl/ding.wav","null","audio-keyboard-response","189","100794","0.0-1.0-188.0","",""
"null","sound/msl/dog.wav","null","audio-keyboard-response","190","101314","0.0-1.0-189.0","",""
"null","sound/msl/frog.wav","null","audio-keyboard-response","191","101834","0.0-1.0-190.0","",""
"null","sound/msl/door_bell.wav","null","audio-keyboard-response","192","102354","0.0-1.0-191.0","",""
"null","sound/msl/goat.wav","null","audio-keyboard-response","193","102904","0.0-1.0-192.0","",""
"null","sound/msl/bird.wav","null","audio-keyboard-response","194","103414","0.0-1.0-193.0","",""
"null","sound/msl/duck.wav","null","audio-keyboard-response","195","103924","0.0-1.0-194.0","",""
"null","sound/msl/boing.wav","null","audio-keyboard-response","196","104434","0.0-1.0-195.0","",""
"null","sound/msl/door.wav","null","audio-keyboard-response","197","104944","0.0-1.0-196.0","",""
"null","sound/msl/cow.wav","null","audio-keyboard-response","198","105454","0.0-1.0-197.0","",""
"null","sound/msl/slide_whistle.wav","null","audio-keyboard-response","199","105964","0.0-1.0-198.0","",""
"null","sound/msl/cat.wav","null","audio-keyboard-response","200","106474","0.0-1.0-199.0","",""
"null","sound/msl/ding.wav","null","audio-keyboard-response","201","106994","0.0-1.0-200.0","",""
"null","sound/msl/Water.wav","null","audio-keyboard-response","202","107514","0.0-1.0-201.0","",""
"null","sound/msl/clock.wav","null","audio-keyboard-response","203","108074","0.0-1.0-202.0","",""
"null","sound/msl/organ.wav","null","audio-keyboard-response","204","108584","0.0-1.0-203.0","",""
"null","sound/msl/dog.wav","null","audio-keyboard-response","205","109094","0.0-1.0-204.0","",""
"null","sound/msl/frog.wav","null","audio-keyboard-response","206","109604","0.0-1.0-205.0","",""
"null","sound/msl/door_bell.wav","null","audio-keyboard-response","207","110124","0.0-1.0-206.0","",""
"null","sound/msl/goat.wav","null","audio-keyboard-response","208","110674","0.0-1.0-207.0","",""
"null","sound/msl/bird.wav","null","audio-keyboard-response","209","111194","0.0-1.0-208.0","",""
"null","sound/msl/duck.wav","null","audio-keyboard-response","210","111714","0.0-1.0-209.0","",""
"null","sound/msl/slide_whistle.wav","null","audio-keyboard-response","211","112234","0.0-1.0-210.0","",""
"null","sound/msl/cat.wav","null","audio-keyboard-response","212","112744","0.0-1.0-211.0","",""
"null","sound/msl/ding.wav","null","audio-keyboard-response","213","113254","0.0-1.0-212.0","",""
"null","sound/msl/dog.wav","null","audio-keyboard-response","214","113764","0.0-1.0-213.0","",""
"null","sound/msl/frog.wav","null","audio-keyboard-response","215","114284","0.0-1.0-214.0","",""
"null","sound/msl/door_bell.wav","null","audio-keyboard-response","216","114804","0.0-1.0-215.0","",""
"null","sound/msl/boing.wav","null","audio-keyboard-response","217","115314","0.0-1.0-216.0","",""
"null","sound/msl/door.wav","null","audio-keyboard-response","218","115824","0.0-1.0-217.0","",""
"null","sound/msl/cow.wav","null","audio-keyboard-response","219","116334","0.0-1.0-218.0","",""
"null","sound/msl/Water.wav","null","audio-keyboard-response","220","116854","0.0-1.0-219.0","",""
"null","sound/msl/clock.wav","null","audio-keyboard-response","221","117414","0.0-1.0-220.0","",""
"null","sound/msl/organ.wav","null","audio-keyboard-response","222","117924","0.0-1.0-221.0","",""
"null","sound/msl/goat.wav","null","audio-keyboard-response","223","118474","0.0-1.0-222.0","",""
"null","sound/msl/bird.wav","null","audio-keyboard-response","224","118994","0.0-1.0-223.0","",""
"null","sound/msl/duck.wav","null","audio-keyboard-response","225","119514","0.0-1.0-224.0","",""
"null","sound/msl/boing.wav","null","audio-keyboard-response","226","120024","0.0-1.0-225.0","",""
"null","sound/msl/door.wav","null","audio-keyboard-response","227","120534","0.0-1.0-226.0","",""
"null","sound/msl/cow.wav","null","audio-keyboard-response","228","121044","0.0-1.0-227.0","",""
"null","sound/msl/dog.wav","null","audio-keyboard-response","229","121564","0.0-1.0-228.0","",""
"null","sound/msl/frog.wav","null","audio-keyboard-response","230","122084","0.0-1.0-229.0","",""
"null","sound/msl/door_bell.wav","null","audio-keyboard-response","231","122604","0.0-1.0-230.0","",""
"null","sound/msl/boing.wav","null","audio-keyboard-response","232","123114","0.0-1.0-231.0","",""
"null","sound/msl/door.wav","null","audio-keyboard-response","233","123624","0.0-1.0-232.0","",""
"null","sound/msl/cow.wav","null","audio-keyboard-response","234","124134","0.0-1.0-233.0","",""
"null","sound/msl/goat.wav","null","audio-keyboard-response","235","124684","0.0-1.0-234.0","",""
"null","sound/msl/bird.wav","null","audio-keyboard-response","236","125204","0.0-1.0-235.0","",""
"null","sound/msl/duck.wav","null","audio-keyboard-response","237","125724","0.0-1.0-236.0","",""
"null","sound/msl/Water.wav","null","audio-keyboard-response","238","126244","0.0-1.0-237.0","",""
"null","sound/msl/clock.wav","null","audio-keyboard-response","239","126804","0.0-1.0-238.0","",""
"null","sound/msl/organ.wav","null","audio-keyboard-response","240","127314","0.0-1.0-239.0","",""
"null","sound/msl/slide_whistle.wav","null","audio-keyboard-response","241","127834","0.0-1.0-240.0","",""
"null","sound/msl/cat.wav","null","audio-keyboard-response","242","128344","0.0-1.0-241.0","",""
"null","sound/msl/ding.wav","null","audio-keyboard-response","243","128856","0.0-1.0-242.0","",""
"null","sound/msl/dog.wav","null","audio-keyboard-response","244","129364","0.0-1.0-243.0","",""
"null","sound/msl/frog.wav","null","audio-keyboard-response","245","129884","0.0-1.0-244.0","",""
"null","sound/msl/door_bell.wav","null","audio-keyboard-response","246","130404","0.0-1.0-245.0","",""
"null","sound/msl/goat.wav","null","audio-keyboard-response","247","130954","0.0-1.0-246.0","",""
"null","sound/msl/bird.wav","null","audio-keyboard-response","248","131474","0.0-1.0-247.0","",""
"null","sound/msl/duck.wav","null","audio-keyboard-response","249","131994","0.0-1.0-248.0","",""
"null","sound/msl/Water.wav","null","audio-keyboard-response","250","132514","0.0-1.0-249.0","",""
"null","sound/msl/clock.wav","null","audio-keyboard-response","251","133074","0.0-1.0-250.0","",""
"null","sound/msl/organ.wav","null","audio-keyboard-response","252","133584","0.0-1.0-251.0","",""
"null","sound/msl/slide_whistle.wav","null","audio-keyboard-response","253","134094","0.0-1.0-252.0","",""
"null","sound/msl/cat.wav","null","audio-keyboard-response","254","134604","0.0-1.0-253.0","",""
"null","sound/msl/ding.wav","null","audio-keyboard-response","255","135124","0.0-1.0-254.0","",""
"null","sound/msl/boing.wav","null","audio-keyboard-response","256","135634","0.0-1.0-255.0","",""
"null","sound/msl/door.wav","null","audio-keyboard-response","257","136144","0.0-1.0-256.0","",""
"null","sound/msl/cow.wav","null","audio-keyboard-response","258","136654","0.0-1.0-257.0","",""
"null","sound/msl/dog.wav","null","audio-keyboard-response","259","137164","0.0-1.0-258.0","",""
"null","sound/msl/frog.wav","null","audio-keyboard-response","260","137684","0.0-1.0-259.0","",""
"null","sound/msl/door_bell.wav","null","audio-keyboard-response","261","138206","0.0-1.0-260.0","",""
"null","sound/msl/slide_whistle.wav","null","audio-keyboard-response","262","138724","0.0-1.0-261.0","",""
"null","sound/msl/cat.wav","null","audio-keyboard-response","263","139234","0.0-1.0-262.0","",""
"null","sound/msl/ding.wav","null","audio-keyboard-response","264","139754","0.0-1.0-263.0","",""
"null","sound/msl/Water.wav","null","audio-keyboard-response","265","140274","0.0-1.0-264.0","",""
"null","sound/msl/clock.wav","null","audio-keyboard-response","266","140834","0.0-1.0-265.0","",""
"null","sound/msl/organ.wav","null","audio-keyboard-response","267","141344","0.0-1.0-266.0","",""
"null","sound/msl/boing.wav","null","audio-keyboard-response","268","141854","0.0-1.0-267.0","",""
"null","sound/msl/door.wav","null","audio-keyboard-response","269","142364","0.0-1.0-268.0","",""
"null","sound/msl/cow.wav","null","audio-keyboard-response","270","142884","0.0-1.0-269.0","",""
"null","sound/msl/goat.wav","null","audio-keyboard-response","271","143434","0.0-1.0-270.0","",""
"null","sound/msl/bird.wav","null","audio-keyboard-response","272","143954","0.0-1.0-271.0","",""
"null","sound/msl/duck.wav","null","audio-keyboard-response","273","144474","0.0-1.0-272.0","",""
"null","sound/msl/dog.wav","null","audio-keyboard-response","274","144994","0.0-1.0-273.0","",""
"null","sound/msl/frog.wav","null","audio-keyboard-response","275","145514","0.0-1.0-274.0","",""
"null","sound/msl/door_bell.wav","null","audio-keyboard-response","276","146034","0.0-1.0-275.0","",""
"null","sound/msl/slide_whistle.wav","null","audio-keyboard-response","277","146554","0.0-1.0-276.0","",""
"null","sound/msl/cat.wav","null","audio-keyboard-response","278","147064","0.0-1.0-277.0","",""
"null","sound/msl/ding.wav","null","audio-keyboard-response","279","147574","0.0-1.0-278.0","",""
"null","sound/msl/Water.wav","null","audio-keyboard-response","280","148094","0.0-1.0-279.0","",""
"null","sound/msl/clock.wav","null","audio-keyboard-response","281","148654","0.0-1.0-280.0","",""
"null","sound/msl/organ.wav","null","audio-keyboard-response","282","149164","0.0-1.0-281.0","",""
"null","sound/msl/goat.wav","null","audio-keyboard-response","283","149714","0.0-1.0-282.0","",""
"null","sound/msl/bird.wav","null","audio-keyboard-response","284","150234","0.0-1.0-283.0","",""
"null","sound/msl/duck.wav","null","audio-keyboard-response","285","150754","0.0-1.0-284.0","",""
"null","sound/msl/boing.wav","null","audio-keyboard-response","286","151264","0.0-1.0-285.0","",""
"null","sound/msl/door.wav","null","audio-keyboard-response","287","151774","0.0-1.0-286.0","",""
"null","sound/msl/cow.wav","null","audio-keyboard-response","288","152284","0.0-1.0-287.0","",""
"null","sound/msl/dog.wav","null","audio-keyboard-response","289","152804","0.0-1.0-288.0","",""
"null","sound/msl/frog.wav","null","audio-keyboard-response","290","153324","0.0-1.0-289.0","",""
"null","sound/msl/door_bell.wav","null","audio-keyboard-response","291","153844","0.0-1.0-290.0","",""
"null","sound/msl/Water.wav","null","audio-keyboard-response","292","154364","0.0-1.0-291.0","",""
"null","sound/msl/clock.wav","null","audio-keyboard-response","293","154924","0.0-1.0-292.0","",""
"null","sound/msl/organ.wav","null","audio-keyboard-response","294","155434","0.0-1.0-293.0","",""
"null","sound/msl/slide_whistle.wav","null","audio-keyboard-response","295","155954","0.0-1.0-294.0","",""
"null","sound/msl/cat.wav","null","audio-keyboard-response","296","156464","0.0-1.0-295.0","",""
"null","sound/msl/ding.wav","null","audio-keyboard-response","297","156974","0.0-1.0-296.0","",""
"null","sound/msl/dog.wav","null","audio-keyboard-response","298","157484","0.0-1.0-297.0","",""
"null","sound/msl/frog.wav","null","audio-keyboard-response","299","158004","0.0-1.0-298.0","",""
"null","sound/msl/door_bell.wav","null","audio-keyboard-response","300","158524","0.0-1.0-299.0","",""
"null","sound/msl/goat.wav","null","audio-keyboard-response","301","159074","0.0-1.0-300.0","",""
"null","sound/msl/bird.wav","null","audio-keyboard-response","302","159594","0.0-1.0-301.0","",""
"null","sound/msl/duck.wav","null","audio-keyboard-response","303","160114","0.0-1.0-302.0","",""
"null","sound/msl/Water.wav","null","audio-keyboard-response","304","160634","0.0-1.0-303.0","",""
"null","sound/msl/clock.wav","null","audio-keyboard-response","305","161194","0.0-1.0-304.0","",""
"null","sound/msl/organ.wav","null","audio-keyboard-response","306","161704","0.0-1.0-305.0","",""
"null","sound/msl/boing.wav","null","audio-keyboard-response","307","162214","0.0-1.0-306.0","",""
"null","sound/msl/door.wav","null","audio-keyboard-response","308","162724","0.0-1.0-307.0","",""
"null","sound/msl/cow.wav","null","audio-keyboard-response","309","163244","0.0-1.0-308.0","",""
"null","sound/msl/slide_whistle.wav","null","audio-keyboard-response","310","163764","0.0-1.0-309.0","",""
"null","sound/msl/cat.wav","null","audio-keyboard-response","311","164274","0.0-1.0-310.0","",""
"null","sound/msl/ding.wav","null","audio-keyboard-response","312","164794","0.0-1.0-311.0","",""
"null","sound/msl/dog.wav","null","audio-keyboard-response","313","165314","0.0-1.0-312.0","",""
"null","sound/msl/frog.wav","null","audio-keyboard-response","314","165836","0.0-1.0-313.0","",""
"null","sound/msl/door_bell.wav","null","audio-keyboard-response","315","166354","0.0-1.0-314.0","",""
"null","sound/msl/goat.wav","null","audio-keyboard-response","316","166904","0.0-1.0-315.0","",""
"null","sound/msl/bird.wav","null","audio-keyboard-response","317","167414","0.0-1.0-316.0","",""
"null","sound/msl/duck.wav","null","audio-keyboard-response","318","167924","0.0-1.0-317.0","",""
"null","sound/msl/Water.wav","null","audio-keyboard-response","319","168444","0.0-1.0-318.0","",""
"null","sound/msl/clock.wav","null","audio-keyboard-response","320","169004","0.0-1.0-319.0","",""
"null","sound/msl/organ.wav","null","audio-keyboard-response","321","169514","0.0-1.0-320.0","",""
"null","sound/msl/slide_whistle.wav","null","audio-keyboard-response","322","170034","0.0-1.0-321.0","",""
"null","sound/msl/cat.wav","null","audio-keyboard-response","323","170544","0.0-1.0-322.0","",""
"null","sound/msl/ding.wav","null","audio-keyboard-response","324","171054","0.0-1.0-323.0","",""
"null","sound/msl/goat.wav","null","audio-keyboard-response","325","171604","0.0-1.0-324.0","",""
"null","sound/msl/bird.wav","null","audio-keyboard-response","326","172124","0.0-1.0-325.0","",""
"null","sound/msl/duck.wav","null","audio-keyboard-response","327","172644","0.0-1.0-326.0","",""
"null","sound/msl/boing.wav","null","audio-keyboard-response","328","173154","0.0-1.0-327.0","",""
"null","sound/msl/door.wav","null","audio-keyboard-response","329","173664","0.0-1.0-328.0","",""
"null","sound/msl/cow.wav","null","audio-keyboard-response","330","174174","0.0-1.0-329.0","",""
"null","sound/msl/dog.wav","null","audio-keyboard-response","331","174684","0.0-1.0-330.0","",""
"null","sound/msl/frog.wav","null","audio-keyboard-response","332","175204","0.0-1.0-331.0","",""
"null","sound/msl/door_bell.wav","null","audio-keyboard-response","333","175724","0.0-1.0-332.0","",""
"null","sound/msl/Water.wav","null","audio-keyboard-response","334","176244","0.0-1.0-333.0","",""
"null","sound/msl/clock.wav","null","audio-keyboard-response","335","176804","0.0-1.0-334.0","",""
"null","sound/msl/organ.wav","null","audio-keyboard-response","336","177314","0.0-1.0-335.0","",""
"null","sound/msl/boing.wav","null","audio-keyboard-response","337","177824","0.0-1.0-336.0","",""
"null","sound/msl/door.wav","null","audio-keyboard-response","338","178334","0.0-1.0-337.0","",""
"null","sound/msl/cow.wav","null","audio-keyboard-response","339","178844","0.0-1.0-338.0","",""
"null","sound/msl/slide_whistle.wav","null","audio-keyboard-response","340","179364","0.0-1.0-339.0","",""
"null","sound/msl/cat.wav","null","audio-keyboard-response","341","179874","0.0-1.0-340.0","",""
"null","sound/msl/ding.wav","null","audio-keyboard-response","342","180394","0.0-1.0-341.0","",""
"null","sound/msl/Water.wav","null","audio-keyboard-response","343","180914","0.0-1.0-342.0","",""
"null","sound/msl/clock.wav","null","audio-keyboard-response","344","181474","0.0-1.0-343.0","",""
"null","sound/msl/organ.wav","null","audio-keyboard-response","345","181984","0.0-1.0-344.0","",""
"null","sound/msl/slide_whistle.wav","null","audio-keyboard-response","346","182494","0.0-1.0-345.0","",""
"null","sound/msl/cat.wav","null","audio-keyboard-response","347","183004","0.0-1.0-346.0","",""
"null","sound/msl/ding.wav","null","audio-keyboard-response","348","183524","0.0-1.0-347.0","",""
"null","sound/msl/boing.wav","null","audio-keyboard-response","349","184034","0.0-1.0-348.0","",""
"null","sound/msl/door.wav","null","audio-keyboard-response","350","184544","0.0-1.0-349.0","",""
"null","sound/msl/cow.wav","null","audio-keyboard-response","351","185054","0.0-1.0-350.0","",""
"null","sound/msl/dog.wav","null","audio-keyboard-response","352","185564","0.0-1.0-351.0","",""
"null","sound/msl/frog.wav","null","audio-keyboard-response","353","186084","0.0-1.0-352.0","",""
"null","sound/msl/door_bell.wav","null","audio-keyboard-response","354","186604","0.0-1.0-353.0","",""
"null","sound/msl/Water.wav","null","audio-keyboard-response","355","187124","0.0-1.0-354.0","",""
"null","sound/msl/clock.wav","null","audio-keyboard-response","356","187684","0.0-1.0-355.0","",""
"null","sound/msl/organ.wav","null","audio-keyboard-response","357","188194","0.0-1.0-356.0","",""
"null","sound/msl/slide_whistle.wav","null","audio-keyboard-response","358","188714","0.0-1.0-357.0","",""
"null","sound/msl/cat.wav","null","audio-keyboard-response","359","189224","0.0-1.0-358.0","",""
"null","sound/msl/ding.wav","null","audio-keyboard-response","360","189734","0.0-1.0-359.0","",""
"3410","Instructions2-eng.png","49","image-keyboard-response","361","193150","0.0-2.0","",""
"null","sound/msl/dog.wav","null","audio-keyboard-response","362","193674","0.0-3.0-0.0","",""
"null","sound/msl/frog.wav","null","audio-keyboard-response","363","194194","0.0-3.0-1.0","",""
"null","sound/msl/door_bell.wav","null","audio-keyboard-response","364","194714","0.0-3.0-2.0","",""
"null","sound/asl/silence.wav","null","audio-keyboard-response","365","195216","0.0-3.0-3.0","",""
"null","sound/msl/dog.wav","null","audio-keyboard-response","366","195724","0.0-3.0-4.0","",""
"null","sound/msl/cat.wav","null","audio-keyboard-response","367","196234","0.0-3.0-5.0","",""
"null","sound/msl/duck.wav","null","audio-keyboard-response","368","196754","0.0-3.0-6.0","",""
"652","sound/asl/silence.wav","50","audio-keyboard-response","369","197416","0.0-3.0-7.0","false",""
"null","sound/msl/goat.wav","null","audio-keyboard-response","370","197964","0.0-4.0-0.0","",""
"null","sound/msl/bird.wav","null","audio-keyboard-response","371","198484","0.0-4.0-1.0","",""
"null","sound/msl/duck.wav","null","audio-keyboard-response","372","199004","0.0-4.0-2.0","",""
"null","sound/asl/silence.wav","null","audio-keyboard-response","373","199506","0.0-4.0-3.0","",""
"null","sound/msl/boing.wav","null","audio-keyboard-response","374","200014","0.0-4.0-4.0","",""
"null","sound/msl/clock.wav","null","audio-keyboard-response","375","200574","0.0-4.0-5.0","",""
"null","sound/msl/door_bell.wav","null","audio-keyboard-response","376","201084","0.0-4.0-6.0","",""
"698","sound/asl/silence.wav","49","audio-keyboard-response","377","201794","0.0-4.0-7.0","true",""
"null","sound/msl/boing.wav","null","audio-keyboard-response","378","202304","0.0-5.0-0.0","",""
"null","sound/msl/clock.wav","null","audio-keyboard-response","379","202864","0.0-5.0-1.0","",""
"null","sound/msl/door_bell.wav","null","audio-keyboard-response","380","203374","0.0-5.0-2.0","",""
"null","sound/asl/silence.wav","null","audio-keyboard-response","381","203876","0.0-5.0-3.0","",""
"null","sound/msl/boing.wav","null","audio-keyboard-response","382","204384","0.0-5.0-4.0","",""
"null","sound/msl/door.wav","null","audio-keyboard-response","383","204894","0.0-5.0-5.0","",""
"null","sound/msl/cow.wav","null","audio-keyboard-response","384","205404","0.0-5.0-6.0","",""
"520","sound/asl/silence.wav","50","audio-keyboard-response","385","205930","0.0-5.0-7.0","true",""
"null","sound/msl/slide_whistle.wav","null","audio-keyboard-response","386","206444","0.0-6.0-0.0","",""
"null","sound/msl/bird.wav","null","audio-keyboard-response","387","206964","0.0-6.0-1.0","",""
"null","sound/msl/cow.wav","null","audio-keyboard-response","388","207484","0.0-6.0-2.0","",""
"null","sound/asl/silence.wav","null","audio-keyboard-response","389","207986","0.0-6.0-3.0","",""
"null","sound/msl/Water.wav","null","audio-keyboard-response","390","208504","0.0-6.0-4.0","",""
"null","sound/msl/clock.wav","null","audio-keyboard-response","391","209064","0.0-6.0-5.0","",""
"null","sound/msl/organ.wav","null","audio-keyboard-response","392","209574","0.0-6.0-6.0","",""
"830","sound/asl/silence.wav","49","audio-keyboard-response","393","210414","0.0-6.0-7.0","false",""
"null","sound/msl/boing.wav","null","audio-keyboard-response","394","210924","0.0-7.0-0.0","",""
"null","sound/msl/door.wav","null","audio-keyboard-response","395","211434","0.0-7.0-1.0","",""
"null","sound/msl/cow.wav","null","audio-keyboard-response","396","211954","0.0-7.0-2.0","",""
"null","sound/asl/silence.wav","null","audio-keyboard-response","397","212456","0.0-7.0-3.0","",""
"null","sound/msl/slide_whistle.wav","null","audio-keyboard-response","398","212964","0.0-7.0-4.0","",""
"null","sound/msl/bird.wav","null","audio-keyboard-response","399","213484","0.0-7.0-5.0","",""
"null","sound/msl/cow.wav","null","audio-keyboard-response","400","214004","0.0-7.0-6.0","",""
"410","sound/asl/silence.wav","49","audio-keyboard-response","401","214418","0.0-7.0-7.0","true",""
"null","sound/msl/dog.wav","null","audio-keyboard-response","402","214924","0.0-8.0-0.0","",""
"null","sound/msl/frog.wav","null","audio-keyboard-response","403","215444","0.0-8.0-1.0","",""
"null","sound/msl/door_bell.wav","null","audio-keyboard-response","404","215964","0.0-8.0-2.0","",""
"null","sound/asl/silence.wav","null","audio-keyboard-response","405","216466","0.0-8.0-3.0","",""
"null","sound/msl/goat.wav","null","audio-keyboard-response","406","217014","0.0-8.0-4.0","",""
"null","sound/msl/door.wav","null","audio-keyboard-response","407","217524","0.0-8.0-5.0","",""
"null","sound/msl/organ.wav","null","audio-keyboard-response","408","218034","0.0-8.0-6.0","",""
"430","sound/asl/silence.wav","50","audio-keyboard-response","409","218464","0.0-8.0-7.0","false",""
"null","sound/msl/boing.wav","null","audio-keyboard-response","410","218974","0.0-9.0-0.0","",""
"null","sound/msl/clock.wav","null","audio-keyboard-response","411","219534","0.0-9.0-1.0","",""
"null","sound/msl/door_bell.wav","null","audio-keyboard-response","412","220044","0.0-9.0-2.0","",""
"null","sound/asl/silence.wav","null","audio-keyboard-response","413","220546","0.0-9.0-3.0","",""
"null","sound/msl/Water.wav","null","audio-keyboard-response","414","221064","0.0-9.0-4.0","",""
"null","sound/msl/clock.wav","null","audio-keyboard-response","415","221624","0.0-9.0-5.0","",""
"null","sound/msl/organ.wav","null","audio-keyboard-response","416","222134","0.0-9.0-6.0","",""
"1978","sound/asl/silence.wav","49","audio-keyboard-response","417","224124","0.0-9.0-7.0","false",""
"null","sound/msl/goat.wav","null","audio-keyboard-response","418","224674","0.0-10.0-0.0","",""
"null","sound/msl/door.wav","null","audio-keyboard-response","419","225184","0.0-10.0-1.0","",""
"null","sound/msl/organ.wav","null","audio-keyboard-response","420","225694","0.0-10.0-2.0","",""
"null","sound/asl/silence.wav","null","audio-keyboard-response","421","226196","0.0-10.0-3.0","",""
"null","sound/msl/slide_whistle.wav","null","audio-keyboard-response","422","226714","0.0-10.0-4.0","",""
"null","sound/msl/cat.wav","null","audio-keyboard-response","423","227224","0.0-10.0-5.0","",""
"null","sound/msl/ding.wav","null","audio-keyboard-response","424","227734","0.0-10.0-6.0","",""
"538","sound/asl/silence.wav","50","audio-keyboard-response","425","228282","0.0-10.0-7.0","true",""
"null","sound/msl/goat.wav","null","audio-keyboard-response","426","228824","0.0-11.0-0.0","",""
"null","sound/msl/bird.wav","null","audio-keyboard-response","427","229334","0.0-11.0-1.0","",""
"null","sound/msl/duck.wav","null","audio-keyboard-response","428","229844","0.0-11.0-2.0","",""
"null","sound/asl/silence.wav","null","audio-keyboard-response","429","230346","0.0-11.0-3.0","",""
"null","sound/msl/goat.wav","null","audio-keyboard-response","430","230894","0.0-11.0-4.0","",""
"null","sound/msl/door.wav","null","audio-keyboard-response","431","231404","0.0-11.0-5.0","",""
"null","sound/msl/organ.wav","null","audio-keyboard-response","432","231914","0.0-11.0-6.0","",""
"520","sound/asl/silence.wav","49","audio-keyboard-response","433","232438","0.0-11.0-7.0","true",""
"null","sound/msl/goat.wav","null","audio-keyboard-response","434","232984","0.0-12.0-0.0","",""
"null","sound/msl/bird.wav","null","audio-keyboard-response","435","233494","0.0-12.0-1.0","",""
"null","sound/msl/duck.wav","null","audio-keyboard-response","436","234004","0.0-12.0-2.0","",""
"null","sound/asl/silence.wav","null","audio-keyboard-response","437","234504","0.0-12.0-3.0","",""
"null","sound/msl/slide_whistle.wav","null","audio-keyboard-response","438","235014","0.0-12.0-4.0","",""
"null","sound/msl/bird.wav","null","audio-keyboard-response","439","235524","0.0-12.0-5.0","",""
"null","sound/msl/cow.wav","null","audio-keyboard-response","440","236044","0.0-12.0-6.0","",""
"548","sound/asl/silence.wav","50","audio-keyboard-response","441","236598","0.0-12.0-7.0","false",""
"null","sound/msl/boing.wav","null","audio-keyboard-response","442","237104","0.0-13.0-0.0","",""
"null","sound/msl/door.wav","null","audio-keyboard-response","443","237614","0.0-13.0-1.0","",""
"null","sound/msl/cow.wav","null","audio-keyboard-response","444","238124","0.0-13.0-2.0","",""
"null","sound/asl/silence.wav","null","audio-keyboard-response","445","238626","0.0-13.0-3.0","",""
"null","sound/msl/dog.wav","null","audio-keyboard-response","446","239134","0.0-13.0-4.0","",""
"null","sound/msl/cat.wav","null","audio-keyboard-response","447","239644","0.0-13.0-5.0","",""
"null","sound/msl/duck.wav","null","audio-keyboard-response","448","240164","0.0-13.0-6.0","",""
"490","sound/asl/silence.wav","49","audio-keyboard-response","449","240656","0.0-13.0-7.0","true",""
"null","sound/msl/Water.wav","null","audio-keyboard-response","450","241174","0.0-14.0-0.0","",""
"null","sound/msl/clock.wav","null","audio-keyboard-response","451","241734","0.0-14.0-1.0","",""
"null","sound/msl/organ.wav","null","audio-keyboard-response","452","242244","0.0-14.0-2.0","",""
"null","sound/asl/silence.wav","null","audio-keyboard-response","453","242746","0.0-14.0-3.0","",""
"null","sound/msl/dog.wav","null","audio-keyboard-response","454","243254","0.0-14.0-4.0","",""
"null","sound/msl/cat.wav","null","audio-keyboard-response","455","243764","0.0-14.0-5.0","",""
"null","sound/msl/duck.wav","null","audio-keyboard-response","456","244284","0.0-14.0-6.0","",""
"450","sound/asl/silence.wav","49","audio-keyboard-response","457","244744","0.0-14.0-7.0","true",""
"null","sound/msl/Water.wav","null","audio-keyboard-response","458","245264","0.0-15.0-0.0","",""
"null","sound/msl/clock.wav","null","audio-keyboard-response","459","245824","0.0-15.0-1.0","",""
"null","sound/msl/organ.wav","null","audio-keyboard-response","460","246334","0.0-15.0-2.0","",""
"null","sound/asl/silence.wav","null","audio-keyboard-response","461","246836","0.0-15.0-3.0","",""
"null","sound/msl/Water.wav","null","audio-keyboard-response","462","247354","0.0-15.0-4.0","",""
"null","sound/msl/frog.wav","null","audio-keyboard-response","463","247874","0.0-15.0-5.0","",""
"null","sound/msl/ding.wav","null","audio-keyboard-response","464","248394","0.0-15.0-6.0","",""
"452","sound/asl/silence.wav","49","audio-keyboard-response","465","248848","0.0-15.0-7.0","true",""
"null","sound/msl/boing.wav","null","audio-keyboard-response","466","249354","0.0-16.0-0.0","",""
"null","sound/msl/clock.wav","null","audio-keyboard-response","467","249914","0.0-16.0-1.0","",""
"null","sound/msl/door_bell.wav","null","audio-keyboard-response","468","250434","0.0-16.0-2.0","",""
"null","sound/asl/silence.wav","null","audio-keyboard-response","469","250936","0.0-16.0-3.0","",""
"null","sound/msl/dog.wav","null","audio-keyboard-response","470","251444","0.0-16.0-4.0","",""
"null","sound/msl/frog.wav","null","audio-keyboard-response","471","251964","0.0-16.0-5.0","",""
"null","sound/msl/door_bell.wav","null","audio-keyboard-response","472","252484","0.0-16.0-6.0","",""
"3258","sound/asl/silence.wav","49","audio-keyboard-response","473","255748","0.0-16.0-7.0","false",""
"null","sound/msl/goat.wav","null","audio-keyboard-response","474","256294","0.0-17.0-0.0","",""
"null","sound/msl/door.wav","null","audio-keyboard-response","475","256804","0.0-17.0-1.0","",""
"null","sound/msl/organ.wav","null","audio-keyboard-response","476","257316","0.0-17.0-2.0","",""
"null","sound/asl/silence.wav","null","audio-keyboard-response","477","257820","0.0-17.0-3.0","",""
"null","sound/msl/boing.wav","null","audio-keyboard-response","478","258324","0.0-17.0-4.0","",""
"null","sound/msl/door.wav","null","audio-keyboard-response","479","258834","0.0-17.0-5.0","",""
"null","sound/msl/cow.wav","null","audio-keyboard-response","480","259354","0.0-17.0-6.0","",""
"440","sound/asl/silence.wav","50","audio-keyboard-response","481","259802","0.0-17.0-7.0","true",""
"null","sound/msl/dog.wav","null","audio-keyboard-response","482","260324","0.0-18.0-0.0","",""
"null","sound/msl/cat.wav","null","audio-keyboard-response","483","260834","0.0-18.0-1.0","",""
"null","sound/msl/duck.wav","null","audio-keyboard-response","484","261354","0.0-18.0-2.0","",""
"null","sound/asl/silence.wav","null","audio-keyboard-response","485","261858","0.0-18.0-3.0","",""
"null","sound/msl/goat.wav","null","audio-keyboard-response","486","262406","0.0-18.0-4.0","",""
"null","sound/msl/bird.wav","null","audio-keyboard-response","487","262924","0.0-18.0-5.0","",""
"null","sound/msl/duck.wav","null","audio-keyboard-response","488","263444","0.0-18.0-6.0","",""
"1178","sound/asl/silence.wav","50","audio-keyboard-response","489","264628","0.0-18.0-7.0","true",""
"null","sound/msl/goat.wav","null","audio-keyboard-response","490","265174","0.0-19.0-0.0","",""
"null","sound/msl/door.wav","null","audio-keyboard-response","491","265684","0.0-19.0-1.0","",""
"null","sound/msl/organ.wav","null","audio-keyboard-response","492","266194","0.0-19.0-2.0","",""
"null","sound/asl/silence.wav","null","audio-keyboard-response","493","266696","0.0-19.0-3.0","",""
"null","sound/msl/Water.wav","null","audio-keyboard-response","494","267214","0.0-19.0-4.0","",""
"null","sound/msl/clock.wav","null","audio-keyboard-response","495","267776","0.0-19.0-5.0","",""
"null","sound/msl/organ.wav","null","audio-keyboard-response","496","268284","0.0-19.0-6.0","",""
"2348","sound/asl/silence.wav","49","audio-keyboard-response","497","270640","0.0-19.0-7.0","false",""
"null","sound/msl/Water.wav","null","audio-keyboard-response","498","271154","0.0-20.0-0.0","",""
"null","sound/msl/frog.wav","null","audio-keyboard-response","499","271674","0.0-20.0-1.0","",""
"null","sound/msl/ding.wav","null","audio-keyboard-response","500","272194","0.0-20.0-2.0","",""
"null","sound/asl/silence.wav","null","audio-keyboard-response","501","272696","0.0-20.0-3.0","",""
"null","sound/msl/goat.wav","null","audio-keyboard-response","502","273246","0.0-20.0-4.0","",""
"null","sound/msl/bird.wav","null","audio-keyboard-response","503","273764","0.0-20.0-5.0","",""
"null","sound/msl/duck.wav","null","audio-keyboard-response","504","274284","0.0-20.0-6.0","",""
"458","sound/asl/silence.wav","50","audio-keyboard-response","505","274746","0.0-20.0-7.0","true",""
"null","sound/msl/slide_whistle.wav","null","audio-keyboard-response","506","275254","0.0-21.0-0.0","",""
"null","sound/msl/bird.wav","null","audio-keyboard-response","507","275764","0.0-21.0-1.0","",""
"null","sound/msl/cow.wav","null","audio-keyboard-response","508","276284","0.0-21.0-2.0","",""
"null","sound/asl/silence.wav","null","audio-keyboard-response","509","276784","0.0-21.0-3.0","",""
"null","sound/msl/dog.wav","null","audio-keyboard-response","510","277294","0.0-21.0-4.0","",""
"null","sound/msl/frog.wav","null","audio-keyboard-response","511","277804","0.0-21.0-5.0","",""
"null","sound/msl/door_bell.wav","null","audio-keyboard-response","512","278324","0.0-21.0-6.0","",""
"258","sound/asl/silence.wav","49","audio-keyboard-response","513","278594","0.0-21.0-7.0","false",""
"null","sound/msl/Water.wav","null","audio-keyboard-response","514","279114","0.0-22.0-0.0","",""
"null","sound/msl/frog.wav","null","audio-keyboard-response","515","279634","0.0-22.0-1.0","",""
"null","sound/msl/ding.wav","null","audio-keyboard-response","516","280154","0.0-22.0-2.0","",""
"null","sound/asl/silence.wav","null","audio-keyboard-response","517","280654","0.0-22.0-3.0","",""
"null","sound/msl/boing.wav","null","audio-keyboard-response","518","281164","0.0-22.0-4.0","",""
"null","sound/msl/door.wav","null","audio-keyboard-response","519","281674","0.0-22.0-5.0","",""
"null","sound/msl/cow.wav","null","audio-keyboard-response","520","282194","0.0-22.0-6.0","",""
"350","sound/asl/silence.wav","50","audio-keyboard-response","521","282554","0.0-22.0-7.0","true",""
"null","sound/msl/slide_whistle.wav","null","audio-keyboard-response","522","283074","0.0-23.0-0.0","",""
"null","sound/msl/cat.wav","null","audio-keyboard-response","523","283584","0.0-23.0-1.0","",""
"null","sound/msl/ding.wav","null","audio-keyboard-response","524","284094","0.0-23.0-2.0","",""
"null","sound/asl/silence.wav","null","audio-keyboard-response","525","284594","0.0-23.0-3.0","",""
"null","sound/msl/Water.wav","null","audio-keyboard-response","526","285114","0.0-23.0-4.0","",""
"null","sound/msl/frog.wav","null","audio-keyboard-response","527","285634","0.0-23.0-5.0","",""
"null","sound/msl/ding.wav","null","audio-keyboard-response","528","286154","0.0-23.0-6.0","",""
"452","sound/asl/silence.wav","49","audio-keyboard-response","529","286616","0.0-23.0-7.0","true",""
"null","sound/msl/slide_whistle.wav","null","audio-keyboard-response","530","287124","0.0-24.0-0.0","",""
"null","sound/msl/cat.wav","null","audio-keyboard-response","531","287634","0.0-24.0-1.0","",""
"null","sound/msl/ding.wav","null","audio-keyboard-response","532","288154","0.0-24.0-2.0","",""
"null","sound/asl/silence.wav","null","audio-keyboard-response","533","288656","0.0-24.0-3.0","",""
"null","sound/msl/dog.wav","null","audio-keyboard-response","534","289164","0.0-24.0-4.0","",""
"null","sound/msl/cat.wav","null","audio-keyboard-response","535","289674","0.0-24.0-5.0","",""
"null","sound/msl/duck.wav","null","audio-keyboard-response","536","290194","0.0-24.0-6.0","",""
"560","sound/asl/silence.wav","49","audio-keyboard-response","537","290762","0.0-24.0-7.0","true",""
"null","sound/msl/dog.wav","null","audio-keyboard-response","538","291274","0.0-25.0-0.0","",""
"null","sound/msl/frog.wav","null","audio-keyboard-response","539","291794","0.0-25.0-1.0","",""
"null","sound/msl/door_bell.wav","null","audio-keyboard-response","540","292314","0.0-25.0-2.0","",""
"null","sound/asl/silence.wav","null","audio-keyboard-response","541","292816","0.0-25.0-3.0","",""
"null","sound/msl/Water.wav","null","audio-keyboard-response","542","293334","0.0-25.0-4.0","",""
"null","sound/msl/frog.wav","null","audio-keyboard-response","543","293844","0.0-25.0-5.0","",""
"null","sound/msl/ding.wav","null","audio-keyboard-response","544","294364","0.0-25.0-6.0","",""
"708","sound/asl/silence.wav","49","audio-keyboard-response","545","295082","0.0-25.0-7.0","true",""
"null","sound/msl/boing.wav","null","audio-keyboard-response","546","295584","0.0-26.0-0.0","",""
"null","sound/msl/clock.wav","null","audio-keyboard-response","547","296144","0.0-26.0-1.0","",""
"null","sound/msl/door_bell.wav","null","audio-keyboard-response","548","296654","0.0-26.0-2.0","",""
"null","sound/asl/silence.wav","null","audio-keyboard-response","549","297156","0.0-26.0-3.0","",""
"null","sound/msl/slide_whistle.wav","null","audio-keyboard-response","550","297674","0.0-26.0-4.0","",""
"null","sound/msl/cat.wav","null","audio-keyboard-response","551","298184","0.0-26.0-5.0","",""
"null","sound/msl/ding.wav","null","audio-keyboard-response","552","298694","0.0-26.0-6.0","",""
"1040","sound/asl/silence.wav","50","audio-keyboard-response","553","299742","0.0-26.0-7.0","true",""
"null","sound/msl/slide_whistle.wav","null","audio-keyboard-response","554","300254","0.0-27.0-0.0","",""
"null","sound/msl/bird.wav","null","audio-keyboard-response","555","300764","0.0-27.0-1.0","",""
"null","sound/msl/cow.wav","null","audio-keyboard-response","556","301284","0.0-27.0-2.0","",""
"null","sound/asl/silence.wav","null","audio-keyboard-response","557","301786","0.0-27.0-3.0","",""
"null","sound/msl/slide_whistle.wav","null","audio-keyboard-response","558","302294","0.0-27.0-4.0","",""
"null","sound/msl/cat.wav","null","audio-keyboard-response","559","302804","0.0-27.0-5.0","",""
"null","sound/msl/ding.wav","null","audio-keyboard-response","560","303324","0.0-27.0-6.0","",""
"240","sound/asl/silence.wav","49","audio-keyboard-response","561","303568","0.0-27.0-7.0","false",""
"2116","","","instructions","562","305686","0.0-28.0","","[{""page_index"":0,""viewing_time"":2116}]"
