"rt","stimulus","key_press","trial_type","trial_index","time_elapsed","internal_node_id","correct","view_history"
"22084","alien.jpg","49","image-keyboard-response","0","22092","0.0-0.0","",""
"null","sound/msl/clock.wav","null","audio-keyboard-response","1","22639","0.0-1.0-0.0","",""
"null","sound/msl/goat.wav","null","audio-keyboard-response","2","23177","0.0-1.0-1.0","",""
"null","sound/msl/frog.wav","null","audio-keyboard-response","3","23677","0.0-1.0-2.0","",""
"null","sound/msl/Water.wav","null","audio-keyboard-response","4","24187","0.0-1.0-3.0","",""
"null","sound/msl/boing.wav","null","audio-keyboard-response","5","24687","0.0-1.0-4.0","",""
"null","sound/msl/bird.wav","null","audio-keyboard-response","6","25187","0.0-1.0-5.0","",""
"null","sound/msl/door.wav","null","audio-keyboard-response","7","25688","0.0-1.0-6.0","",""
"null","sound/msl/cow.wav","null","audio-keyboard-response","8","26188","0.0-1.0-7.0","",""
"null","sound/msl/duck.wav","null","audio-keyboard-response","9","26698","0.0-1.0-8.0","",""
"null","sound/msl/ding.wav","null","audio-keyboard-response","10","27199","0.0-1.0-9.0","",""
"null","sound/msl/door_bell.wav","null","audio-keyboard-response","11","27708","0.0-1.0-10.0","",""
"null","sound/msl/cat.wav","null","audio-keyboard-response","12","28209","0.0-1.0-11.0","",""
"null","sound/msl/Water.wav","null","audio-keyboard-response","13","28718","0.0-1.0-12.0","",""
"null","sound/msl/boing.wav","null","audio-keyboard-response","14","29219","0.0-1.0-13.0","",""
"null","sound/msl/bird.wav","null","audio-keyboard-response","15","29719","0.0-1.0-14.0","",""
"null","sound/msl/clock.wav","null","audio-keyboard-response","16","30271","0.0-1.0-15.0","",""
"null","sound/msl/goat.wav","null","audio-keyboard-response","17","30807","0.0-1.0-16.0","",""
"null","sound/msl/frog.wav","null","audio-keyboard-response","18","31309","0.0-1.0-17.0","",""
"null","sound/msl/organ.wav","null","audio-keyboard-response","19","31809","0.0-1.0-18.0","",""
"null","sound/msl/dog.wav","null","audio-keyboard-response","20","32307","0.0-1.0-19.0","",""
"null","sound/msl/slide_whistle.wav","null","audio-keyboard-response","21","32807","0.0-1.0-20.0","",""
"null","sound/msl/ding.wav","null","audio-keyboard-response","22","33307","0.0-1.0-21.0","",""
"null","sound/msl/door_bell.wav","null","audio-keyboard-response","23","33816","0.0-1.0-22.0","",""
"null","sound/msl/cat.wav","null","audio-keyboard-response","24","34317","0.0-1.0-23.0","",""
"null","sound/msl/door.wav","null","audio-keyboard-response","25","34819","0.0-1.0-24.0","",""
"null","sound/msl/cow.wav","null","audio-keyboard-response","26","35318","0.0-1.0-25.0","",""
"null","sound/msl/duck.wav","null","audio-keyboard-response","27","35827","0.0-1.0-26.0","",""
"null","sound/msl/clock.wav","null","audio-keyboard-response","28","36378","0.0-1.0-27.0","",""
"null","sound/msl/goat.wav","null","audio-keyboard-response","29","36918","0.0-1.0-28.0","",""
"null","sound/msl/frog.wav","null","audio-keyboard-response","30","37427","0.0-1.0-29.0","",""
"null","sound/msl/Water.wav","null","audio-keyboard-response","31","37938","0.0-1.0-30.0","",""
"null","sound/msl/boing.wav","null","audio-keyboard-response","32","38438","0.0-1.0-31.0","",""
"null","sound/msl/bird.wav","null","audio-keyboard-response","33","38948","0.0-1.0-32.0","",""
"null","sound/msl/organ.wav","null","audio-keyboard-response","34","39447","0.0-1.0-33.0","",""
"null","sound/msl/dog.wav","null","audio-keyboard-response","35","39947","0.0-1.0-34.0","",""
"null","sound/msl/slide_whistle.wav","null","audio-keyboard-response","36","40447","0.0-1.0-35.0","",""
"null","sound/msl/door.wav","null","audio-keyboard-response","37","40947","0.0-1.0-36.0","",""
"null","sound/msl/cow.wav","null","audio-keyboard-response","38","41457","0.0-1.0-37.0","",""
"null","sound/msl/duck.wav","null","audio-keyboard-response","39","41957","0.0-1.0-38.0","",""
"null","sound/msl/ding.wav","null","audio-keyboard-response","40","42467","0.0-1.0-39.0","",""
"null","sound/msl/door_bell.wav","null","audio-keyboard-response","41","42977","0.0-1.0-40.0","",""
"null","sound/msl/cat.wav","null","audio-keyboard-response","42","43477","0.0-1.0-41.0","",""
"null","sound/msl/organ.wav","null","audio-keyboard-response","43","43977","0.0-1.0-42.0","",""
"null","sound/msl/dog.wav","null","audio-keyboard-response","44","44477","0.0-1.0-43.0","",""
"null","sound/msl/slide_whistle.wav","null","audio-keyboard-response","45","44977","0.0-1.0-44.0","",""
"null","sound/msl/Water.wav","null","audio-keyboard-response","46","45487","0.0-1.0-45.0","",""
"null","sound/msl/boing.wav","null","audio-keyboard-response","47","45988","0.0-1.0-46.0","",""
"null","sound/msl/bird.wav","null","audio-keyboard-response","48","46497","0.0-1.0-47.0","",""
"null","sound/msl/door.wav","null","audio-keyboard-response","49","46997","0.0-1.0-48.0","",""
"null","sound/msl/cow.wav","null","audio-keyboard-response","50","47507","0.0-1.0-49.0","",""
"null","sound/msl/duck.wav","null","audio-keyboard-response","51","48017","0.0-1.0-50.0","",""
"null","sound/msl/clock.wav","null","audio-keyboard-response","52","48566","0.0-1.0-51.0","",""
"null","sound/msl/goat.wav","null","audio-keyboard-response","53","49106","0.0-1.0-52.0","",""
"null","sound/msl/frog.wav","null","audio-keyboard-response","54","49621","0.0-1.0-53.0","",""
"null","sound/msl/Water.wav","null","audio-keyboard-response","55","50136","0.0-1.0-54.0","",""
"null","sound/msl/boing.wav","null","audio-keyboard-response","56","50637","0.0-1.0-55.0","",""
"null","sound/msl/bird.wav","null","audio-keyboard-response","57","51147","0.0-1.0-56.0","",""
"null","sound/msl/door.wav","null","audio-keyboard-response","58","51646","0.0-1.0-57.0","",""
"null","sound/msl/cow.wav","null","audio-keyboard-response","59","52147","0.0-1.0-58.0","",""
"null","sound/msl/duck.wav","null","audio-keyboard-response","60","52656","0.0-1.0-59.0","",""
"null","sound/msl/ding.wav","null","audio-keyboard-response","61","53157","0.0-1.0-60.0","",""
"null","sound/msl/door_bell.wav","null","audio-keyboard-response","62","53667","0.0-1.0-61.0","",""
"null","sound/msl/cat.wav","null","audio-keyboard-response","63","54167","0.0-1.0-62.0","",""
"null","sound/msl/organ.wav","null","audio-keyboard-response","64","54667","0.0-1.0-63.0","",""
"null","sound/msl/dog.wav","null","audio-keyboard-response","65","55178","0.0-1.0-64.0","",""
"null","sound/msl/slide_whistle.wav","null","audio-keyboard-response","66","55677","0.0-1.0-65.0","",""
"null","sound/msl/Water.wav","null","audio-keyboard-response","67","56187","0.0-1.0-66.0","",""
"null","sound/msl/boing.wav","null","audio-keyboard-response","68","56688","0.0-1.0-67.0","",""
"null","sound/msl/bird.wav","null","audio-keyboard-response","69","57188","0.0-1.0-68.0","",""
"null","sound/msl/clock.wav","null","audio-keyboard-response","70","57737","0.0-1.0-69.0","",""
"null","sound/msl/goat.wav","null","audio-keyboard-response","71","58278","0.0-1.0-70.0","",""
"null","sound/msl/frog.wav","null","audio-keyboard-response","72","58787","0.0-1.0-71.0","",""
"null","sound/msl/door.wav","null","audio-keyboard-response","73","59290","0.0-1.0-72.0","",""
"null","sound/msl/cow.wav","null","audio-keyboard-response","74","59789","0.0-1.0-73.0","",""
"null","sound/msl/duck.wav","null","audio-keyboard-response","75","60299","0.0-1.0-74.0","",""
"null","sound/msl/ding.wav","null","audio-keyboard-response","76","60797","0.0-1.0-75.0","",""
"null","sound/msl/door_bell.wav","null","audio-keyboard-response","77","61306","0.0-1.0-76.0","",""
"null","sound/msl/cat.wav","null","audio-keyboard-response","78","61807","0.0-1.0-77.0","",""
"null","sound/msl/door.wav","null","audio-keyboard-response","79","62309","0.0-1.0-78.0","",""
"null","sound/msl/cow.wav","null","audio-keyboard-response","80","62817","0.0-1.0-79.0","",""
"null","sound/msl/duck.wav","null","audio-keyboard-response","81","63316","0.0-1.0-80.0","",""
"null","sound/msl/organ.wav","null","audio-keyboard-response","82","63816","0.0-1.0-81.0","",""
"null","sound/msl/dog.wav","null","audio-keyboard-response","83","64319","0.0-1.0-82.0","",""
"null","sound/msl/slide_whistle.wav","null","audio-keyboard-response","84","64819","0.0-1.0-83.0","",""
"null","sound/msl/clock.wav","null","audio-keyboard-response","85","65368","0.0-1.0-84.0","",""
"null","sound/msl/goat.wav","null","audio-keyboard-response","86","65909","0.0-1.0-85.0","",""
"null","sound/msl/frog.wav","null","audio-keyboard-response","87","66417","0.0-1.0-86.0","",""
"null","sound/msl/Water.wav","null","audio-keyboard-response","88","66929","0.0-1.0-87.0","",""
"null","sound/msl/boing.wav","null","audio-keyboard-response","89","67427","0.0-1.0-88.0","",""
"null","sound/msl/bird.wav","null","audio-keyboard-response","90","67938","0.0-1.0-89.0","",""
"null","sound/msl/organ.wav","null","audio-keyboard-response","91","68437","0.0-1.0-90.0","",""
"null","sound/msl/dog.wav","null","audio-keyboard-response","92","68947","0.0-1.0-91.0","",""
"null","sound/msl/slide_whistle.wav","null","audio-keyboard-response","93","69447","0.0-1.0-92.0","",""
"null","sound/msl/ding.wav","null","audio-keyboard-response","94","69949","0.0-1.0-93.0","",""
"null","sound/msl/door_bell.wav","null","audio-keyboard-response","95","70457","0.0-1.0-94.0","",""
"null","sound/msl/cat.wav","null","audio-keyboard-response","96","70958","0.0-1.0-95.0","",""
"null","sound/msl/door.wav","null","audio-keyboard-response","97","71458","0.0-1.0-96.0","",""
"null","sound/msl/cow.wav","null","audio-keyboard-response","98","71958","0.0-1.0-97.0","",""
"null","sound/msl/duck.wav","null","audio-keyboard-response","99","72467","0.0-1.0-98.0","",""
"null","sound/msl/Water.wav","null","audio-keyboard-response","100","72978","0.0-1.0-99.0","",""
"null","sound/msl/boing.wav","null","audio-keyboard-response","101","73477","0.0-1.0-100.0","",""
"null","sound/msl/bird.wav","null","audio-keyboard-response","102","73986","0.0-1.0-101.0","",""
"null","sound/msl/organ.wav","null","audio-keyboard-response","103","74487","0.0-1.0-102.0","",""
"null","sound/msl/dog.wav","null","audio-keyboard-response","104","74987","0.0-1.0-103.0","",""
"null","sound/msl/slide_whistle.wav","null","audio-keyboard-response","105","75488","0.0-1.0-104.0","",""
"null","sound/msl/clock.wav","null","audio-keyboard-response","106","76039","0.0-1.0-105.0","",""
"null","sound/msl/goat.wav","null","audio-keyboard-response","107","76576","0.0-1.0-106.0","",""
"null","sound/msl/frog.wav","null","audio-keyboard-response","108","77078","0.0-1.0-107.0","",""
"null","sound/msl/Water.wav","null","audio-keyboard-response","109","77587","0.0-1.0-108.0","",""
"null","sound/msl/boing.wav","null","audio-keyboard-response","110","78087","0.0-1.0-109.0","",""
"null","sound/msl/bird.wav","null","audio-keyboard-response","111","78587","0.0-1.0-110.0","",""
"null","sound/msl/ding.wav","null","audio-keyboard-response","112","79098","0.0-1.0-111.0","",""
"null","sound/msl/door_bell.wav","null","audio-keyboard-response","113","79597","0.0-1.0-112.0","",""
"null","sound/msl/cat.wav","null","audio-keyboard-response","114","80098","0.0-1.0-113.0","",""
"null","sound/msl/organ.wav","null","audio-keyboard-response","115","80596","0.0-1.0-114.0","",""
"null","sound/msl/dog.wav","null","audio-keyboard-response","116","81109","0.0-1.0-115.0","",""
"null","sound/msl/slide_whistle.wav","null","audio-keyboard-response","117","81609","0.0-1.0-116.0","",""
"null","sound/msl/door.wav","null","audio-keyboard-response","118","82109","0.0-1.0-117.0","",""
"null","sound/msl/cow.wav","null","audio-keyboard-response","119","82618","0.0-1.0-118.0","",""
"null","sound/msl/duck.wav","null","audio-keyboard-response","120","83120","0.0-1.0-119.0","",""
"null","sound/msl/clock.wav","null","audio-keyboard-response","121","83668","0.0-1.0-120.0","",""
"null","sound/msl/goat.wav","null","audio-keyboard-response","122","84210","0.0-1.0-121.0","",""
"null","sound/msl/frog.wav","null","audio-keyboard-response","123","84708","0.0-1.0-122.0","",""
"null","sound/msl/Water.wav","null","audio-keyboard-response","124","85217","0.0-1.0-123.0","",""
"null","sound/msl/boing.wav","null","audio-keyboard-response","125","85717","0.0-1.0-124.0","",""
"null","sound/msl/bird.wav","null","audio-keyboard-response","126","86230","0.0-1.0-125.0","",""
"null","sound/msl/organ.wav","null","audio-keyboard-response","127","86728","0.0-1.0-126.0","",""
"null","sound/msl/dog.wav","null","audio-keyboard-response","128","87227","0.0-1.0-127.0","",""
"null","sound/msl/slide_whistle.wav","null","audio-keyboard-response","129","87728","0.0-1.0-128.0","",""
"null","sound/msl/ding.wav","null","audio-keyboard-response","130","88226","0.0-1.0-129.0","",""
"null","sound/msl/door_bell.wav","null","audio-keyboard-response","131","88736","0.0-1.0-130.0","",""
"null","sound/msl/cat.wav","null","audio-keyboard-response","132","89237","0.0-1.0-131.0","",""
"null","sound/msl/Water.wav","null","audio-keyboard-response","133","89746","0.0-1.0-132.0","",""
"null","sound/msl/boing.wav","null","audio-keyboard-response","134","90249","0.0-1.0-133.0","",""
"null","sound/msl/bird.wav","null","audio-keyboard-response","135","90748","0.0-1.0-134.0","",""
"null","sound/msl/door.wav","null","audio-keyboard-response","136","91249","0.0-1.0-135.0","",""
"null","sound/msl/cow.wav","null","audio-keyboard-response","137","91747","0.0-1.0-136.0","",""
"null","sound/msl/duck.wav","null","audio-keyboard-response","138","92257","0.0-1.0-137.0","",""
"null","sound/msl/ding.wav","null","audio-keyboard-response","139","92757","0.0-1.0-138.0","",""
"null","sound/msl/door_bell.wav","null","audio-keyboard-response","140","93267","0.0-1.0-139.0","",""
"null","sound/msl/cat.wav","null","audio-keyboard-response","141","93766","0.0-1.0-140.0","",""
"null","sound/msl/clock.wav","null","audio-keyboard-response","142","94318","0.0-1.0-141.0","",""
"null","sound/msl/goat.wav","null","audio-keyboard-response","143","94856","0.0-1.0-142.0","",""
"null","sound/msl/frog.wav","null","audio-keyboard-response","144","95357","0.0-1.0-143.0","",""
"null","sound/msl/organ.wav","null","audio-keyboard-response","145","95858","0.0-1.0-144.0","",""
"null","sound/msl/dog.wav","null","audio-keyboard-response","146","96357","0.0-1.0-145.0","",""
"null","sound/msl/slide_whistle.wav","null","audio-keyboard-response","147","96859","0.0-1.0-146.0","",""
"null","sound/msl/door.wav","null","audio-keyboard-response","148","97357","0.0-1.0-147.0","",""
"null","sound/msl/cow.wav","null","audio-keyboard-response","149","97868","0.0-1.0-148.0","",""
"null","sound/msl/duck.wav","null","audio-keyboard-response","150","98378","0.0-1.0-149.0","",""
"null","sound/msl/clock.wav","null","audio-keyboard-response","151","98928","0.0-1.0-150.0","",""
"null","sound/msl/goat.wav","null","audio-keyboard-response","152","99467","0.0-1.0-151.0","",""
"null","sound/msl/frog.wav","null","audio-keyboard-response","153","99978","0.0-1.0-152.0","",""
"null","sound/msl/Water.wav","null","audio-keyboard-response","154","100487","0.0-1.0-153.0","",""
"null","sound/msl/boing.wav","null","audio-keyboard-response","155","100987","0.0-1.0-154.0","",""
"null","sound/msl/bird.wav","null","audio-keyboard-response","156","101497","0.0-1.0-155.0","",""
"null","sound/msl/ding.wav","null","audio-keyboard-response","157","101997","0.0-1.0-156.0","",""
"null","sound/msl/door_bell.wav","null","audio-keyboard-response","158","102507","0.0-1.0-157.0","",""
"null","sound/msl/cat.wav","null","audio-keyboard-response","159","103007","0.0-1.0-158.0","",""
"null","sound/msl/organ.wav","null","audio-keyboard-response","160","103506","0.0-1.0-159.0","",""
"null","sound/msl/dog.wav","null","audio-keyboard-response","161","104017","0.0-1.0-160.0","",""
"null","sound/msl/slide_whistle.wav","null","audio-keyboard-response","162","104516","0.0-1.0-161.0","",""
"null","sound/msl/Water.wav","null","audio-keyboard-response","163","105028","0.0-1.0-162.0","",""
"null","sound/msl/boing.wav","null","audio-keyboard-response","164","105527","0.0-1.0-163.0","",""
"null","sound/msl/bird.wav","null","audio-keyboard-response","165","106027","0.0-1.0-164.0","",""
"null","sound/msl/ding.wav","null","audio-keyboard-response","166","106536","0.0-1.0-165.0","",""
"null","sound/msl/door_bell.wav","null","audio-keyboard-response","167","107036","0.0-1.0-166.0","",""
"null","sound/msl/cat.wav","null","audio-keyboard-response","168","107537","0.0-1.0-167.0","",""
"null","sound/msl/clock.wav","null","audio-keyboard-response","169","108087","0.0-1.0-168.0","",""
"null","sound/msl/goat.wav","null","audio-keyboard-response","170","108626","0.0-1.0-169.0","",""
"null","sound/msl/frog.wav","null","audio-keyboard-response","171","109137","0.0-1.0-170.0","",""
"null","sound/msl/door.wav","null","audio-keyboard-response","172","109637","0.0-1.0-171.0","",""
"null","sound/msl/cow.wav","null","audio-keyboard-response","173","110147","0.0-1.0-172.0","",""
"null","sound/msl/duck.wav","null","audio-keyboard-response","174","110657","0.0-1.0-173.0","",""
"null","sound/msl/organ.wav","null","audio-keyboard-response","175","111157","0.0-1.0-174.0","",""
"null","sound/msl/dog.wav","null","audio-keyboard-response","176","111667","0.0-1.0-175.0","",""
"null","sound/msl/slide_whistle.wav","null","audio-keyboard-response","177","112166","0.0-1.0-176.0","",""
"null","sound/msl/Water.wav","null","audio-keyboard-response","178","112677","0.0-1.0-177.0","",""
"null","sound/msl/boing.wav","null","audio-keyboard-response","179","113179","0.0-1.0-178.0","",""
"null","sound/msl/bird.wav","null","audio-keyboard-response","180","113677","0.0-1.0-179.0","",""
"null","sound/msl/door.wav","null","audio-keyboard-response","181","114176","0.0-1.0-180.0","",""
"null","sound/msl/cow.wav","null","audio-keyboard-response","182","114678","0.0-1.0-181.0","",""
"null","sound/msl/duck.wav","null","audio-keyboard-response","183","115187","0.0-1.0-182.0","",""
"null","sound/msl/ding.wav","null","audio-keyboard-response","184","115698","0.0-1.0-183.0","",""
"null","sound/msl/door_bell.wav","null","audio-keyboard-response","185","116199","0.0-1.0-184.0","",""
"null","sound/msl/cat.wav","null","audio-keyboard-response","186","116697","0.0-1.0-185.0","",""
"null","sound/msl/clock.wav","null","audio-keyboard-response","187","117246","0.0-1.0-186.0","",""
"null","sound/msl/goat.wav","null","audio-keyboard-response","188","117788","0.0-1.0-187.0","",""
"null","sound/msl/frog.wav","null","audio-keyboard-response","189","118297","0.0-1.0-188.0","",""
"null","sound/msl/organ.wav","null","audio-keyboard-response","190","118798","0.0-1.0-189.0","",""
"null","sound/msl/dog.wav","null","audio-keyboard-response","191","119307","0.0-1.0-190.0","",""
"null","sound/msl/slide_whistle.wav","null","audio-keyboard-response","192","119809","0.0-1.0-191.0","",""
"null","sound/msl/Water.wav","null","audio-keyboard-response","193","120317","0.0-1.0-192.0","",""
"null","sound/msl/boing.wav","null","audio-keyboard-response","194","120818","0.0-1.0-193.0","",""
"null","sound/msl/bird.wav","null","audio-keyboard-response","195","121317","0.0-1.0-194.0","",""
"null","sound/msl/door.wav","null","audio-keyboard-response","196","121819","0.0-1.0-195.0","",""
"null","sound/msl/cow.wav","null","audio-keyboard-response","197","122319","0.0-1.0-196.0","",""
"null","sound/msl/duck.wav","null","audio-keyboard-response","198","122828","0.0-1.0-197.0","",""
"null","sound/msl/clock.wav","null","audio-keyboard-response","199","123377","0.0-1.0-198.0","",""
"null","sound/msl/goat.wav","null","audio-keyboard-response","200","123919","0.0-1.0-199.0","",""
"null","sound/msl/frog.wav","null","audio-keyboard-response","201","124427","0.0-1.0-200.0","",""
"null","sound/msl/ding.wav","null","audio-keyboard-response","202","124938","0.0-1.0-201.0","",""
"null","sound/msl/door_bell.wav","null","audio-keyboard-response","203","125437","0.0-1.0-202.0","",""
"null","sound/msl/cat.wav","null","audio-keyboard-response","204","125938","0.0-1.0-203.0","",""
"null","sound/msl/organ.wav","null","audio-keyboard-response","205","126437","0.0-1.0-204.0","",""
"null","sound/msl/dog.wav","null","audio-keyboard-response","206","126947","0.0-1.0-205.0","",""
"null","sound/msl/slide_whistle.wav","null","audio-keyboard-response","207","127447","0.0-1.0-206.0","",""
"null","sound/msl/Water.wav","null","audio-keyboard-response","208","127957","0.0-1.0-207.0","",""
"null","sound/msl/boing.wav","null","audio-keyboard-response","209","128457","0.0-1.0-208.0","",""
"null","sound/msl/bird.wav","null","audio-keyboard-response","210","128958","0.0-1.0-209.0","",""
"null","sound/msl/clock.wav","null","audio-keyboard-response","211","129507","0.0-1.0-210.0","",""
"null","sound/msl/goat.wav","null","audio-keyboard-response","212","130049","0.0-1.0-211.0","",""
"null","sound/msl/frog.wav","null","audio-keyboard-response","213","130548","0.0-1.0-212.0","",""
"null","sound/msl/organ.wav","null","audio-keyboard-response","214","131046","0.0-1.0-213.0","",""
"null","sound/msl/dog.wav","null","audio-keyboard-response","215","131549","0.0-1.0-214.0","",""
"null","sound/msl/slide_whistle.wav","null","audio-keyboard-response","216","132047","0.0-1.0-215.0","",""
"null","sound/msl/door.wav","null","audio-keyboard-response","217","132547","0.0-1.0-216.0","",""
"null","sound/msl/cow.wav","null","audio-keyboard-response","218","133057","0.0-1.0-217.0","",""
"null","sound/msl/duck.wav","null","audio-keyboard-response","219","133558","0.0-1.0-218.0","",""
"null","sound/msl/ding.wav","null","audio-keyboard-response","220","134067","0.0-1.0-219.0","",""
"null","sound/msl/door_bell.wav","null","audio-keyboard-response","221","134576","0.0-1.0-220.0","",""
"null","sound/msl/cat.wav","null","audio-keyboard-response","222","135078","0.0-1.0-221.0","",""
"null","sound/msl/Water.wav","null","audio-keyboard-response","223","135589","0.0-1.0-222.0","",""
"null","sound/msl/boing.wav","null","audio-keyboard-response","224","136089","0.0-1.0-223.0","",""
"null","sound/msl/bird.wav","null","audio-keyboard-response","225","136589","0.0-1.0-224.0","",""
"null","sound/msl/door.wav","null","audio-keyboard-response","226","137088","0.0-1.0-225.0","",""
"null","sound/msl/cow.wav","null","audio-keyboard-response","227","137588","0.0-1.0-226.0","",""
"null","sound/msl/duck.wav","null","audio-keyboard-response","228","138099","0.0-1.0-227.0","",""
"null","sound/msl/organ.wav","null","audio-keyboard-response","229","138597","0.0-1.0-228.0","",""
"null","sound/msl/dog.wav","null","audio-keyboard-response","230","139107","0.0-1.0-229.0","",""
"null","sound/msl/slide_whistle.wav","null","audio-keyboard-response","231","139608","0.0-1.0-230.0","",""
"null","sound/msl/door.wav","null","audio-keyboard-response","232","140107","0.0-1.0-231.0","",""
"null","sound/msl/cow.wav","null","audio-keyboard-response","233","140618","0.0-1.0-232.0","",""
"null","sound/msl/duck.wav","null","audio-keyboard-response","234","141118","0.0-1.0-233.0","",""
"null","sound/msl/Water.wav","null","audio-keyboard-response","235","141628","0.0-1.0-234.0","",""
"null","sound/msl/boing.wav","null","audio-keyboard-response","236","142129","0.0-1.0-235.0","",""
"null","sound/msl/bird.wav","null","audio-keyboard-response","237","142629","0.0-1.0-236.0","",""
"null","sound/msl/ding.wav","null","audio-keyboard-response","238","143138","0.0-1.0-237.0","",""
"null","sound/msl/door_bell.wav","null","audio-keyboard-response","239","143638","0.0-1.0-238.0","",""
"null","sound/msl/cat.wav","null","audio-keyboard-response","240","144139","0.0-1.0-239.0","",""
"null","sound/msl/clock.wav","null","audio-keyboard-response","241","144687","0.0-1.0-240.0","",""
"null","sound/msl/goat.wav","null","audio-keyboard-response","242","145229","0.0-1.0-241.0","",""
"null","sound/msl/frog.wav","null","audio-keyboard-response","243","145737","0.0-1.0-242.0","",""
"null","sound/msl/organ.wav","null","audio-keyboard-response","244","146237","0.0-1.0-243.0","",""
"null","sound/msl/dog.wav","null","audio-keyboard-response","245","146747","0.0-1.0-244.0","",""
"null","sound/msl/slide_whistle.wav","null","audio-keyboard-response","246","147247","0.0-1.0-245.0","",""
"null","sound/msl/Water.wav","null","audio-keyboard-response","247","147757","0.0-1.0-246.0","",""
"null","sound/msl/boing.wav","null","audio-keyboard-response","248","148259","0.0-1.0-247.0","",""
"null","sound/msl/bird.wav","null","audio-keyboard-response","249","148757","0.0-1.0-248.0","",""
"null","sound/msl/ding.wav","null","audio-keyboard-response","250","149268","0.0-1.0-249.0","",""
"null","sound/msl/door_bell.wav","null","audio-keyboard-response","251","149776","0.0-1.0-250.0","",""
"null","sound/msl/cat.wav","null","audio-keyboard-response","252","150278","0.0-1.0-251.0","",""
"null","sound/msl/clock.wav","null","audio-keyboard-response","253","150826","0.0-1.0-252.0","",""
"null","sound/msl/goat.wav","null","audio-keyboard-response","254","151367","0.0-1.0-253.0","",""
"null","sound/msl/frog.wav","null","audio-keyboard-response","255","151867","0.0-1.0-254.0","",""
"null","sound/msl/door.wav","null","audio-keyboard-response","256","152369","0.0-1.0-255.0","",""
"null","sound/msl/cow.wav","null","audio-keyboard-response","257","152868","0.0-1.0-256.0","",""
"null","sound/msl/duck.wav","null","audio-keyboard-response","258","153377","0.0-1.0-257.0","",""
"null","sound/msl/organ.wav","null","audio-keyboard-response","259","153878","0.0-1.0-258.0","",""
"null","sound/msl/dog.wav","null","audio-keyboard-response","260","154388","0.0-1.0-259.0","",""
"null","sound/msl/slide_whistle.wav","null","audio-keyboard-response","261","154887","0.0-1.0-260.0","",""
"null","sound/msl/clock.wav","null","audio-keyboard-response","262","155437","0.0-1.0-261.0","",""
"null","sound/msl/goat.wav","null","audio-keyboard-response","263","155977","0.0-1.0-262.0","",""
"null","sound/msl/frog.wav","null","audio-keyboard-response","264","156477","0.0-1.0-263.0","",""
"null","sound/msl/ding.wav","null","audio-keyboard-response","265","156987","0.0-1.0-264.0","",""
"null","sound/msl/door_bell.wav","null","audio-keyboard-response","266","157497","0.0-1.0-265.0","",""
"null","sound/msl/cat.wav","null","audio-keyboard-response","267","157998","0.0-1.0-266.0","",""
"null","sound/msl/door.wav","null","audio-keyboard-response","268","158497","0.0-1.0-267.0","",""
"null","sound/msl/cow.wav","null","audio-keyboard-response","269","158997","0.0-1.0-268.0","",""
"null","sound/msl/duck.wav","null","audio-keyboard-response","270","159507","0.0-1.0-269.0","",""
"null","sound/msl/Water.wav","null","audio-keyboard-response","271","160018","0.0-1.0-270.0","",""
"null","sound/msl/boing.wav","null","audio-keyboard-response","272","160517","0.0-1.0-271.0","",""
"null","sound/msl/bird.wav","null","audio-keyboard-response","273","161028","0.0-1.0-272.0","",""
"null","sound/msl/organ.wav","null","audio-keyboard-response","274","161526","0.0-1.0-273.0","",""
"null","sound/msl/dog.wav","null","audio-keyboard-response","275","162027","0.0-1.0-274.0","",""
"null","sound/msl/slide_whistle.wav","null","audio-keyboard-response","276","162527","0.0-1.0-275.0","",""
"null","sound/msl/clock.wav","null","audio-keyboard-response","277","163077","0.0-1.0-276.0","",""
"null","sound/msl/goat.wav","null","audio-keyboard-response","278","163618","0.0-1.0-277.0","",""
"null","sound/msl/frog.wav","null","audio-keyboard-response","279","164116","0.0-1.0-278.0","",""
"null","sound/msl/ding.wav","null","audio-keyboard-response","280","164627","0.0-1.0-279.0","",""
"null","sound/msl/door_bell.wav","null","audio-keyboard-response","281","165139","0.0-1.0-280.0","",""
"null","sound/msl/cat.wav","null","audio-keyboard-response","282","165637","0.0-1.0-281.0","",""
"null","sound/msl/Water.wav","null","audio-keyboard-response","283","166147","0.0-1.0-282.0","",""
"null","sound/msl/boing.wav","null","audio-keyboard-response","284","166647","0.0-1.0-283.0","",""
"null","sound/msl/bird.wav","null","audio-keyboard-response","285","167148","0.0-1.0-284.0","",""
"null","sound/msl/door.wav","null","audio-keyboard-response","286","167647","0.0-1.0-285.0","",""
"null","sound/msl/cow.wav","null","audio-keyboard-response","287","168148","0.0-1.0-286.0","",""
"null","sound/msl/duck.wav","null","audio-keyboard-response","288","168657","0.0-1.0-287.0","",""
"null","sound/msl/organ.wav","null","audio-keyboard-response","289","169158","0.0-1.0-288.0","",""
"null","sound/msl/dog.wav","null","audio-keyboard-response","290","169668","0.0-1.0-289.0","",""
"null","sound/msl/slide_whistle.wav","null","audio-keyboard-response","291","170167","0.0-1.0-290.0","",""
"null","sound/msl/ding.wav","null","audio-keyboard-response","292","170667","0.0-1.0-291.0","",""
"null","sound/msl/door_bell.wav","null","audio-keyboard-response","293","171178","0.0-1.0-292.0","",""
"null","sound/msl/cat.wav","null","audio-keyboard-response","294","171677","0.0-1.0-293.0","",""
"null","sound/msl/clock.wav","null","audio-keyboard-response","295","172227","0.0-1.0-294.0","",""
"null","sound/msl/goat.wav","null","audio-keyboard-response","296","172766","0.0-1.0-295.0","",""
"null","sound/msl/frog.wav","null","audio-keyboard-response","297","173269","0.0-1.0-296.0","",""
"null","sound/msl/organ.wav","null","audio-keyboard-response","298","173769","0.0-1.0-297.0","",""
"null","sound/msl/dog.wav","null","audio-keyboard-response","299","174268","0.0-1.0-298.0","",""
"null","sound/msl/slide_whistle.wav","null","audio-keyboard-response","300","174767","0.0-1.0-299.0","",""
"null","sound/msl/Water.wav","null","audio-keyboard-response","301","175278","0.0-1.0-300.0","",""
"null","sound/msl/boing.wav","null","audio-keyboard-response","302","175777","0.0-1.0-301.0","",""
"null","sound/msl/bird.wav","null","audio-keyboard-response","303","176277","0.0-1.0-302.0","",""
"null","sound/msl/ding.wav","null","audio-keyboard-response","304","176788","0.0-1.0-303.0","",""
"null","sound/msl/door_bell.wav","null","audio-keyboard-response","305","177298","0.0-1.0-304.0","",""
"null","sound/msl/cat.wav","null","audio-keyboard-response","306","177797","0.0-1.0-305.0","",""
"null","sound/msl/door.wav","null","audio-keyboard-response","307","178296","0.0-1.0-306.0","",""
"null","sound/msl/cow.wav","null","audio-keyboard-response","308","178796","0.0-1.0-307.0","",""
"null","sound/msl/duck.wav","null","audio-keyboard-response","309","179307","0.0-1.0-308.0","",""
"null","sound/msl/clock.wav","null","audio-keyboard-response","310","179857","0.0-1.0-309.0","",""
"null","sound/msl/goat.wav","null","audio-keyboard-response","311","180397","0.0-1.0-310.0","",""
"null","sound/msl/frog.wav","null","audio-keyboard-response","312","180906","0.0-1.0-311.0","",""
"null","sound/msl/organ.wav","null","audio-keyboard-response","313","181407","0.0-1.0-312.0","",""
"null","sound/msl/dog.wav","null","audio-keyboard-response","314","181907","0.0-1.0-313.0","",""
"null","sound/msl/slide_whistle.wav","null","audio-keyboard-response","315","182407","0.0-1.0-314.0","",""
"null","sound/msl/Water.wav","null","audio-keyboard-response","316","182917","0.0-1.0-315.0","",""
"null","sound/msl/boing.wav","null","audio-keyboard-response","317","183417","0.0-1.0-316.0","",""
"null","sound/msl/bird.wav","null","audio-keyboard-response","318","183919","0.0-1.0-317.0","",""
"null","sound/msl/ding.wav","null","audio-keyboard-response","319","184427","0.0-1.0-318.0","",""
"null","sound/msl/door_bell.wav","null","audio-keyboard-response","320","184938","0.0-1.0-319.0","",""
"null","sound/msl/cat.wav","null","audio-keyboard-response","321","185437","0.0-1.0-320.0","",""
"null","sound/msl/clock.wav","null","audio-keyboard-response","322","185989","0.0-1.0-321.0","",""
"null","sound/msl/goat.wav","null","audio-keyboard-response","323","186528","0.0-1.0-322.0","",""
"null","sound/msl/frog.wav","null","audio-keyboard-response","324","187029","0.0-1.0-323.0","",""
"null","sound/msl/Water.wav","null","audio-keyboard-response","325","187538","0.0-1.0-324.0","",""
"null","sound/msl/boing.wav","null","audio-keyboard-response","326","188038","0.0-1.0-325.0","",""
"null","sound/msl/bird.wav","null","audio-keyboard-response","327","188548","0.0-1.0-326.0","",""
"null","sound/msl/door.wav","null","audio-keyboard-response","328","189048","0.0-1.0-327.0","",""
"null","sound/msl/cow.wav","null","audio-keyboard-response","329","189546","0.0-1.0-328.0","",""
"null","sound/msl/duck.wav","null","audio-keyboard-response","330","190057","0.0-1.0-329.0","",""
"null","sound/msl/organ.wav","null","audio-keyboard-response","331","190559","0.0-1.0-330.0","",""
"null","sound/msl/dog.wav","null","audio-keyboard-response","332","191067","0.0-1.0-331.0","",""
"null","sound/msl/slide_whistle.wav","null","audio-keyboard-response","333","191569","0.0-1.0-332.0","",""
"null","sound/msl/ding.wav","null","audio-keyboard-response","334","192068","0.0-1.0-333.0","",""
"null","sound/msl/door_bell.wav","null","audio-keyboard-response","335","192578","0.0-1.0-334.0","",""
"null","sound/msl/cat.wav","null","audio-keyboard-response","336","193080","0.0-1.0-335.0","",""
"null","sound/msl/door.wav","null","audio-keyboard-response","337","193577","0.0-1.0-336.0","",""
"null","sound/msl/cow.wav","null","audio-keyboard-response","338","194077","0.0-1.0-337.0","",""
"null","sound/msl/duck.wav","null","audio-keyboard-response","339","194588","0.0-1.0-338.0","",""
"null","sound/msl/clock.wav","null","audio-keyboard-response","340","195137","0.0-1.0-339.0","",""
"null","sound/msl/goat.wav","null","audio-keyboard-response","341","195677","0.0-1.0-340.0","",""
"null","sound/msl/frog.wav","null","audio-keyboard-response","342","196189","0.0-1.0-341.0","",""
"null","sound/msl/ding.wav","null","audio-keyboard-response","343","196700","0.0-1.0-342.0","",""
"null","sound/msl/door_bell.wav","null","audio-keyboard-response","344","197197","0.0-1.0-343.0","",""
"null","sound/msl/cat.wav","null","audio-keyboard-response","345","197698","0.0-1.0-344.0","",""
"null","sound/msl/clock.wav","null","audio-keyboard-response","346","198247","0.0-1.0-345.0","",""
"null","sound/msl/goat.wav","null","audio-keyboard-response","347","198788","0.0-1.0-346.0","",""
"null","sound/msl/frog.wav","null","audio-keyboard-response","348","199296","0.0-1.0-347.0","",""
"null","sound/msl/door.wav","null","audio-keyboard-response","349","199798","0.0-1.0-348.0","",""
"null","sound/msl/cow.wav","null","audio-keyboard-response","350","200306","0.0-1.0-349.0","",""
"null","sound/msl/duck.wav","null","audio-keyboard-response","351","200818","0.0-1.0-350.0","",""
"null","sound/msl/organ.wav","null","audio-keyboard-response","352","201317","0.0-1.0-351.0","",""
"null","sound/msl/dog.wav","null","audio-keyboard-response","353","201829","0.0-1.0-352.0","",""
"null","sound/msl/slide_whistle.wav","null","audio-keyboard-response","354","202328","0.0-1.0-353.0","",""
"null","sound/msl/ding.wav","null","audio-keyboard-response","355","202829","0.0-1.0-354.0","",""
"null","sound/msl/door_bell.wav","null","audio-keyboard-response","356","203339","0.0-1.0-355.0","",""
"null","sound/msl/cat.wav","null","audio-keyboard-response","357","203838","0.0-1.0-356.0","",""
"null","sound/msl/clock.wav","null","audio-keyboard-response","358","204388","0.0-1.0-357.0","",""
"null","sound/msl/goat.wav","null","audio-keyboard-response","359","204928","0.0-1.0-358.0","",""
"null","sound/msl/frog.wav","null","audio-keyboard-response","360","205427","0.0-1.0-359.0","",""
"81319","Instructions2-eng.png","49","image-keyboard-response","361","286748","0.0-2.0","",""
"null","sound/msl/clock.wav","null","audio-keyboard-response","362","288214","0.0-3.0-0.0","",""
"null","sound/msl/goat.wav","null","audio-keyboard-response","363","288752","0.0-3.0-1.0","",""
"null","sound/msl/frog.wav","null","audio-keyboard-response","364","289255","0.0-3.0-2.0","",""
"null","sound/asl/silence.wav","null","audio-keyboard-response","365","289758","0.0-3.0-3.0","",""
"null","sound/msl/ding.wav","null","audio-keyboard-response","366","290254","0.0-3.0-4.0","",""
"null","sound/msl/dog.wav","null","audio-keyboard-response","367","290764","0.0-3.0-5.0","",""
"null","sound/msl/frog.wav","null","audio-keyboard-response","368","291274","0.0-3.0-6.0","",""
"69","sound/asl/silence.wav","49","audio-keyboard-response","369","291348","0.0-3.0-7.0","true",""
"null","sound/msl/Water.wav","null","audio-keyboard-response","370","291854","0.0-4.0-0.0","",""
"null","sound/msl/boing.wav","null","audio-keyboard-response","371","292355","0.0-4.0-1.0","",""
"null","sound/msl/bird.wav","null","audio-keyboard-response","372","292854","0.0-4.0-2.0","",""
"null","sound/asl/silence.wav","null","audio-keyboard-response","373","293357","0.0-4.0-3.0","",""
"null","sound/msl/door.wav","null","audio-keyboard-response","374","293855","0.0-4.0-4.0","",""
"null","sound/msl/door_bell.wav","null","audio-keyboard-response","375","294364","0.0-4.0-5.0","",""
"null","sound/msl/slide_whistle.wav","null","audio-keyboard-response","376","294865","0.0-4.0-6.0","",""
"2421","sound/asl/silence.wav","49","audio-keyboard-response","377","297292","0.0-4.0-7.0","true",""
"null","sound/msl/ding.wav","null","audio-keyboard-response","378","297805","0.0-5.0-0.0","",""
"null","sound/msl/dog.wav","null","audio-keyboard-response","379","298315","0.0-5.0-1.0","",""
"null","sound/msl/frog.wav","null","audio-keyboard-response","380","298815","0.0-5.0-2.0","",""
"null","sound/asl/silence.wav","null","audio-keyboard-response","381","299316","0.0-5.0-3.0","",""
"null","sound/msl/Water.wav","null","audio-keyboard-response","382","299825","0.0-5.0-4.0","",""
"null","sound/msl/boing.wav","null","audio-keyboard-response","383","300324","0.0-5.0-5.0","",""
"null","sound/msl/bird.wav","null","audio-keyboard-response","384","300834","0.0-5.0-6.0","",""
"40","sound/asl/silence.wav","50","audio-keyboard-response","385","300884","0.0-5.0-7.0","true",""
"null","sound/msl/Water.wav","null","audio-keyboard-response","386","301394","0.0-6.0-0.0","",""
"null","sound/msl/boing.wav","null","audio-keyboard-response","387","301894","0.0-6.0-1.0","",""
"null","sound/msl/bird.wav","null","audio-keyboard-response","388","302404","0.0-6.0-2.0","",""
"null","sound/asl/silence.wav","null","audio-keyboard-response","389","302906","0.0-6.0-3.0","",""
"null","sound/msl/Water.wav","null","audio-keyboard-response","390","303414","0.0-6.0-4.0","",""
"null","sound/msl/cow.wav","null","audio-keyboard-response","391","303923","0.0-6.0-5.0","",""
"null","sound/msl/cat.wav","null","audio-keyboard-response","392","304423","0.0-6.0-6.0","",""
"1061","sound/asl/silence.wav","49","audio-keyboard-response","393","305491","0.0-6.0-7.0","true",""
"null","sound/msl/ding.wav","null","audio-keyboard-response","394","305994","0.0-7.0-0.0","",""
"null","sound/msl/door_bell.wav","null","audio-keyboard-response","395","306493","0.0-7.0-1.0","",""
"null","sound/msl/cat.wav","null","audio-keyboard-response","396","306994","0.0-7.0-2.0","",""
"null","sound/asl/silence.wav","null","audio-keyboard-response","397","307497","0.0-7.0-3.0","",""
"null","sound/msl/organ.wav","null","audio-keyboard-response","398","307993","0.0-7.0-4.0","",""
"null","sound/msl/goat.wav","null","audio-keyboard-response","399","308534","0.0-7.0-5.0","",""
"null","sound/msl/bird.wav","null","audio-keyboard-response","400","309043","0.0-7.0-6.0","",""
"451","sound/asl/silence.wav","50","audio-keyboard-response","401","309499","0.0-7.0-7.0","false",""
"null","sound/msl/Water.wav","null","audio-keyboard-response","402","310003","0.0-8.0-0.0","",""
"null","sound/msl/boing.wav","null","audio-keyboard-response","403","310504","0.0-8.0-1.0","",""
"null","sound/msl/bird.wav","null","audio-keyboard-response","404","311005","0.0-8.0-2.0","",""
"null","sound/asl/silence.wav","null","audio-keyboard-response","405","311506","0.0-8.0-3.0","",""
"null","sound/msl/clock.wav","null","audio-keyboard-response","406","312055","0.0-8.0-4.0","",""
"null","sound/msl/boing.wav","null","audio-keyboard-response","407","312554","0.0-8.0-5.0","",""
"null","sound/msl/duck.wav","null","audio-keyboard-response","408","313055","0.0-8.0-6.0","",""
"688","sound/asl/silence.wav","49","audio-keyboard-response","409","313747","0.0-8.0-7.0","true",""
"null","sound/msl/Water.wav","null","audio-keyboard-response","410","314253","0.0-9.0-0.0","",""
"null","sound/msl/cow.wav","null","audio-keyboard-response","411","314763","0.0-9.0-1.0","",""
"null","sound/msl/cat.wav","null","audio-keyboard-response","412","315263","0.0-9.0-2.0","",""
"null","sound/asl/silence.wav","null","audio-keyboard-response","413","315764","0.0-9.0-3.0","",""
"null","sound/msl/door.wav","null","audio-keyboard-response","414","316263","0.0-9.0-4.0","",""
"null","sound/msl/cow.wav","null","audio-keyboard-response","415","316763","0.0-9.0-5.0","",""
"null","sound/msl/duck.wav","null","audio-keyboard-response","416","317275","0.0-9.0-6.0","",""
"2920","sound/asl/silence.wav","49","audio-keyboard-response","417","320195","0.0-9.0-7.0","false",""
"null","sound/msl/Water.wav","null","audio-keyboard-response","418","320704","0.0-10.0-0.0","",""
"null","sound/msl/cow.wav","null","audio-keyboard-response","419","321205","0.0-10.0-1.0","",""
"null","sound/msl/cat.wav","null","audio-keyboard-response","420","321705","0.0-10.0-2.0","",""
"null","sound/asl/silence.wav","null","audio-keyboard-response","421","322208","0.0-10.0-3.0","",""
"null","sound/msl/ding.wav","null","audio-keyboard-response","422","322713","0.0-10.0-4.0","",""
"null","sound/msl/door_bell.wav","null","audio-keyboard-response","423","323216","0.0-10.0-5.0","",""
"null","sound/msl/cat.wav","null","audio-keyboard-response","424","323715","0.0-10.0-6.0","",""
"3091","sound/asl/silence.wav","49","audio-keyboard-response","425","326812","0.0-10.0-7.0","false",""
"null","sound/msl/clock.wav","null","audio-keyboard-response","426","327355","0.0-11.0-0.0","",""
"null","sound/msl/goat.wav","null","audio-keyboard-response","427","327895","0.0-11.0-1.0","",""
"null","sound/msl/frog.wav","null","audio-keyboard-response","428","328404","0.0-11.0-2.0","",""
"null","sound/asl/silence.wav","null","audio-keyboard-response","429","328905","0.0-11.0-3.0","",""
"null","sound/msl/organ.wav","null","audio-keyboard-response","430","329404","0.0-11.0-4.0","",""
"null","sound/msl/goat.wav","null","audio-keyboard-response","431","329943","0.0-11.0-5.0","",""
"null","sound/msl/bird.wav","null","audio-keyboard-response","432","330443","0.0-11.0-6.0","",""
"2891","sound/asl/silence.wav","49","audio-keyboard-response","433","333340","0.0-11.0-7.0","true",""
"null","sound/msl/door.wav","null","audio-keyboard-response","434","333834","0.0-12.0-0.0","",""
"null","sound/msl/cow.wav","null","audio-keyboard-response","435","334334","0.0-12.0-1.0","",""
"null","sound/msl/duck.wav","null","audio-keyboard-response","436","334844","0.0-12.0-2.0","",""
"null","sound/asl/silence.wav","null","audio-keyboard-response","437","335345","0.0-12.0-3.0","",""
"null","sound/msl/organ.wav","null","audio-keyboard-response","438","335845","0.0-12.0-4.0","",""
"null","sound/msl/goat.wav","null","audio-keyboard-response","439","336385","0.0-12.0-5.0","",""
"null","sound/msl/bird.wav","null","audio-keyboard-response","440","336885","0.0-12.0-6.0","",""
"6251","sound/asl/silence.wav","49","audio-keyboard-response","441","343140","0.0-12.0-7.0","true",""
"null","sound/msl/door.wav","null","audio-keyboard-response","442","343635","0.0-13.0-0.0","",""
"null","sound/msl/cow.wav","null","audio-keyboard-response","443","344134","0.0-13.0-1.0","",""
"null","sound/msl/duck.wav","null","audio-keyboard-response","444","344645","0.0-13.0-2.0","",""
"null","sound/asl/silence.wav","null","audio-keyboard-response","445","345147","0.0-13.0-3.0","",""
"null","sound/msl/clock.wav","null","audio-keyboard-response","446","345695","0.0-13.0-4.0","",""
"null","sound/msl/boing.wav","null","audio-keyboard-response","447","346195","0.0-13.0-5.0","",""
"null","sound/msl/duck.wav","null","audio-keyboard-response","448","346693","0.0-13.0-6.0","",""
"4229","sound/asl/silence.wav","50","audio-keyboard-response","449","350932","0.0-13.0-7.0","false",""
"null","sound/msl/door.wav","null","audio-keyboard-response","450","351423","0.0-14.0-0.0","",""
"null","sound/msl/door_bell.wav","null","audio-keyboard-response","451","351923","0.0-14.0-1.0","",""
"null","sound/msl/slide_whistle.wav","null","audio-keyboard-response","452","352424","0.0-14.0-2.0","",""
"null","sound/asl/silence.wav","null","audio-keyboard-response","453","352924","0.0-14.0-3.0","",""
"null","sound/msl/organ.wav","null","audio-keyboard-response","454","353423","0.0-14.0-4.0","",""
"null","sound/msl/dog.wav","null","audio-keyboard-response","455","353925","0.0-14.0-5.0","",""
"null","sound/msl/slide_whistle.wav","null","audio-keyboard-response","456","354423","0.0-14.0-6.0","",""
"192","sound/asl/silence.wav","50","audio-keyboard-response","457","354620","0.0-14.0-7.0","true",""
"null","sound/msl/door.wav","null","audio-keyboard-response","458","355115","0.0-15.0-0.0","",""
"null","sound/msl/door_bell.wav","null","audio-keyboard-response","459","355615","0.0-15.0-1.0","",""
"null","sound/msl/slide_whistle.wav","null","audio-keyboard-response","460","356113","0.0-15.0-2.0","",""
"29","sound/asl/silence.wav","49","audio-keyboard-response","461","356148","0.0-15.0-3.0","",""
"null","sound/msl/door.wav","null","audio-keyboard-response","462","356645","0.0-15.0-4.0","",""
"null","sound/msl/cow.wav","null","audio-keyboard-response","463","357154","0.0-15.0-5.0","",""
"null","sound/msl/duck.wav","null","audio-keyboard-response","464","357655","0.0-15.0-6.0","",""
"88","sound/asl/silence.wav","49","audio-keyboard-response","465","357747","0.0-15.0-7.0","false",""
"null","sound/msl/organ.wav","null","audio-keyboard-response","466","358245","0.0-16.0-0.0","",""
"null","sound/msl/dog.wav","null","audio-keyboard-response","467","358753","0.0-16.0-1.0","",""
"null","sound/msl/slide_whistle.wav","null","audio-keyboard-response","468","359254","0.0-16.0-2.0","",""
"null","sound/asl/silence.wav","null","audio-keyboard-response","469","359754","0.0-16.0-3.0","",""
"null","sound/msl/organ.wav","null","audio-keyboard-response","470","360253","0.0-16.0-4.0","",""
"null","sound/msl/goat.wav","null","audio-keyboard-response","471","360793","0.0-16.0-5.0","",""
"null","sound/msl/bird.wav","null","audio-keyboard-response","472","361293","0.0-16.0-6.0","",""
"5219","sound/asl/silence.wav","49","audio-keyboard-response","473","366515","0.0-16.0-7.0","true",""
"null","sound/msl/clock.wav","null","audio-keyboard-response","474","367065","0.0-17.0-0.0","",""
"null","sound/msl/boing.wav","null","audio-keyboard-response","475","367563","0.0-17.0-1.0","",""
"null","sound/msl/duck.wav","null","audio-keyboard-response","476","368075","0.0-17.0-2.0","",""
"null","sound/asl/silence.wav","null","audio-keyboard-response","477","368577","0.0-17.0-3.0","",""
"null","sound/msl/organ.wav","null","audio-keyboard-response","478","369074","0.0-17.0-4.0","",""
"null","sound/msl/dog.wav","null","audio-keyboard-response","479","369574","0.0-17.0-5.0","",""
"null","sound/msl/slide_whistle.wav","null","audio-keyboard-response","480","370075","0.0-17.0-6.0","",""
"3651","sound/asl/silence.wav","49","audio-keyboard-response","481","373725","0.0-17.0-7.0","false",""
"null","sound/msl/Water.wav","null","audio-keyboard-response","482","374234","0.0-18.0-0.0","",""
"null","sound/msl/cow.wav","null","audio-keyboard-response","483","374735","0.0-18.0-1.0","",""
"null","sound/msl/cat.wav","null","audio-keyboard-response","484","375236","0.0-18.0-2.0","",""
"null","sound/asl/silence.wav","null","audio-keyboard-response","485","375737","0.0-18.0-3.0","",""
"null","sound/msl/clock.wav","null","audio-keyboard-response","486","376285","0.0-18.0-4.0","",""
"null","sound/msl/goat.wav","null","audio-keyboard-response","487","376823","0.0-18.0-5.0","",""
"null","sound/msl/frog.wav","null","audio-keyboard-response","488","377325","0.0-18.0-6.0","",""
"6029","sound/asl/silence.wav","49","audio-keyboard-response","489","383356","0.0-18.0-7.0","false",""
"null","sound/msl/door.wav","null","audio-keyboard-response","490","383855","0.0-19.0-0.0","",""
"null","sound/msl/door_bell.wav","null","audio-keyboard-response","491","384363","0.0-19.0-1.0","",""
"null","sound/msl/slide_whistle.wav","null","audio-keyboard-response","492","384865","0.0-19.0-2.0","",""
"null","sound/asl/silence.wav","null","audio-keyboard-response","493","385367","0.0-19.0-3.0","",""
"null","sound/msl/clock.wav","null","audio-keyboard-response","494","385914","0.0-19.0-4.0","",""
"null","sound/msl/goat.wav","null","audio-keyboard-response","495","386454","0.0-19.0-5.0","",""
"null","sound/msl/frog.wav","null","audio-keyboard-response","496","386965","0.0-19.0-6.0","",""
"3149","sound/asl/silence.wav","49","audio-keyboard-response","497","390117","0.0-19.0-7.0","false",""
"null","sound/msl/door.wav","null","audio-keyboard-response","498","390614","0.0-20.0-0.0","",""
"null","sound/msl/door_bell.wav","null","audio-keyboard-response","499","391123","0.0-20.0-1.0","",""
"null","sound/msl/slide_whistle.wav","null","audio-keyboard-response","500","391623","0.0-20.0-2.0","",""
"null","sound/asl/silence.wav","null","audio-keyboard-response","501","392124","0.0-20.0-3.0","",""
"null","sound/msl/ding.wav","null","audio-keyboard-response","502","392636","0.0-20.0-4.0","",""
"null","sound/msl/door_bell.wav","null","audio-keyboard-response","503","393134","0.0-20.0-5.0","",""
"null","sound/msl/cat.wav","null","audio-keyboard-response","504","393634","0.0-20.0-6.0","",""
"2851","sound/asl/silence.wav","49","audio-keyboard-response","505","396491","0.0-20.0-7.0","false",""
"null","sound/msl/clock.wav","null","audio-keyboard-response","506","397034","0.0-21.0-0.0","",""
"null","sound/msl/boing.wav","null","audio-keyboard-response","507","397535","0.0-21.0-1.0","",""
"null","sound/msl/duck.wav","null","audio-keyboard-response","508","398045","0.0-21.0-2.0","",""
"null","sound/asl/silence.wav","null","audio-keyboard-response","509","398546","0.0-21.0-3.0","",""
"null","sound/msl/ding.wav","null","audio-keyboard-response","510","399044","0.0-21.0-4.0","",""
"null","sound/msl/door_bell.wav","null","audio-keyboard-response","511","399555","0.0-21.0-5.0","",""
"null","sound/msl/cat.wav","null","audio-keyboard-response","512","400054","0.0-21.0-6.0","",""
"6219","sound/asl/silence.wav","50","audio-keyboard-response","513","406275","0.0-21.0-7.0","true",""
"null","sound/msl/organ.wav","null","audio-keyboard-response","514","406773","0.0-22.0-0.0","",""
"null","sound/msl/dog.wav","null","audio-keyboard-response","515","407285","0.0-22.0-1.0","",""
"null","sound/msl/slide_whistle.wav","null","audio-keyboard-response","516","407783","0.0-22.0-2.0","",""
"171","sound/asl/silence.wav","50","audio-keyboard-response","517","407964","0.0-22.0-3.0","",""
"null","sound/msl/Water.wav","null","audio-keyboard-response","518","408473","0.0-22.0-4.0","",""
"null","sound/msl/cow.wav","null","audio-keyboard-response","519","408974","0.0-22.0-5.0","",""
"null","sound/msl/cat.wav","null","audio-keyboard-response","520","409473","0.0-22.0-6.0","",""
"389","sound/asl/silence.wav","50","audio-keyboard-response","521","409867","0.0-22.0-7.0","false",""
"null","sound/msl/organ.wav","null","audio-keyboard-response","522","410365","0.0-23.0-0.0","",""
"null","sound/msl/goat.wav","null","audio-keyboard-response","523","410905","0.0-23.0-1.0","",""
"null","sound/msl/bird.wav","null","audio-keyboard-response","524","411404","0.0-23.0-2.0","",""
"null","sound/asl/silence.wav","null","audio-keyboard-response","525","411907","0.0-23.0-3.0","",""
"null","sound/msl/Water.wav","null","audio-keyboard-response","526","412415","0.0-23.0-4.0","",""
"null","sound/msl/boing.wav","null","audio-keyboard-response","527","412915","0.0-23.0-5.0","",""
"null","sound/msl/bird.wav","null","audio-keyboard-response","528","413414","0.0-23.0-6.0","",""
"1619","sound/asl/silence.wav","49","audio-keyboard-response","529","415044","0.0-23.0-7.0","false",""
"null","sound/msl/clock.wav","null","audio-keyboard-response","530","415594","0.0-24.0-0.0","",""
"null","sound/msl/boing.wav","null","audio-keyboard-response","531","416096","0.0-24.0-1.0","",""
"null","sound/msl/duck.wav","null","audio-keyboard-response","532","416606","0.0-24.0-2.0","",""
"null","sound/asl/silence.wav","null","audio-keyboard-response","533","417107","0.0-24.0-3.0","",""
"null","sound/msl/clock.wav","null","audio-keyboard-response","534","417655","0.0-24.0-4.0","",""
"null","sound/msl/goat.wav","null","audio-keyboard-response","535","418195","0.0-24.0-5.0","",""
"null","sound/msl/frog.wav","null","audio-keyboard-response","536","418695","0.0-24.0-6.0","",""
"2059","sound/asl/silence.wav","50","audio-keyboard-response","537","420756","0.0-24.0-7.0","true",""
"null","sound/msl/ding.wav","null","audio-keyboard-response","538","421256","0.0-25.0-0.0","",""
"null","sound/msl/door_bell.wav","null","audio-keyboard-response","539","421763","0.0-25.0-1.0","",""
"null","sound/msl/cat.wav","null","audio-keyboard-response","540","422265","0.0-25.0-2.0","",""
"null","sound/asl/silence.wav","null","audio-keyboard-response","541","422765","0.0-25.0-3.0","",""
"null","sound/msl/ding.wav","null","audio-keyboard-response","542","423275","0.0-25.0-4.0","",""
"null","sound/msl/dog.wav","null","audio-keyboard-response","543","423774","0.0-25.0-5.0","",""
"null","sound/msl/frog.wav","null","audio-keyboard-response","544","424285","0.0-25.0-6.0","",""
"1219","sound/asl/silence.wav","49","audio-keyboard-response","545","425508","0.0-25.0-7.0","true",""
"null","sound/msl/organ.wav","null","audio-keyboard-response","546","426006","0.0-26.0-0.0","",""
"null","sound/msl/dog.wav","null","audio-keyboard-response","547","426515","0.0-26.0-1.0","",""
"null","sound/msl/slide_whistle.wav","null","audio-keyboard-response","548","427016","0.0-26.0-2.0","",""
"null","sound/asl/silence.wav","null","audio-keyboard-response","549","427517","0.0-26.0-3.0","",""
"null","sound/msl/ding.wav","null","audio-keyboard-response","550","428015","0.0-26.0-4.0","",""
"null","sound/msl/dog.wav","null","audio-keyboard-response","551","428525","0.0-26.0-5.0","",""
"null","sound/msl/frog.wav","null","audio-keyboard-response","552","429035","0.0-26.0-6.0","",""
"51","sound/asl/silence.wav","50","audio-keyboard-response","553","429093","0.0-26.0-7.0","false",""
"null","sound/msl/ding.wav","null","audio-keyboard-response","554","429595","0.0-27.0-0.0","",""
"null","sound/msl/dog.wav","null","audio-keyboard-response","555","430095","0.0-27.0-1.0","",""
"null","sound/msl/frog.wav","null","audio-keyboard-response","556","430605","0.0-27.0-2.0","",""
"null","sound/asl/silence.wav","null","audio-keyboard-response","557","431107","0.0-27.0-3.0","",""
"null","sound/msl/door.wav","null","audio-keyboard-response","558","431604","0.0-27.0-4.0","",""
"null","sound/msl/cow.wav","null","audio-keyboard-response","559","432114","0.0-27.0-5.0","",""
"null","sound/msl/duck.wav","null","audio-keyboard-response","560","432615","0.0-27.0-6.0","",""
"299","sound/asl/silence.wav","50","audio-keyboard-response","561","432916","0.0-27.0-7.0","true",""
"2152","","","instructions","562","435070","0.0-28.0","","[{""page_index"":0,""viewing_time"":2152}]"
