"rt","stimulus","key_press","trial_type","trial_index","time_elapsed","internal_node_id","correct","view_history"
"6939","alien.jpg","49","image-keyboard-response","0","6943","0.0-0.0","",""
"null","sound/msl/boing.wav","null","audio-keyboard-response","1","7455","0.0-1.0-0.0","",""
"null","sound/msl/cow.wav","null","audio-keyboard-response","2","7965","0.0-1.0-1.0","",""
"null","sound/msl/door_bell.wav","null","audio-keyboard-response","3","8485","0.0-1.0-2.0","",""
"null","sound/msl/slide_whistle.wav","null","audio-keyboard-response","4","8994","0.0-1.0-3.0","",""
"null","sound/msl/dog.wav","null","audio-keyboard-response","5","9516","0.0-1.0-4.0","",""
"null","sound/msl/bird.wav","null","audio-keyboard-response","6","10036","0.0-1.0-5.0","",""
"null","sound/msl/frog.wav","null","audio-keyboard-response","7","10545","0.0-1.0-6.0","",""
"null","sound/msl/duck.wav","null","audio-keyboard-response","8","11066","0.0-1.0-7.0","",""
"null","sound/msl/goat.wav","null","audio-keyboard-response","9","11605","0.0-1.0-8.0","",""
"null","sound/msl/ding.wav","null","audio-keyboard-response","10","12116","0.0-1.0-9.0","",""
"null","sound/msl/Water.wav","null","audio-keyboard-response","11","12636","0.0-1.0-10.0","",""
"null","sound/msl/door.wav","null","audio-keyboard-response","12","13144","0.0-1.0-11.0","",""
"null","sound/msl/slide_whistle.wav","null","audio-keyboard-response","13","13655","0.0-1.0-12.0","",""
"null","sound/msl/dog.wav","null","audio-keyboard-response","14","14175","0.0-1.0-13.0","",""
"null","sound/msl/bird.wav","null","audio-keyboard-response","15","14696","0.0-1.0-14.0","",""
"null","sound/msl/boing.wav","null","audio-keyboard-response","16","15205","0.0-1.0-15.0","",""
"null","sound/msl/cow.wav","null","audio-keyboard-response","17","15725","0.0-1.0-16.0","",""
"null","sound/msl/door_bell.wav","null","audio-keyboard-response","18","16245","0.0-1.0-17.0","",""
"null","sound/msl/cat.wav","null","audio-keyboard-response","19","16755","0.0-1.0-18.0","",""
"null","sound/msl/clock.wav","null","audio-keyboard-response","20","17315","0.0-1.0-19.0","",""
"null","sound/msl/organ.wav","null","audio-keyboard-response","21","17825","0.0-1.0-20.0","",""
"null","sound/msl/ding.wav","null","audio-keyboard-response","22","18335","0.0-1.0-21.0","",""
"null","sound/msl/Water.wav","null","audio-keyboard-response","23","18855","0.0-1.0-22.0","",""
"null","sound/msl/door.wav","null","audio-keyboard-response","24","19365","0.0-1.0-23.0","",""
"null","sound/msl/frog.wav","null","audio-keyboard-response","25","19885","0.0-1.0-24.0","",""
"null","sound/msl/duck.wav","null","audio-keyboard-response","26","20405","0.0-1.0-25.0","",""
"null","sound/msl/goat.wav","null","audio-keyboard-response","27","20945","0.0-1.0-26.0","",""
"null","sound/msl/boing.wav","null","audio-keyboard-response","28","21455","0.0-1.0-27.0","",""
"null","sound/msl/cow.wav","null","audio-keyboard-response","29","21975","0.0-1.0-28.0","",""
"null","sound/msl/door_bell.wav","null","audio-keyboard-response","30","22495","0.0-1.0-29.0","",""
"null","sound/msl/slide_whistle.wav","null","audio-keyboard-response","31","23005","0.0-1.0-30.0","",""
"null","sound/msl/dog.wav","null","audio-keyboard-response","32","23525","0.0-1.0-31.0","",""
"null","sound/msl/bird.wav","null","audio-keyboard-response","33","24045","0.0-1.0-32.0","",""
"null","sound/msl/cat.wav","null","audio-keyboard-response","34","24555","0.0-1.0-33.0","",""
"null","sound/msl/clock.wav","null","audio-keyboard-response","35","25115","0.0-1.0-34.0","",""
"null","sound/msl/organ.wav","null","audio-keyboard-response","36","25625","0.0-1.0-35.0","",""
"null","sound/msl/frog.wav","null","audio-keyboard-response","37","26146","0.0-1.0-36.0","",""
"null","sound/msl/duck.wav","null","audio-keyboard-response","38","26665","0.0-1.0-37.0","",""
"null","sound/msl/goat.wav","null","audio-keyboard-response","39","27204","0.0-1.0-38.0","",""
"null","sound/msl/ding.wav","null","audio-keyboard-response","40","27726","0.0-1.0-39.0","",""
"null","sound/msl/Water.wav","null","audio-keyboard-response","41","28245","0.0-1.0-40.0","",""
"null","sound/msl/door.wav","null","audio-keyboard-response","42","28755","0.0-1.0-41.0","",""
"null","sound/msl/cat.wav","null","audio-keyboard-response","43","29265","0.0-1.0-42.0","",""
"null","sound/msl/clock.wav","null","audio-keyboard-response","44","29824","0.0-1.0-43.0","",""
"null","sound/msl/organ.wav","null","audio-keyboard-response","45","30335","0.0-1.0-44.0","",""
"null","sound/msl/slide_whistle.wav","null","audio-keyboard-response","46","30845","0.0-1.0-45.0","",""
"null","sound/msl/dog.wav","null","audio-keyboard-response","47","31365","0.0-1.0-46.0","",""
"null","sound/msl/bird.wav","null","audio-keyboard-response","48","31875","0.0-1.0-47.0","",""
"null","sound/msl/frog.wav","null","audio-keyboard-response","49","32395","0.0-1.0-48.0","",""
"null","sound/msl/duck.wav","null","audio-keyboard-response","50","32915","0.0-1.0-49.0","",""
"null","sound/msl/goat.wav","null","audio-keyboard-response","51","33455","0.0-1.0-50.0","",""
"null","sound/msl/boing.wav","null","audio-keyboard-response","52","33965","0.0-1.0-51.0","",""
"null","sound/msl/cow.wav","null","audio-keyboard-response","53","34485","0.0-1.0-52.0","",""
"null","sound/msl/door_bell.wav","null","audio-keyboard-response","54","35005","0.0-1.0-53.0","",""
"null","sound/msl/slide_whistle.wav","null","audio-keyboard-response","55","35515","0.0-1.0-54.0","",""
"null","sound/msl/dog.wav","null","audio-keyboard-response","56","36035","0.0-1.0-55.0","",""
"null","sound/msl/bird.wav","null","audio-keyboard-response","57","36555","0.0-1.0-56.0","",""
"null","sound/msl/frog.wav","null","audio-keyboard-response","58","37065","0.0-1.0-57.0","",""
"null","sound/msl/duck.wav","null","audio-keyboard-response","59","37585","0.0-1.0-58.0","",""
"null","sound/msl/goat.wav","null","audio-keyboard-response","60","38125","0.0-1.0-59.0","",""
"null","sound/msl/ding.wav","null","audio-keyboard-response","61","38635","0.0-1.0-60.0","",""
"null","sound/msl/Water.wav","null","audio-keyboard-response","62","39154","0.0-1.0-61.0","",""
"null","sound/msl/door.wav","null","audio-keyboard-response","63","39665","0.0-1.0-62.0","",""
"null","sound/msl/cat.wav","null","audio-keyboard-response","64","40175","0.0-1.0-63.0","",""
"null","sound/msl/clock.wav","null","audio-keyboard-response","65","40734","0.0-1.0-64.0","",""
"null","sound/msl/organ.wav","null","audio-keyboard-response","66","41245","0.0-1.0-65.0","",""
"null","sound/msl/slide_whistle.wav","null","audio-keyboard-response","67","41755","0.0-1.0-66.0","",""
"null","sound/msl/dog.wav","null","audio-keyboard-response","68","42275","0.0-1.0-67.0","",""
"null","sound/msl/bird.wav","null","audio-keyboard-response","69","42795","0.0-1.0-68.0","",""
"null","sound/msl/boing.wav","null","audio-keyboard-response","70","43305","0.0-1.0-69.0","",""
"null","sound/msl/cow.wav","null","audio-keyboard-response","71","43825","0.0-1.0-70.0","",""
"null","sound/msl/door_bell.wav","null","audio-keyboard-response","72","44346","0.0-1.0-71.0","",""
"null","sound/msl/frog.wav","null","audio-keyboard-response","73","44855","0.0-1.0-72.0","",""
"null","sound/msl/duck.wav","null","audio-keyboard-response","74","45375","0.0-1.0-73.0","",""
"null","sound/msl/goat.wav","null","audio-keyboard-response","75","45915","0.0-1.0-74.0","",""
"null","sound/msl/ding.wav","null","audio-keyboard-response","76","46435","0.0-1.0-75.0","",""
"null","sound/msl/Water.wav","null","audio-keyboard-response","77","46954","0.0-1.0-76.0","",""
"null","sound/msl/door.wav","null","audio-keyboard-response","78","47465","0.0-1.0-77.0","",""
"null","sound/msl/frog.wav","null","audio-keyboard-response","79","47985","0.0-1.0-78.0","",""
"null","sound/msl/duck.wav","null","audio-keyboard-response","80","48495","0.0-1.0-79.0","",""
"null","sound/msl/goat.wav","null","audio-keyboard-response","81","49035","0.0-1.0-80.0","",""
"null","sound/msl/cat.wav","null","audio-keyboard-response","82","49545","0.0-1.0-81.0","",""
"null","sound/msl/clock.wav","null","audio-keyboard-response","83","50104","0.0-1.0-82.0","",""
"null","sound/msl/organ.wav","null","audio-keyboard-response","84","50614","0.0-1.0-83.0","",""
"null","sound/msl/boing.wav","null","audio-keyboard-response","85","51125","0.0-1.0-84.0","",""
"null","sound/msl/cow.wav","null","audio-keyboard-response","86","51644","0.0-1.0-85.0","",""
"null","sound/msl/door_bell.wav","null","audio-keyboard-response","87","52154","0.0-1.0-86.0","",""
"null","sound/msl/slide_whistle.wav","null","audio-keyboard-response","88","52665","0.0-1.0-87.0","",""
"null","sound/msl/dog.wav","null","audio-keyboard-response","89","53184","0.0-1.0-88.0","",""
"null","sound/msl/bird.wav","null","audio-keyboard-response","90","53704","0.0-1.0-89.0","",""
"null","sound/msl/cat.wav","null","audio-keyboard-response","91","54215","0.0-1.0-90.0","",""
"null","sound/msl/clock.wav","null","audio-keyboard-response","92","54775","0.0-1.0-91.0","",""
"null","sound/msl/organ.wav","null","audio-keyboard-response","93","55285","0.0-1.0-92.0","",""
"null","sound/msl/ding.wav","null","audio-keyboard-response","94","55794","0.0-1.0-93.0","",""
"null","sound/msl/Water.wav","null","audio-keyboard-response","95","56315","0.0-1.0-94.0","",""
"null","sound/msl/door.wav","null","audio-keyboard-response","96","56825","0.0-1.0-95.0","",""
"null","sound/msl/frog.wav","null","audio-keyboard-response","97","57345","0.0-1.0-96.0","",""
"null","sound/msl/duck.wav","null","audio-keyboard-response","98","57865","0.0-1.0-97.0","",""
"null","sound/msl/goat.wav","null","audio-keyboard-response","99","58405","0.0-1.0-98.0","",""
"null","sound/msl/slide_whistle.wav","null","audio-keyboard-response","100","58915","0.0-1.0-99.0","",""
"null","sound/msl/dog.wav","null","audio-keyboard-response","101","59435","0.0-1.0-100.0","",""
"null","sound/msl/bird.wav","null","audio-keyboard-response","102","59955","0.0-1.0-101.0","",""
"null","sound/msl/cat.wav","null","audio-keyboard-response","103","60465","0.0-1.0-102.0","",""
"null","sound/msl/clock.wav","null","audio-keyboard-response","104","61024","0.0-1.0-103.0","",""
"null","sound/msl/organ.wav","null","audio-keyboard-response","105","61534","0.0-1.0-104.0","",""
"null","sound/msl/boing.wav","null","audio-keyboard-response","106","62044","0.0-1.0-105.0","",""
"null","sound/msl/cow.wav","null","audio-keyboard-response","107","62555","0.0-1.0-106.0","",""
"null","sound/msl/door_bell.wav","null","audio-keyboard-response","108","63075","0.0-1.0-107.0","",""
"null","sound/msl/slide_whistle.wav","null","audio-keyboard-response","109","63585","0.0-1.0-108.0","",""
"null","sound/msl/dog.wav","null","audio-keyboard-response","110","64105","0.0-1.0-109.0","",""
"null","sound/msl/bird.wav","null","audio-keyboard-response","111","64625","0.0-1.0-110.0","",""
"null","sound/msl/ding.wav","null","audio-keyboard-response","112","65135","0.0-1.0-111.0","",""
"null","sound/msl/Water.wav","null","audio-keyboard-response","113","65654","0.0-1.0-112.0","",""
"null","sound/msl/door.wav","null","audio-keyboard-response","114","66164","0.0-1.0-113.0","",""
"null","sound/msl/cat.wav","null","audio-keyboard-response","115","66675","0.0-1.0-114.0","",""
"null","sound/msl/clock.wav","null","audio-keyboard-response","116","67235","0.0-1.0-115.0","",""
"null","sound/msl/organ.wav","null","audio-keyboard-response","117","67746","0.0-1.0-116.0","",""
"null","sound/msl/frog.wav","null","audio-keyboard-response","118","68255","0.0-1.0-117.0","",""
"null","sound/msl/duck.wav","null","audio-keyboard-response","119","68775","0.0-1.0-118.0","",""
"null","sound/msl/goat.wav","null","audio-keyboard-response","120","69315","0.0-1.0-119.0","",""
"null","sound/msl/boing.wav","null","audio-keyboard-response","121","69825","0.0-1.0-120.0","",""
"null","sound/msl/cow.wav","null","audio-keyboard-response","122","70345","0.0-1.0-121.0","",""
"null","sound/msl/door_bell.wav","null","audio-keyboard-response","123","70866","0.0-1.0-122.0","",""
"null","sound/msl/slide_whistle.wav","null","audio-keyboard-response","124","71375","0.0-1.0-123.0","",""
"null","sound/msl/dog.wav","null","audio-keyboard-response","125","71895","0.0-1.0-124.0","",""
"null","sound/msl/bird.wav","null","audio-keyboard-response","126","72415","0.0-1.0-125.0","",""
"null","sound/msl/cat.wav","null","audio-keyboard-response","127","72925","0.0-1.0-126.0","",""
"null","sound/msl/clock.wav","null","audio-keyboard-response","128","73485","0.0-1.0-127.0","",""
"null","sound/msl/organ.wav","null","audio-keyboard-response","129","73994","0.0-1.0-128.0","",""
"null","sound/msl/ding.wav","null","audio-keyboard-response","130","74515","0.0-1.0-129.0","",""
"null","sound/msl/Water.wav","null","audio-keyboard-response","131","75035","0.0-1.0-130.0","",""
"null","sound/msl/door.wav","null","audio-keyboard-response","132","75545","0.0-1.0-131.0","",""
"null","sound/msl/slide_whistle.wav","null","audio-keyboard-response","133","76054","0.0-1.0-132.0","",""
"null","sound/msl/dog.wav","null","audio-keyboard-response","134","76565","0.0-1.0-133.0","",""
"null","sound/msl/bird.wav","null","audio-keyboard-response","135","77085","0.0-1.0-134.0","",""
"null","sound/msl/frog.wav","null","audio-keyboard-response","136","77605","0.0-1.0-135.0","",""
"null","sound/msl/duck.wav","null","audio-keyboard-response","137","78115","0.0-1.0-136.0","",""
"null","sound/msl/goat.wav","null","audio-keyboard-response","138","78655","0.0-1.0-137.0","",""
"null","sound/msl/ding.wav","null","audio-keyboard-response","139","79175","0.0-1.0-138.0","",""
"null","sound/msl/Water.wav","null","audio-keyboard-response","140","79695","0.0-1.0-139.0","",""
"null","sound/msl/door.wav","null","audio-keyboard-response","141","80205","0.0-1.0-140.0","",""
"null","sound/msl/boing.wav","null","audio-keyboard-response","142","80715","0.0-1.0-141.0","",""
"null","sound/msl/cow.wav","null","audio-keyboard-response","143","81235","0.0-1.0-142.0","",""
"null","sound/msl/door_bell.wav","null","audio-keyboard-response","144","81755","0.0-1.0-143.0","",""
"null","sound/msl/cat.wav","null","audio-keyboard-response","145","82264","0.0-1.0-144.0","",""
"null","sound/msl/clock.wav","null","audio-keyboard-response","146","82824","0.0-1.0-145.0","",""
"null","sound/msl/organ.wav","null","audio-keyboard-response","147","83334","0.0-1.0-146.0","",""
"null","sound/msl/frog.wav","null","audio-keyboard-response","148","83855","0.0-1.0-147.0","",""
"null","sound/msl/duck.wav","null","audio-keyboard-response","149","84375","0.0-1.0-148.0","",""
"null","sound/msl/goat.wav","null","audio-keyboard-response","150","84925","0.0-1.0-149.0","",""
"null","sound/msl/boing.wav","null","audio-keyboard-response","151","85435","0.0-1.0-150.0","",""
"null","sound/msl/cow.wav","null","audio-keyboard-response","152","85955","0.0-1.0-151.0","",""
"null","sound/msl/door_bell.wav","null","audio-keyboard-response","153","86474","0.0-1.0-152.0","",""
"null","sound/msl/slide_whistle.wav","null","audio-keyboard-response","154","86984","0.0-1.0-153.0","",""
"null","sound/msl/dog.wav","null","audio-keyboard-response","155","87505","0.0-1.0-154.0","",""
"null","sound/msl/bird.wav","null","audio-keyboard-response","156","88025","0.0-1.0-155.0","",""
"null","sound/msl/ding.wav","null","audio-keyboard-response","157","88534","0.0-1.0-156.0","",""
"null","sound/msl/Water.wav","null","audio-keyboard-response","158","89055","0.0-1.0-157.0","",""
"null","sound/msl/door.wav","null","audio-keyboard-response","159","89564","0.0-1.0-158.0","",""
"null","sound/msl/cat.wav","null","audio-keyboard-response","160","90074","0.0-1.0-159.0","",""
"null","sound/msl/clock.wav","null","audio-keyboard-response","161","90635","0.0-1.0-160.0","",""
"null","sound/msl/organ.wav","null","audio-keyboard-response","162","91145","0.0-1.0-161.0","",""
"null","sound/msl/slide_whistle.wav","null","audio-keyboard-response","163","91655","0.0-1.0-162.0","",""
"null","sound/msl/dog.wav","null","audio-keyboard-response","164","92175","0.0-1.0-163.0","",""
"null","sound/msl/bird.wav","null","audio-keyboard-response","165","92695","0.0-1.0-164.0","",""
"null","sound/msl/ding.wav","null","audio-keyboard-response","166","93204","0.0-1.0-165.0","",""
"null","sound/msl/Water.wav","null","audio-keyboard-response","167","93724","0.0-1.0-166.0","",""
"null","sound/msl/door.wav","null","audio-keyboard-response","168","94235","0.0-1.0-167.0","",""
"null","sound/msl/boing.wav","null","audio-keyboard-response","169","94745","0.0-1.0-168.0","",""
"null","sound/msl/cow.wav","null","audio-keyboard-response","170","95265","0.0-1.0-169.0","",""
"null","sound/msl/door_bell.wav","null","audio-keyboard-response","171","95785","0.0-1.0-170.0","",""
"null","sound/msl/frog.wav","null","audio-keyboard-response","172","96306","0.0-1.0-171.0","",""
"null","sound/msl/duck.wav","null","audio-keyboard-response","173","96825","0.0-1.0-172.0","",""
"null","sound/msl/goat.wav","null","audio-keyboard-response","174","97365","0.0-1.0-173.0","",""
"null","sound/msl/cat.wav","null","audio-keyboard-response","175","97875","0.0-1.0-174.0","",""
"null","sound/msl/clock.wav","null","audio-keyboard-response","176","98435","0.0-1.0-175.0","",""
"null","sound/msl/organ.wav","null","audio-keyboard-response","177","98945","0.0-1.0-176.0","",""
"null","sound/msl/slide_whistle.wav","null","audio-keyboard-response","178","99454","0.0-1.0-177.0","",""
"null","sound/msl/dog.wav","null","audio-keyboard-response","179","99965","0.0-1.0-178.0","",""
"null","sound/msl/bird.wav","null","audio-keyboard-response","180","100485","0.0-1.0-179.0","",""
"null","sound/msl/frog.wav","null","audio-keyboard-response","181","100995","0.0-1.0-180.0","",""
"null","sound/msl/duck.wav","null","audio-keyboard-response","182","101516","0.0-1.0-181.0","",""
"null","sound/msl/goat.wav","null","audio-keyboard-response","183","102054","0.0-1.0-182.0","",""
"null","sound/msl/ding.wav","null","audio-keyboard-response","184","102575","0.0-1.0-183.0","",""
"null","sound/msl/Water.wav","null","audio-keyboard-response","185","103096","0.0-1.0-184.0","",""
"null","sound/msl/door.wav","null","audio-keyboard-response","186","103605","0.0-1.0-185.0","",""
"null","sound/msl/boing.wav","null","audio-keyboard-response","187","104115","0.0-1.0-186.0","",""
"null","sound/msl/cow.wav","null","audio-keyboard-response","188","104635","0.0-1.0-187.0","",""
"null","sound/msl/door_bell.wav","null","audio-keyboard-response","189","105154","0.0-1.0-188.0","",""
"null","sound/msl/cat.wav","null","audio-keyboard-response","190","105665","0.0-1.0-189.0","",""
"null","sound/msl/clock.wav","null","audio-keyboard-response","191","106224","0.0-1.0-190.0","",""
"null","sound/msl/organ.wav","null","audio-keyboard-response","192","106735","0.0-1.0-191.0","",""
"null","sound/msl/slide_whistle.wav","null","audio-keyboard-response","193","107245","0.0-1.0-192.0","",""
"null","sound/msl/dog.wav","null","audio-keyboard-response","194","107754","0.0-1.0-193.0","",""
"null","sound/msl/bird.wav","null","audio-keyboard-response","195","108275","0.0-1.0-194.0","",""
"null","sound/msl/frog.wav","null","audio-keyboard-response","196","108795","0.0-1.0-195.0","",""
"null","sound/msl/duck.wav","null","audio-keyboard-response","197","109305","0.0-1.0-196.0","",""
"null","sound/msl/goat.wav","null","audio-keyboard-response","198","109845","0.0-1.0-197.0","",""
"null","sound/msl/boing.wav","null","audio-keyboard-response","199","110355","0.0-1.0-198.0","",""
"null","sound/msl/cow.wav","null","audio-keyboard-response","200","110875","0.0-1.0-199.0","",""
"null","sound/msl/door_bell.wav","null","audio-keyboard-response","201","111395","0.0-1.0-200.0","",""
"null","sound/msl/ding.wav","null","audio-keyboard-response","202","111915","0.0-1.0-201.0","",""
"null","sound/msl/Water.wav","null","audio-keyboard-response","203","112435","0.0-1.0-202.0","",""
"null","sound/msl/door.wav","null","audio-keyboard-response","204","112945","0.0-1.0-203.0","",""
"null","sound/msl/cat.wav","null","audio-keyboard-response","205","113455","0.0-1.0-204.0","",""
"null","sound/msl/clock.wav","null","audio-keyboard-response","206","114015","0.0-1.0-205.0","",""
"null","sound/msl/organ.wav","null","audio-keyboard-response","207","114525","0.0-1.0-206.0","",""
"null","sound/msl/slide_whistle.wav","null","audio-keyboard-response","208","115034","0.0-1.0-207.0","",""
"null","sound/msl/dog.wav","null","audio-keyboard-response","209","115554","0.0-1.0-208.0","",""
"null","sound/msl/bird.wav","null","audio-keyboard-response","210","116065","0.0-1.0-209.0","",""
"null","sound/msl/boing.wav","null","audio-keyboard-response","211","116575","0.0-1.0-210.0","",""
"null","sound/msl/cow.wav","null","audio-keyboard-response","212","117095","0.0-1.0-211.0","",""
"null","sound/msl/door_bell.wav","null","audio-keyboard-response","213","117614","0.0-1.0-212.0","",""
"null","sound/msl/cat.wav","null","audio-keyboard-response","214","118125","0.0-1.0-213.0","",""
"null","sound/msl/clock.wav","null","audio-keyboard-response","215","118685","0.0-1.0-214.0","",""
"null","sound/msl/organ.wav","null","audio-keyboard-response","216","119195","0.0-1.0-215.0","",""
"null","sound/msl/frog.wav","null","audio-keyboard-response","217","119705","0.0-1.0-216.0","",""
"null","sound/msl/duck.wav","null","audio-keyboard-response","218","120224","0.0-1.0-217.0","",""
"null","sound/msl/goat.wav","null","audio-keyboard-response","219","120765","0.0-1.0-218.0","",""
"null","sound/msl/ding.wav","null","audio-keyboard-response","220","121275","0.0-1.0-219.0","",""
"null","sound/msl/Water.wav","null","audio-keyboard-response","221","121794","0.0-1.0-220.0","",""
"null","sound/msl/door.wav","null","audio-keyboard-response","222","122305","0.0-1.0-221.0","",""
"null","sound/msl/slide_whistle.wav","null","audio-keyboard-response","223","122815","0.0-1.0-222.0","",""
"null","sound/msl/dog.wav","null","audio-keyboard-response","224","123335","0.0-1.0-223.0","",""
"null","sound/msl/bird.wav","null","audio-keyboard-response","225","123855","0.0-1.0-224.0","",""
"null","sound/msl/frog.wav","null","audio-keyboard-response","226","124375","0.0-1.0-225.0","",""
"null","sound/msl/duck.wav","null","audio-keyboard-response","227","124905","0.0-1.0-226.0","",""
"null","sound/msl/goat.wav","null","audio-keyboard-response","228","125455","0.0-1.0-227.0","",""
"null","sound/msl/cat.wav","null","audio-keyboard-response","229","125965","0.0-1.0-228.0","",""
"null","sound/msl/clock.wav","null","audio-keyboard-response","230","126525","0.0-1.0-229.0","",""
"null","sound/msl/organ.wav","null","audio-keyboard-response","231","127034","0.0-1.0-230.0","",""
"null","sound/msl/frog.wav","null","audio-keyboard-response","232","127555","0.0-1.0-231.0","",""
"null","sound/msl/duck.wav","null","audio-keyboard-response","233","128076","0.0-1.0-232.0","",""
"null","sound/msl/goat.wav","null","audio-keyboard-response","234","128627","0.0-1.0-233.0","",""
"null","sound/msl/slide_whistle.wav","null","audio-keyboard-response","235","129135","0.0-1.0-234.0","",""
"null","sound/msl/dog.wav","null","audio-keyboard-response","236","129656","0.0-1.0-235.0","",""
"null","sound/msl/bird.wav","null","audio-keyboard-response","237","130175","0.0-1.0-236.0","",""
"null","sound/msl/ding.wav","null","audio-keyboard-response","238","130685","0.0-1.0-237.0","",""
"null","sound/msl/Water.wav","null","audio-keyboard-response","239","131205","0.0-1.0-238.0","",""
"null","sound/msl/door.wav","null","audio-keyboard-response","240","131715","0.0-1.0-239.0","",""
"null","sound/msl/boing.wav","null","audio-keyboard-response","241","132225","0.0-1.0-240.0","",""
"null","sound/msl/cow.wav","null","audio-keyboard-response","242","132745","0.0-1.0-241.0","",""
"null","sound/msl/door_bell.wav","null","audio-keyboard-response","243","133266","0.0-1.0-242.0","",""
"null","sound/msl/cat.wav","null","audio-keyboard-response","244","133775","0.0-1.0-243.0","",""
"null","sound/msl/clock.wav","null","audio-keyboard-response","245","134335","0.0-1.0-244.0","",""
"null","sound/msl/organ.wav","null","audio-keyboard-response","246","134845","0.0-1.0-245.0","",""
"null","sound/msl/slide_whistle.wav","null","audio-keyboard-response","247","135355","0.0-1.0-246.0","",""
"null","sound/msl/dog.wav","null","audio-keyboard-response","248","135875","0.0-1.0-247.0","",""
"null","sound/msl/bird.wav","null","audio-keyboard-response","249","136396","0.0-1.0-248.0","",""
"null","sound/msl/ding.wav","null","audio-keyboard-response","250","136906","0.0-1.0-249.0","",""
"null","sound/msl/Water.wav","null","audio-keyboard-response","251","137424","0.0-1.0-250.0","",""
"null","sound/msl/door.wav","null","audio-keyboard-response","252","137935","0.0-1.0-251.0","",""
"null","sound/msl/boing.wav","null","audio-keyboard-response","253","138446","0.0-1.0-252.0","",""
"null","sound/msl/cow.wav","null","audio-keyboard-response","254","138965","0.0-1.0-253.0","",""
"null","sound/msl/door_bell.wav","null","audio-keyboard-response","255","139486","0.0-1.0-254.0","",""
"null","sound/msl/frog.wav","null","audio-keyboard-response","256","140005","0.0-1.0-255.0","",""
"null","sound/msl/duck.wav","null","audio-keyboard-response","257","140525","0.0-1.0-256.0","",""
"null","sound/msl/goat.wav","null","audio-keyboard-response","258","141064","0.0-1.0-257.0","",""
"null","sound/msl/cat.wav","null","audio-keyboard-response","259","141575","0.0-1.0-258.0","",""
"null","sound/msl/clock.wav","null","audio-keyboard-response","260","142135","0.0-1.0-259.0","",""
"null","sound/msl/organ.wav","null","audio-keyboard-response","261","142645","0.0-1.0-260.0","",""
"null","sound/msl/boing.wav","null","audio-keyboard-response","262","143155","0.0-1.0-261.0","",""
"null","sound/msl/cow.wav","null","audio-keyboard-response","263","143665","0.0-1.0-262.0","",""
"null","sound/msl/door_bell.wav","null","audio-keyboard-response","264","144185","0.0-1.0-263.0","",""
"null","sound/msl/ding.wav","null","audio-keyboard-response","265","144695","0.0-1.0-264.0","",""
"null","sound/msl/Water.wav","null","audio-keyboard-response","266","145215","0.0-1.0-265.0","",""
"null","sound/msl/door.wav","null","audio-keyboard-response","267","145725","0.0-1.0-266.0","",""
"null","sound/msl/frog.wav","null","audio-keyboard-response","268","146245","0.0-1.0-267.0","",""
"null","sound/msl/duck.wav","null","audio-keyboard-response","269","146765","0.0-1.0-268.0","",""
"null","sound/msl/goat.wav","null","audio-keyboard-response","270","147304","0.0-1.0-269.0","",""
"null","sound/msl/slide_whistle.wav","null","audio-keyboard-response","271","147815","0.0-1.0-270.0","",""
"null","sound/msl/dog.wav","null","audio-keyboard-response","272","148334","0.0-1.0-271.0","",""
"null","sound/msl/bird.wav","null","audio-keyboard-response","273","148855","0.0-1.0-272.0","",""
"null","sound/msl/cat.wav","null","audio-keyboard-response","274","149365","0.0-1.0-273.0","",""
"null","sound/msl/clock.wav","null","audio-keyboard-response","275","149925","0.0-1.0-274.0","",""
"null","sound/msl/organ.wav","null","audio-keyboard-response","276","150435","0.0-1.0-275.0","",""
"null","sound/msl/boing.wav","null","audio-keyboard-response","277","150945","0.0-1.0-276.0","",""
"null","sound/msl/cow.wav","null","audio-keyboard-response","278","151454","0.0-1.0-277.0","",""
"null","sound/msl/door_bell.wav","null","audio-keyboard-response","279","151976","0.0-1.0-278.0","",""
"null","sound/msl/ding.wav","null","audio-keyboard-response","280","152496","0.0-1.0-279.0","",""
"null","sound/msl/Water.wav","null","audio-keyboard-response","281","153016","0.0-1.0-280.0","",""
"null","sound/msl/door.wav","null","audio-keyboard-response","282","153525","0.0-1.0-281.0","",""
"null","sound/msl/slide_whistle.wav","null","audio-keyboard-response","283","154035","0.0-1.0-282.0","",""
"null","sound/msl/dog.wav","null","audio-keyboard-response","284","154556","0.0-1.0-283.0","",""
"null","sound/msl/bird.wav","null","audio-keyboard-response","285","155075","0.0-1.0-284.0","",""
"null","sound/msl/frog.wav","null","audio-keyboard-response","286","155596","0.0-1.0-285.0","",""
"null","sound/msl/duck.wav","null","audio-keyboard-response","287","156105","0.0-1.0-286.0","",""
"null","sound/msl/goat.wav","null","audio-keyboard-response","288","156645","0.0-1.0-287.0","",""
"null","sound/msl/cat.wav","null","audio-keyboard-response","289","157155","0.0-1.0-288.0","",""
"null","sound/msl/clock.wav","null","audio-keyboard-response","290","157715","0.0-1.0-289.0","",""
"null","sound/msl/organ.wav","null","audio-keyboard-response","291","158225","0.0-1.0-290.0","",""
"null","sound/msl/ding.wav","null","audio-keyboard-response","292","158735","0.0-1.0-291.0","",""
"null","sound/msl/Water.wav","null","audio-keyboard-response","293","159255","0.0-1.0-292.0","",""
"null","sound/msl/door.wav","null","audio-keyboard-response","294","159764","0.0-1.0-293.0","",""
"null","sound/msl/boing.wav","null","audio-keyboard-response","295","160275","0.0-1.0-294.0","",""
"null","sound/msl/cow.wav","null","audio-keyboard-response","296","160795","0.0-1.0-295.0","",""
"null","sound/msl/door_bell.wav","null","audio-keyboard-response","297","161315","0.0-1.0-296.0","",""
"null","sound/msl/cat.wav","null","audio-keyboard-response","298","161825","0.0-1.0-297.0","",""
"null","sound/msl/clock.wav","null","audio-keyboard-response","299","162385","0.0-1.0-298.0","",""
"null","sound/msl/organ.wav","null","audio-keyboard-response","300","162895","0.0-1.0-299.0","",""
"null","sound/msl/slide_whistle.wav","null","audio-keyboard-response","301","163405","0.0-1.0-300.0","",""
"null","sound/msl/dog.wav","null","audio-keyboard-response","302","163925","0.0-1.0-301.0","",""
"null","sound/msl/bird.wav","null","audio-keyboard-response","303","164435","0.0-1.0-302.0","",""
"null","sound/msl/ding.wav","null","audio-keyboard-response","304","164955","0.0-1.0-303.0","",""
"null","sound/msl/Water.wav","null","audio-keyboard-response","305","165475","0.0-1.0-304.0","",""
"null","sound/msl/door.wav","null","audio-keyboard-response","306","165985","0.0-1.0-305.0","",""
"null","sound/msl/frog.wav","null","audio-keyboard-response","307","166506","0.0-1.0-306.0","",""
"null","sound/msl/duck.wav","null","audio-keyboard-response","308","167025","0.0-1.0-307.0","",""
"null","sound/msl/goat.wav","null","audio-keyboard-response","309","167565","0.0-1.0-308.0","",""
"null","sound/msl/boing.wav","null","audio-keyboard-response","310","168075","0.0-1.0-309.0","",""
"null","sound/msl/cow.wav","null","audio-keyboard-response","311","168594","0.0-1.0-310.0","",""
"null","sound/msl/door_bell.wav","null","audio-keyboard-response","312","169105","0.0-1.0-311.0","",""
"null","sound/msl/cat.wav","null","audio-keyboard-response","313","169615","0.0-1.0-312.0","",""
"null","sound/msl/clock.wav","null","audio-keyboard-response","314","170175","0.0-1.0-313.0","",""
"null","sound/msl/organ.wav","null","audio-keyboard-response","315","170685","0.0-1.0-314.0","",""
"null","sound/msl/slide_whistle.wav","null","audio-keyboard-response","316","171195","0.0-1.0-315.0","",""
"null","sound/msl/dog.wav","null","audio-keyboard-response","317","171715","0.0-1.0-316.0","",""
"null","sound/msl/bird.wav","null","audio-keyboard-response","318","172235","0.0-1.0-317.0","",""
"null","sound/msl/ding.wav","null","audio-keyboard-response","319","172744","0.0-1.0-318.0","",""
"null","sound/msl/Water.wav","null","audio-keyboard-response","320","173265","0.0-1.0-319.0","",""
"null","sound/msl/door.wav","null","audio-keyboard-response","321","173775","0.0-1.0-320.0","",""
"null","sound/msl/boing.wav","null","audio-keyboard-response","322","174285","0.0-1.0-321.0","",""
"null","sound/msl/cow.wav","null","audio-keyboard-response","323","174806","0.0-1.0-322.0","",""
"null","sound/msl/door_bell.wav","null","audio-keyboard-response","324","175325","0.0-1.0-323.0","",""
"null","sound/msl/slide_whistle.wav","null","audio-keyboard-response","325","175834","0.0-1.0-324.0","",""
"null","sound/msl/dog.wav","null","audio-keyboard-response","326","176355","0.0-1.0-325.0","",""
"null","sound/msl/bird.wav","null","audio-keyboard-response","327","176874","0.0-1.0-326.0","",""
"null","sound/msl/frog.wav","null","audio-keyboard-response","328","177395","0.0-1.0-327.0","",""
"null","sound/msl/duck.wav","null","audio-keyboard-response","329","177914","0.0-1.0-328.0","",""
"null","sound/msl/goat.wav","null","audio-keyboard-response","330","178454","0.0-1.0-329.0","",""
"null","sound/msl/cat.wav","null","audio-keyboard-response","331","178965","0.0-1.0-330.0","",""
"null","sound/msl/clock.wav","null","audio-keyboard-response","332","179524","0.0-1.0-331.0","",""
"null","sound/msl/organ.wav","null","audio-keyboard-response","333","180035","0.0-1.0-332.0","",""
"null","sound/msl/ding.wav","null","audio-keyboard-response","334","180555","0.0-1.0-333.0","",""
"null","sound/msl/Water.wav","null","audio-keyboard-response","335","181075","0.0-1.0-334.0","",""
"null","sound/msl/door.wav","null","audio-keyboard-response","336","181585","0.0-1.0-335.0","",""
"null","sound/msl/frog.wav","null","audio-keyboard-response","337","182106","0.0-1.0-336.0","",""
"null","sound/msl/duck.wav","null","audio-keyboard-response","338","182624","0.0-1.0-337.0","",""
"null","sound/msl/goat.wav","null","audio-keyboard-response","339","183165","0.0-1.0-338.0","",""
"null","sound/msl/boing.wav","null","audio-keyboard-response","340","183675","0.0-1.0-339.0","",""
"null","sound/msl/cow.wav","null","audio-keyboard-response","341","184195","0.0-1.0-340.0","",""
"null","sound/msl/door_bell.wav","null","audio-keyboard-response","342","184715","0.0-1.0-341.0","",""
"null","sound/msl/ding.wav","null","audio-keyboard-response","343","185234","0.0-1.0-342.0","",""
"null","sound/msl/Water.wav","null","audio-keyboard-response","344","185755","0.0-1.0-343.0","",""
"null","sound/msl/door.wav","null","audio-keyboard-response","345","186265","0.0-1.0-344.0","",""
"null","sound/msl/boing.wav","null","audio-keyboard-response","346","186775","0.0-1.0-345.0","",""
"null","sound/msl/cow.wav","null","audio-keyboard-response","347","187295","0.0-1.0-346.0","",""
"null","sound/msl/door_bell.wav","null","audio-keyboard-response","348","187814","0.0-1.0-347.0","",""
"null","sound/msl/frog.wav","null","audio-keyboard-response","349","188335","0.0-1.0-348.0","",""
"null","sound/msl/duck.wav","null","audio-keyboard-response","350","188844","0.0-1.0-349.0","",""
"null","sound/msl/goat.wav","null","audio-keyboard-response","351","189384","0.0-1.0-350.0","",""
"null","sound/msl/cat.wav","null","audio-keyboard-response","352","189894","0.0-1.0-351.0","",""
"null","sound/msl/clock.wav","null","audio-keyboard-response","353","190455","0.0-1.0-352.0","",""
"null","sound/msl/organ.wav","null","audio-keyboard-response","354","190965","0.0-1.0-353.0","",""
"null","sound/msl/ding.wav","null","audio-keyboard-response","355","191475","0.0-1.0-354.0","",""
"null","sound/msl/Water.wav","null","audio-keyboard-response","356","191995","0.0-1.0-355.0","",""
"null","sound/msl/door.wav","null","audio-keyboard-response","357","192505","0.0-1.0-356.0","",""
"null","sound/msl/boing.wav","null","audio-keyboard-response","358","193016","0.0-1.0-357.0","",""
"null","sound/msl/cow.wav","null","audio-keyboard-response","359","193535","0.0-1.0-358.0","",""
"null","sound/msl/door_bell.wav","null","audio-keyboard-response","360","194055","0.0-1.0-359.0","",""
"17779","Instructions2-eng.png","49","image-keyboard-response","361","211839","0.0-2.0","",""
"null","sound/msl/ding.wav","null","audio-keyboard-response","362","212355","0.0-3.0-0.0","",""
"null","sound/msl/clock.wav","null","audio-keyboard-response","363","212915","0.0-3.0-1.0","",""
"null","sound/msl/door_bell.wav","null","audio-keyboard-response","364","213436","0.0-3.0-2.0","",""
"null","sound/asl/silence.wav","null","audio-keyboard-response","365","213939","0.0-3.0-3.0","",""
"null","sound/msl/frog.wav","null","audio-keyboard-response","366","214445","0.0-3.0-4.0","",""
"null","sound/msl/duck.wav","null","audio-keyboard-response","367","214965","0.0-3.0-5.0","",""
"null","sound/msl/goat.wav","null","audio-keyboard-response","368","215505","0.0-3.0-6.0","",""
"4409","sound/asl/silence.wav","49","audio-keyboard-response","369","219924","0.0-3.0-7.0","false",""
"null","sound/msl/slide_whistle.wav","null","audio-keyboard-response","370","220435","0.0-4.0-0.0","",""
"null","sound/msl/dog.wav","null","audio-keyboard-response","371","220955","0.0-4.0-1.0","",""
"null","sound/msl/bird.wav","null","audio-keyboard-response","372","221476","0.0-4.0-2.0","",""
"null","sound/asl/silence.wav","null","audio-keyboard-response","373","221977","0.0-4.0-3.0","",""
"null","sound/msl/frog.wav","null","audio-keyboard-response","374","222485","0.0-4.0-4.0","",""
"null","sound/msl/Water.wav","null","audio-keyboard-response","375","223005","0.0-4.0-5.0","",""
"null","sound/msl/organ.wav","null","audio-keyboard-response","376","223515","0.0-4.0-6.0","",""
"1022","sound/asl/silence.wav","50","audio-keyboard-response","377","224543","0.0-4.0-7.0","false",""
"null","sound/msl/boing.wav","null","audio-keyboard-response","378","225046","0.0-5.0-0.0","",""
"null","sound/msl/dog.wav","null","audio-keyboard-response","379","225565","0.0-5.0-1.0","",""
"null","sound/msl/goat.wav","null","audio-keyboard-response","380","226105","0.0-5.0-2.0","",""
"null","sound/asl/silence.wav","null","audio-keyboard-response","381","226607","0.0-5.0-3.0","",""
"null","sound/msl/ding.wav","null","audio-keyboard-response","382","227124","0.0-5.0-4.0","",""
"null","sound/msl/Water.wav","null","audio-keyboard-response","383","227645","0.0-5.0-5.0","",""
"null","sound/msl/door.wav","null","audio-keyboard-response","384","228155","0.0-5.0-6.0","",""
"1292","sound/asl/silence.wav","50","audio-keyboard-response","385","229446","0.0-5.0-7.0","true",""
"null","sound/msl/boing.wav","null","audio-keyboard-response","386","229955","0.0-6.0-0.0","",""
"null","sound/msl/cow.wav","null","audio-keyboard-response","387","230475","0.0-6.0-1.0","",""
"null","sound/msl/door_bell.wav","null","audio-keyboard-response","388","230995","0.0-6.0-2.0","",""
"null","sound/asl/silence.wav","null","audio-keyboard-response","389","231497","0.0-6.0-3.0","",""
"null","sound/msl/ding.wav","null","audio-keyboard-response","390","232005","0.0-6.0-4.0","",""
"null","sound/msl/clock.wav","null","audio-keyboard-response","391","232565","0.0-6.0-5.0","",""
"null","sound/msl/door_bell.wav","null","audio-keyboard-response","392","233085","0.0-6.0-6.0","",""
"589","sound/asl/silence.wav","49","audio-keyboard-response","393","233676","0.0-6.0-7.0","true",""
"null","sound/msl/cat.wav","null","audio-keyboard-response","394","234186","0.0-7.0-0.0","",""
"null","sound/msl/clock.wav","null","audio-keyboard-response","395","234745","0.0-7.0-1.0","",""
"null","sound/msl/organ.wav","null","audio-keyboard-response","396","235255","0.0-7.0-2.0","",""
"null","sound/asl/silence.wav","null","audio-keyboard-response","397","235756","0.0-7.0-3.0","",""
"null","sound/msl/ding.wav","null","audio-keyboard-response","398","236275","0.0-7.0-4.0","",""
"null","sound/msl/clock.wav","null","audio-keyboard-response","399","236835","0.0-7.0-5.0","",""
"null","sound/msl/door_bell.wav","null","audio-keyboard-response","400","237355","0.0-7.0-6.0","",""
"560","sound/asl/silence.wav","50","audio-keyboard-response","401","237916","0.0-7.0-7.0","false",""
"null","sound/msl/frog.wav","null","audio-keyboard-response","402","238435","0.0-8.0-0.0","",""
"null","sound/msl/duck.wav","null","audio-keyboard-response","403","238944","0.0-8.0-1.0","",""
"null","sound/msl/goat.wav","null","audio-keyboard-response","404","239486","0.0-8.0-2.0","",""
"null","sound/asl/silence.wav","null","audio-keyboard-response","405","239987","0.0-8.0-3.0","",""
"null","sound/msl/cat.wav","null","audio-keyboard-response","406","240495","0.0-8.0-4.0","",""
"null","sound/msl/cow.wav","null","audio-keyboard-response","407","241015","0.0-8.0-5.0","",""
"null","sound/msl/bird.wav","null","audio-keyboard-response","408","241535","0.0-8.0-6.0","",""
"459","sound/asl/silence.wav","49","audio-keyboard-response","409","242002","0.0-8.0-7.0","true",""
"null","sound/msl/frog.wav","null","audio-keyboard-response","410","242515","0.0-9.0-0.0","",""
"null","sound/msl/Water.wav","null","audio-keyboard-response","411","243035","0.0-9.0-1.0","",""
"null","sound/msl/organ.wav","null","audio-keyboard-response","412","243545","0.0-9.0-2.0","",""
"null","sound/asl/silence.wav","null","audio-keyboard-response","413","244047","0.0-9.0-3.0","",""
"null","sound/msl/cat.wav","null","audio-keyboard-response","414","244555","0.0-9.0-4.0","",""
"null","sound/msl/clock.wav","null","audio-keyboard-response","415","245115","0.0-9.0-5.0","",""
"null","sound/msl/organ.wav","null","audio-keyboard-response","416","245625","0.0-9.0-6.0","",""
"270","sound/asl/silence.wav","49","audio-keyboard-response","417","245898","0.0-9.0-7.0","false",""
"null","sound/msl/ding.wav","null","audio-keyboard-response","418","246415","0.0-10.0-0.0","",""
"null","sound/msl/Water.wav","null","audio-keyboard-response","419","246934","0.0-10.0-1.0","",""
"null","sound/msl/door.wav","null","audio-keyboard-response","420","247445","0.0-10.0-2.0","",""
"null","sound/asl/silence.wav","null","audio-keyboard-response","421","247947","0.0-10.0-3.0","",""
"null","sound/msl/ding.wav","null","audio-keyboard-response","422","248465","0.0-10.0-4.0","",""
"null","sound/msl/clock.wav","null","audio-keyboard-response","423","249025","0.0-10.0-5.0","",""
"null","sound/msl/door_bell.wav","null","audio-keyboard-response","424","249545","0.0-10.0-6.0","",""
"320","sound/asl/silence.wav","50","audio-keyboard-response","425","249866","0.0-10.0-7.0","false",""
"null","sound/msl/cat.wav","null","audio-keyboard-response","426","250375","0.0-11.0-0.0","",""
"null","sound/msl/clock.wav","null","audio-keyboard-response","427","250934","0.0-11.0-1.0","",""
"null","sound/msl/organ.wav","null","audio-keyboard-response","428","251445","0.0-11.0-2.0","",""
"null","sound/asl/silence.wav","null","audio-keyboard-response","429","251946","0.0-11.0-3.0","",""
"null","sound/msl/slide_whistle.wav","null","audio-keyboard-response","430","252455","0.0-11.0-4.0","",""
"null","sound/msl/duck.wav","null","audio-keyboard-response","431","252975","0.0-11.0-5.0","",""
"null","sound/msl/door.wav","null","audio-keyboard-response","432","253485","0.0-11.0-6.0","",""
"560","sound/asl/silence.wav","49","audio-keyboard-response","433","254046","0.0-11.0-7.0","true",""
"null","sound/msl/frog.wav","null","audio-keyboard-response","434","254555","0.0-12.0-0.0","",""
"null","sound/msl/Water.wav","null","audio-keyboard-response","435","255075","0.0-12.0-1.0","",""
"null","sound/msl/organ.wav","null","audio-keyboard-response","436","255586","0.0-12.0-2.0","",""
"null","sound/asl/silence.wav","null","audio-keyboard-response","437","256087","0.0-12.0-3.0","",""
"null","sound/msl/ding.wav","null","audio-keyboard-response","438","256595","0.0-12.0-4.0","",""
"null","sound/msl/Water.wav","null","audio-keyboard-response","439","257117","0.0-12.0-5.0","",""
"null","sound/msl/door.wav","null","audio-keyboard-response","440","257625","0.0-12.0-6.0","",""
"510","sound/asl/silence.wav","49","audio-keyboard-response","441","258140","0.0-12.0-7.0","false",""
"null","sound/msl/frog.wav","null","audio-keyboard-response","442","258655","0.0-13.0-0.0","",""
"null","sound/msl/Water.wav","null","audio-keyboard-response","443","259175","0.0-13.0-1.0","",""
"null","sound/msl/organ.wav","null","audio-keyboard-response","444","259685","0.0-13.0-2.0","",""
"null","sound/asl/silence.wav","null","audio-keyboard-response","445","260187","0.0-13.0-3.0","",""
"null","sound/msl/frog.wav","null","audio-keyboard-response","446","260706","0.0-13.0-4.0","",""
"null","sound/msl/duck.wav","null","audio-keyboard-response","447","261226","0.0-13.0-5.0","",""
"null","sound/msl/goat.wav","null","audio-keyboard-response","448","261766","0.0-13.0-6.0","",""
"639","sound/asl/silence.wav","49","audio-keyboard-response","449","262409","0.0-13.0-7.0","false",""
"null","sound/msl/slide_whistle.wav","null","audio-keyboard-response","450","262915","0.0-14.0-0.0","",""
"null","sound/msl/duck.wav","null","audio-keyboard-response","451","263425","0.0-14.0-1.0","",""
"null","sound/msl/door.wav","null","audio-keyboard-response","452","263935","0.0-14.0-2.0","",""
"null","sound/asl/silence.wav","null","audio-keyboard-response","453","264438","0.0-14.0-3.0","",""
"null","sound/msl/ding.wav","null","audio-keyboard-response","454","264955","0.0-14.0-4.0","",""
"null","sound/msl/Water.wav","null","audio-keyboard-response","455","265475","0.0-14.0-5.0","",""
"null","sound/msl/door.wav","null","audio-keyboard-response","456","265985","0.0-14.0-6.0","",""
"318","sound/asl/silence.wav","50","audio-keyboard-response","457","266314","0.0-14.0-7.0","true",""
"null","sound/msl/boing.wav","null","audio-keyboard-response","458","266826","0.0-15.0-0.0","",""
"null","sound/msl/cow.wav","null","audio-keyboard-response","459","267345","0.0-15.0-1.0","",""
"null","sound/msl/door_bell.wav","null","audio-keyboard-response","460","267866","0.0-15.0-2.0","",""
"null","sound/asl/silence.wav","null","audio-keyboard-response","461","268367","0.0-15.0-3.0","",""
"null","sound/msl/cat.wav","null","audio-keyboard-response","462","268874","0.0-15.0-4.0","",""
"null","sound/msl/cow.wav","null","audio-keyboard-response","463","269395","0.0-15.0-5.0","",""
"null","sound/msl/bird.wav","null","audio-keyboard-response","464","269915","0.0-15.0-6.0","",""
"549","sound/asl/silence.wav","49","audio-keyboard-response","465","270473","0.0-15.0-7.0","true",""
"null","sound/msl/slide_whistle.wav","null","audio-keyboard-response","466","270985","0.0-16.0-0.0","",""
"null","sound/msl/dog.wav","null","audio-keyboard-response","467","271506","0.0-16.0-1.0","",""
"null","sound/msl/bird.wav","null","audio-keyboard-response","468","272025","0.0-16.0-2.0","",""
"null","sound/asl/silence.wav","null","audio-keyboard-response","469","272527","0.0-16.0-3.0","",""
"null","sound/msl/slide_whistle.wav","null","audio-keyboard-response","470","273035","0.0-16.0-4.0","",""
"null","sound/msl/duck.wav","null","audio-keyboard-response","471","273555","0.0-16.0-5.0","",""
"null","sound/msl/door.wav","null","audio-keyboard-response","472","274065","0.0-16.0-6.0","",""
"250","sound/asl/silence.wav","50","audio-keyboard-response","473","274324","0.0-16.0-7.0","false",""
"null","sound/msl/boing.wav","null","audio-keyboard-response","474","274835","0.0-17.0-0.0","",""
"null","sound/msl/dog.wav","null","audio-keyboard-response","475","275345","0.0-17.0-1.0","",""
"null","sound/msl/goat.wav","null","audio-keyboard-response","476","275884","0.0-17.0-2.0","",""
"null","sound/asl/silence.wav","null","audio-keyboard-response","477","276386","0.0-17.0-3.0","",""
"null","sound/msl/boing.wav","null","audio-keyboard-response","478","276896","0.0-17.0-4.0","",""
"null","sound/msl/cow.wav","null","audio-keyboard-response","479","277415","0.0-17.0-5.0","",""
"null","sound/msl/door_bell.wav","null","audio-keyboard-response","480","277935","0.0-17.0-6.0","",""
"119","sound/asl/silence.wav","49","audio-keyboard-response","481","278062","0.0-17.0-7.0","false",""
"null","sound/msl/frog.wav","null","audio-keyboard-response","482","278575","0.0-18.0-0.0","",""
"null","sound/msl/Water.wav","null","audio-keyboard-response","483","279095","0.0-18.0-1.0","",""
"null","sound/msl/organ.wav","null","audio-keyboard-response","484","279605","0.0-18.0-2.0","",""
"null","sound/asl/silence.wav","null","audio-keyboard-response","485","280106","0.0-18.0-3.0","",""
"null","sound/msl/boing.wav","null","audio-keyboard-response","486","280614","0.0-18.0-4.0","",""
"null","sound/msl/cow.wav","null","audio-keyboard-response","487","281135","0.0-18.0-5.0","",""
"null","sound/msl/door_bell.wav","null","audio-keyboard-response","488","281655","0.0-18.0-6.0","",""
"278","sound/asl/silence.wav","49","audio-keyboard-response","489","281941","0.0-18.0-7.0","false",""
"null","sound/msl/ding.wav","null","audio-keyboard-response","490","282445","0.0-19.0-0.0","",""
"null","sound/msl/Water.wav","null","audio-keyboard-response","491","282965","0.0-19.0-1.0","",""
"null","sound/msl/door.wav","null","audio-keyboard-response","492","283475","0.0-19.0-2.0","",""
"null","sound/asl/silence.wav","null","audio-keyboard-response","493","283976","0.0-19.0-3.0","",""
"null","sound/msl/cat.wav","null","audio-keyboard-response","494","284485","0.0-19.0-4.0","",""
"null","sound/msl/cow.wav","null","audio-keyboard-response","495","285005","0.0-19.0-5.0","",""
"null","sound/msl/bird.wav","null","audio-keyboard-response","496","285525","0.0-19.0-6.0","",""
"369","sound/asl/silence.wav","49","audio-keyboard-response","497","285898","0.0-19.0-7.0","true",""
"null","sound/msl/slide_whistle.wav","null","audio-keyboard-response","498","286405","0.0-20.0-0.0","",""
"null","sound/msl/duck.wav","null","audio-keyboard-response","499","286914","0.0-20.0-1.0","",""
"null","sound/msl/door.wav","null","audio-keyboard-response","500","287425","0.0-20.0-2.0","",""
"null","sound/asl/silence.wav","null","audio-keyboard-response","501","287926","0.0-20.0-3.0","",""
"null","sound/msl/frog.wav","null","audio-keyboard-response","502","288445","0.0-20.0-4.0","",""
"null","sound/msl/duck.wav","null","audio-keyboard-response","503","288955","0.0-20.0-5.0","",""
"null","sound/msl/goat.wav","null","audio-keyboard-response","504","289495","0.0-20.0-6.0","",""
"140","sound/asl/silence.wav","50","audio-keyboard-response","505","289642","0.0-20.0-7.0","true",""
"null","sound/msl/cat.wav","null","audio-keyboard-response","506","290145","0.0-21.0-0.0","",""
"null","sound/msl/clock.wav","null","audio-keyboard-response","507","290705","0.0-21.0-1.0","",""
"null","sound/msl/organ.wav","null","audio-keyboard-response","508","291215","0.0-21.0-2.0","",""
"null","sound/asl/silence.wav","null","audio-keyboard-response","509","291718","0.0-21.0-3.0","",""
"null","sound/msl/cat.wav","null","audio-keyboard-response","510","292235","0.0-21.0-4.0","",""
"null","sound/msl/cow.wav","null","audio-keyboard-response","511","292754","0.0-21.0-5.0","",""
"null","sound/msl/bird.wav","null","audio-keyboard-response","512","293265","0.0-21.0-6.0","",""
"258","sound/asl/silence.wav","49","audio-keyboard-response","513","293528","0.0-21.0-7.0","true",""
"null","sound/msl/slide_whistle.wav","null","audio-keyboard-response","514","294035","0.0-22.0-0.0","",""
"null","sound/msl/dog.wav","null","audio-keyboard-response","515","294545","0.0-22.0-1.0","",""
"null","sound/msl/bird.wav","null","audio-keyboard-response","516","295065","0.0-22.0-2.0","",""
"null","sound/asl/silence.wav","null","audio-keyboard-response","517","295567","0.0-22.0-3.0","",""
"null","sound/msl/boing.wav","null","audio-keyboard-response","518","296075","0.0-22.0-4.0","",""
"null","sound/msl/dog.wav","null","audio-keyboard-response","519","296595","0.0-22.0-5.0","",""
"null","sound/msl/goat.wav","null","audio-keyboard-response","520","297135","0.0-22.0-6.0","",""
"319","sound/asl/silence.wav","50","audio-keyboard-response","521","297459","0.0-22.0-7.0","false",""
"null","sound/msl/slide_whistle.wav","null","audio-keyboard-response","522","297965","0.0-23.0-0.0","",""
"null","sound/msl/duck.wav","null","audio-keyboard-response","523","298475","0.0-23.0-1.0","",""
"null","sound/msl/door.wav","null","audio-keyboard-response","524","298985","0.0-23.0-2.0","",""
"null","sound/asl/silence.wav","null","audio-keyboard-response","525","299486","0.0-23.0-3.0","",""
"null","sound/msl/boing.wav","null","audio-keyboard-response","526","299996","0.0-23.0-4.0","",""
"null","sound/msl/cow.wav","null","audio-keyboard-response","527","300515","0.0-23.0-5.0","",""
"null","sound/msl/door_bell.wav","null","audio-keyboard-response","528","301035","0.0-23.0-6.0","",""
"159","sound/asl/silence.wav","49","audio-keyboard-response","529","301201","0.0-23.0-7.0","false",""
"null","sound/msl/ding.wav","null","audio-keyboard-response","530","301715","0.0-24.0-0.0","",""
"null","sound/msl/clock.wav","null","audio-keyboard-response","531","302275","0.0-24.0-1.0","",""
"null","sound/msl/door_bell.wav","null","audio-keyboard-response","532","302795","0.0-24.0-2.0","",""
"null","sound/asl/silence.wav","null","audio-keyboard-response","533","303296","0.0-24.0-3.0","",""
"null","sound/msl/slide_whistle.wav","null","audio-keyboard-response","534","303805","0.0-24.0-4.0","",""
"null","sound/msl/dog.wav","null","audio-keyboard-response","535","304315","0.0-24.0-5.0","",""
"null","sound/msl/bird.wav","null","audio-keyboard-response","536","304835","0.0-24.0-6.0","",""
"277","sound/asl/silence.wav","50","audio-keyboard-response","537","305117","0.0-24.0-7.0","true",""
"null","sound/msl/frog.wav","null","audio-keyboard-response","538","305635","0.0-25.0-0.0","",""
"null","sound/msl/duck.wav","null","audio-keyboard-response","539","306155","0.0-25.0-1.0","",""
"null","sound/msl/goat.wav","null","audio-keyboard-response","540","306695","0.0-25.0-2.0","",""
"null","sound/asl/silence.wav","null","audio-keyboard-response","541","307196","0.0-25.0-3.0","",""
"null","sound/msl/boing.wav","null","audio-keyboard-response","542","307705","0.0-25.0-4.0","",""
"null","sound/msl/dog.wav","null","audio-keyboard-response","543","308225","0.0-25.0-5.0","",""
"null","sound/msl/goat.wav","null","audio-keyboard-response","544","308765","0.0-25.0-6.0","",""
"520","sound/asl/silence.wav","50","audio-keyboard-response","545","309292","0.0-25.0-7.0","false",""
"null","sound/msl/boing.wav","null","audio-keyboard-response","546","309795","0.0-26.0-0.0","",""
"null","sound/msl/dog.wav","null","audio-keyboard-response","547","310315","0.0-26.0-1.0","",""
"null","sound/msl/goat.wav","null","audio-keyboard-response","548","310855","0.0-26.0-2.0","",""
"null","sound/asl/silence.wav","null","audio-keyboard-response","549","311356","0.0-26.0-3.0","",""
"null","sound/msl/cat.wav","null","audio-keyboard-response","550","311865","0.0-26.0-4.0","",""
"null","sound/msl/clock.wav","null","audio-keyboard-response","551","312425","0.0-26.0-5.0","",""
"null","sound/msl/organ.wav","null","audio-keyboard-response","552","312935","0.0-26.0-6.0","",""
"91","sound/asl/silence.wav","50","audio-keyboard-response","553","313029","0.0-26.0-7.0","true",""
"null","sound/msl/cat.wav","null","audio-keyboard-response","554","313535","0.0-27.0-0.0","",""
"null","sound/msl/cow.wav","null","audio-keyboard-response","555","314055","0.0-27.0-1.0","",""
"null","sound/msl/bird.wav","null","audio-keyboard-response","556","314575","0.0-27.0-2.0","",""
"null","sound/asl/silence.wav","null","audio-keyboard-response","557","315077","0.0-27.0-3.0","",""
"null","sound/msl/slide_whistle.wav","null","audio-keyboard-response","558","315585","0.0-27.0-4.0","",""
"null","sound/msl/dog.wav","null","audio-keyboard-response","559","316105","0.0-27.0-5.0","",""
"null","sound/msl/bird.wav","null","audio-keyboard-response","560","316624","0.0-27.0-6.0","",""
"310","sound/asl/silence.wav","49","audio-keyboard-response","561","316936","0.0-27.0-7.0","false",""
"3062","","","instructions","562","319998","0.0-28.0","","[{""page_index"":0,""viewing_time"":3062}]"
