"rt","stimulus","key_press","trial_type","trial_index","time_elapsed","internal_node_id","correct","view_history","responses"
"12546","backround.jpg","49","image-keyboard-response","0","12547","0.0-0.0","","",""
"null","sound/asl/5words_lanaguage.mp3","null","audio-keyboard-response","1","148107","0.0-1.0","","",""
"7309","Instructions2-eng.png","49","image-keyboard-response","2","155417","0.0-2.0","","",""
"null","sound/asl/tomubi.wav","null","audio-keyboard-response","3","156619","0.0-3.0-0.0","","",""
"null","sound/asl/kimuga.wav","null","audio-keyboard-response","4","157466","0.0-3.0-1.0","","",""
"641","sound/asl/silence.wav","50","audio-keyboard-response","5","158108","0.0-3.0-2.0","true","",""
"null","sound/asl/kimuga.wav","null","audio-keyboard-response","6","159310","0.0-4.0-0.0","","",""
"null","sound/asl/kibeno.wav","null","audio-keyboard-response","7","160167","0.0-4.0-1.0","","",""
"409","sound/asl/silence.wav","49","audio-keyboard-response","8","160586","0.0-4.0-2.0","true","",""
"null","sound/asl/gedino.wav","null","audio-keyboard-response","9","161789","0.0-5.0-0.0","","",""
"null","sound/asl/gekalu.wav","null","audio-keyboard-response","10","162706","0.0-5.0-1.0","","",""
"1109","sound/asl/silence.wav","49","audio-keyboard-response","11","163821","0.0-5.0-2.0","true","",""
"null","sound/asl/gedino.wav","null","audio-keyboard-response","12","165023","0.0-6.0-0.0","","",""
"null","sound/asl/kibeno.wav","null","audio-keyboard-response","13","165876","0.0-6.0-1.0","","",""
"560","sound/asl/silence.wav","50","audio-keyboard-response","14","166444","0.0-6.0-2.0","false","",""
"null","sound/asl/tomubi.wav","null","audio-keyboard-response","15","167645","0.0-7.0-0.0","","",""
"null","sound/asl/tobelu.wav","null","audio-keyboard-response","16","168497","0.0-7.0-1.0","","",""
"450","sound/asl/silence.wav","49","audio-keyboard-response","17","168949","0.0-7.0-2.0","false","",""
"null","sound/asl/nalobi.wav","null","audio-keyboard-response","18","170152","0.0-8.0-0.0","","",""
"null","sound/asl/kibeno.wav","null","audio-keyboard-response","19","171006","0.0-8.0-1.0","","",""
"401","sound/asl/silence.wav","49","audio-keyboard-response","20","171415","0.0-8.0-2.0","true","",""
"null","sound/asl/kimuga.wav","null","audio-keyboard-response","21","172616","0.0-9.0-0.0","","",""
"null","sound/asl/gekalu.wav","null","audio-keyboard-response","22","173536","0.0-9.0-1.0","","",""
"650","sound/asl/silence.wav","49","audio-keyboard-response","23","174188","0.0-9.0-2.0","true","",""
"null","sound/asl/nadime.wav","null","audio-keyboard-response","24","175389","0.0-10.0-0.0","","",""
"null","sound/asl/gedino.wav","null","audio-keyboard-response","25","176256","0.0-10.0-1.0","","",""
"2290","sound/asl/silence.wav","50","audio-keyboard-response","26","178548","0.0-10.0-2.0","true","",""
"null","sound/asl/duloga.wav","null","audio-keyboard-response","27","179749","0.0-11.0-0.0","","",""
"null","sound/asl/tobelu.wav","null","audio-keyboard-response","28","180616","0.0-11.0-1.0","","",""
"1472","sound/asl/silence.wav","49","audio-keyboard-response","29","182087","0.0-11.0-2.0","false","",""
"null","sound/asl/dukame.wav","null","audio-keyboard-response","30","183289","0.0-12.0-0.0","","",""
"null","sound/asl/duloga.wav","null","audio-keyboard-response","31","184125","0.0-12.0-1.0","","",""
"348","sound/asl/silence.wav","49","audio-keyboard-response","32","184477","0.0-12.0-2.0","true","",""
"null","sound/asl/tobelu.wav","null","audio-keyboard-response","33","185678","0.0-13.0-0.0","","",""
"null","sound/asl/gekalu.wav","null","audio-keyboard-response","34","186596","0.0-13.0-1.0","","",""
"229","sound/asl/silence.wav","50","audio-keyboard-response","35","186834","0.0-13.0-2.0","false","",""
"null","sound/asl/dukame.wav","null","audio-keyboard-response","36","188036","0.0-14.0-0.0","","",""
"null","sound/asl/kibeno.wav","null","audio-keyboard-response","37","188886","0.0-14.0-1.0","","",""
"1489","sound/asl/silence.wav","50","audio-keyboard-response","38","190383","0.0-14.0-2.0","false","",""
"null","sound/asl/nadime.wav","null","audio-keyboard-response","39","191583","0.0-15.0-0.0","","",""
"null","sound/asl/tobelu.wav","null","audio-keyboard-response","40","192436","0.0-15.0-1.0","","",""
"319","sound/asl/silence.wav","49","audio-keyboard-response","41","192763","0.0-15.0-2.0","false","",""
"null","sound/asl/dukame.wav","null","audio-keyboard-response","42","193964","0.0-16.0-0.0","","",""
"null","sound/asl/gekalu.wav","null","audio-keyboard-response","43","194877","0.0-16.0-1.0","","",""
"421","sound/asl/silence.wav","49","audio-keyboard-response","44","195296","0.0-16.0-2.0","true","",""
"null","sound/asl/nadime.wav","null","audio-keyboard-response","45","196498","0.0-17.0-0.0","","",""
"null","sound/asl/kimuga.wav","null","audio-keyboard-response","46","197346","0.0-17.0-1.0","","",""
"702","sound/asl/silence.wav","50","audio-keyboard-response","47","198053","0.0-17.0-2.0","true","",""
"null","sound/asl/duloga.wav","null","audio-keyboard-response","48","199255","0.0-18.0-0.0","","",""
"null","sound/asl/kimuga.wav","null","audio-keyboard-response","49","200096","0.0-18.0-1.0","","",""
"1170","sound/asl/silence.wav","50","audio-keyboard-response","50","201272","0.0-18.0-2.0","true","",""
"null","sound/asl/nalobi.wav","null","audio-keyboard-response","51","202474","0.0-19.0-0.0","","",""
"null","sound/asl/nadime.wav","null","audio-keyboard-response","52","203286","0.0-19.0-1.0","","",""
"1219","sound/asl/silence.wav","49","audio-keyboard-response","53","204508","0.0-19.0-2.0","true","",""
"null","sound/asl/duloga.wav","null","audio-keyboard-response","54","205710","0.0-20.0-0.0","","",""
"null","sound/asl/gedino.wav","null","audio-keyboard-response","55","206576","0.0-20.0-1.0","","",""
"1921","sound/asl/silence.wav","50","audio-keyboard-response","56","208499","0.0-20.0-2.0","true","",""
"null","sound/asl/tomubi.wav","null","audio-keyboard-response","57","209700","0.0-21.0-0.0","","",""
"null","sound/asl/gedino.wav","null","audio-keyboard-response","58","210566","0.0-21.0-1.0","","",""
"511","sound/asl/silence.wav","50","audio-keyboard-response","59","211077","0.0-21.0-2.0","true","",""
"null","sound/asl/nalobi.wav","null","audio-keyboard-response","60","212279","0.0-22.0-0.0","","",""
"null","sound/asl/gekalu.wav","null","audio-keyboard-response","61","213197","0.0-22.0-1.0","","",""
"981","sound/asl/silence.wav","49","audio-keyboard-response","62","214177","0.0-22.0-2.0","true","",""
"null","sound/asl/tomubi.wav","null","audio-keyboard-response","63","215378","0.0-23.0-0.0","","",""
"null","sound/asl/dukame.wav","null","audio-keyboard-response","64","216226","0.0-23.0-1.0","","",""
"10420","sound/asl/silence.wav","49","audio-keyboard-response","65","226651","0.0-23.0-2.0","false","",""
"null","sound/asl/nadime.wav","null","audio-keyboard-response","66","227853","0.0-24.0-0.0","","",""
"null","sound/asl/dukame.wav","null","audio-keyboard-response","67","228696","0.0-24.0-1.0","","",""
"1042","sound/asl/silence.wav","50","audio-keyboard-response","68","229739","0.0-24.0-2.0","true","",""
"null","sound/asl/nalobi.wav","null","audio-keyboard-response","69","230940","0.0-25.0-0.0","","",""
"null","sound/asl/duloga.wav","null","audio-keyboard-response","70","231776","0.0-25.0-1.0","","",""
"1309","sound/asl/silence.wav","50","audio-keyboard-response","71","233096","0.0-25.0-2.0","false","",""
"null","sound/asl/tomubi.wav","null","audio-keyboard-response","72","234297","0.0-26.0-0.0","","",""
"null","sound/asl/nalobi.wav","null","audio-keyboard-response","73","235126","0.0-26.0-1.0","","",""
"908","sound/asl/silence.wav","50","audio-keyboard-response","74","236042","0.0-26.0-2.0","true","",""
"null","sound/asl/tobelu.wav","null","audio-keyboard-response","75","237243","0.0-27.0-0.0","","",""
"null","sound/asl/kibeno.wav","null","audio-keyboard-response","76","238096","0.0-27.0-1.0","","",""
"389","sound/asl/silence.wav","49","audio-keyboard-response","77","238488","0.0-27.0-2.0","true","",""
"2803","","","instructions","78","241291","0.0-28.0","","[{""page_index"":0,""viewing_time"":2803}]",""
"11799","","","survey-likert","79","253092","0.0-29.0","","","{""Q0"":2}"
"5663","","","survey-likert","80","258755","0.0-30.0","","","{""Q0"":3}"
"6006","","","survey-likert","81","264763","0.0-31.0","","","{""Q0"":2}"
"11512","","","survey-likert","82","276276","0.0-32.0","","","{""Q0"":3}"
"5703","","","survey-likert","83","281979","0.0-33.0","","","{""Q0"":2}"
"9504","","","survey-likert","84","291483","0.0-34.0","","","{""Q0"":2}"
"1191","","","instructions","85","292675","0.0-35.0","","[{""page_index"":0,""viewing_time"":1191}]",""
