"rt","stimulus","key_press","trial_type","trial_index","time_elapsed","internal_node_id","correct","view_history"
"8974","alien.jpg","49","image-keyboard-response","0","8980","0.0-0.0","",""
"null","sound/msl/organ.wav","null","audio-keyboard-response","1","9486","0.0-1.0-0.0","",""
"null","sound/msl/clock.wav","null","audio-keyboard-response","2","10046","0.0-1.0-1.0","",""
"null","sound/msl/duck.wav","null","audio-keyboard-response","3","10566","0.0-1.0-2.0","",""
"null","sound/msl/Water.wav","null","audio-keyboard-response","4","11086","0.0-1.0-3.0","",""
"null","sound/msl/dog.wav","null","audio-keyboard-response","5","11606","0.0-1.0-4.0","",""
"null","sound/msl/door.wav","null","audio-keyboard-response","6","12116","0.0-1.0-5.0","",""
"null","sound/msl/door_bell.wav","null","audio-keyboard-response","7","12636","0.0-1.0-6.0","",""
"null","sound/msl/cat.wav","null","audio-keyboard-response","8","13146","0.0-1.0-7.0","",""
"null","sound/msl/boing.wav","null","audio-keyboard-response","9","13656","0.0-1.0-8.0","",""
"null","sound/msl/frog.wav","null","audio-keyboard-response","10","14166","0.0-1.0-9.0","",""
"null","sound/msl/goat.wav","null","audio-keyboard-response","11","14716","0.0-1.0-10.0","",""
"null","sound/msl/cow.wav","null","audio-keyboard-response","12","15236","0.0-1.0-11.0","",""
"null","sound/msl/Water.wav","null","audio-keyboard-response","13","15756","0.0-1.0-12.0","",""
"null","sound/msl/dog.wav","null","audio-keyboard-response","14","16276","0.0-1.0-13.0","",""
"null","sound/msl/door.wav","null","audio-keyboard-response","15","16786","0.0-1.0-14.0","",""
"null","sound/msl/organ.wav","null","audio-keyboard-response","16","17296","0.0-1.0-15.0","",""
"null","sound/msl/clock.wav","null","audio-keyboard-response","17","17856","0.0-1.0-16.0","",""
"null","sound/msl/duck.wav","null","audio-keyboard-response","18","18366","0.0-1.0-17.0","",""
"null","sound/msl/ding.wav","null","audio-keyboard-response","19","18886","0.0-1.0-18.0","",""
"null","sound/msl/slide_whistle.wav","null","audio-keyboard-response","20","19406","0.0-1.0-19.0","",""
"null","sound/msl/bird.wav","null","audio-keyboard-response","21","19926","0.0-1.0-20.0","",""
"null","sound/msl/frog.wav","null","audio-keyboard-response","22","20446","0.0-1.0-21.0","",""
"null","sound/msl/goat.wav","null","audio-keyboard-response","23","20996","0.0-1.0-22.0","",""
"null","sound/msl/cow.wav","null","audio-keyboard-response","24","21516","0.0-1.0-23.0","",""
"null","sound/msl/door_bell.wav","null","audio-keyboard-response","25","22036","0.0-1.0-24.0","",""
"null","sound/msl/cat.wav","null","audio-keyboard-response","26","22546","0.0-1.0-25.0","",""
"null","sound/msl/boing.wav","null","audio-keyboard-response","27","23056","0.0-1.0-26.0","",""
"null","sound/msl/organ.wav","null","audio-keyboard-response","28","23566","0.0-1.0-27.0","",""
"null","sound/msl/clock.wav","null","audio-keyboard-response","29","24126","0.0-1.0-28.0","",""
"null","sound/msl/duck.wav","null","audio-keyboard-response","30","24646","0.0-1.0-29.0","",""
"null","sound/msl/Water.wav","null","audio-keyboard-response","31","25166","0.0-1.0-30.0","",""
"null","sound/msl/dog.wav","null","audio-keyboard-response","32","25686","0.0-1.0-31.0","",""
"null","sound/msl/door.wav","null","audio-keyboard-response","33","26196","0.0-1.0-32.0","",""
"null","sound/msl/ding.wav","null","audio-keyboard-response","34","26716","0.0-1.0-33.0","",""
"null","sound/msl/slide_whistle.wav","null","audio-keyboard-response","35","27236","0.0-1.0-34.0","",""
"null","sound/msl/bird.wav","null","audio-keyboard-response","36","27754","0.0-1.0-35.0","",""
"null","sound/msl/door_bell.wav","null","audio-keyboard-response","37","28274","0.0-1.0-36.0","",""
"null","sound/msl/cat.wav","null","audio-keyboard-response","38","28786","0.0-1.0-37.0","",""
"null","sound/msl/boing.wav","null","audio-keyboard-response","39","29296","0.0-1.0-38.0","",""
"null","sound/msl/frog.wav","null","audio-keyboard-response","40","29806","0.0-1.0-39.0","",""
"null","sound/msl/goat.wav","null","audio-keyboard-response","41","30356","0.0-1.0-40.0","",""
"null","sound/msl/cow.wav","null","audio-keyboard-response","42","30876","0.0-1.0-41.0","",""
"null","sound/msl/ding.wav","null","audio-keyboard-response","43","31396","0.0-1.0-42.0","",""
"null","sound/msl/slide_whistle.wav","null","audio-keyboard-response","44","31916","0.0-1.0-43.0","",""
"null","sound/msl/bird.wav","null","audio-keyboard-response","45","32436","0.0-1.0-44.0","",""
"null","sound/msl/Water.wav","null","audio-keyboard-response","46","32956","0.0-1.0-45.0","",""
"null","sound/msl/dog.wav","null","audio-keyboard-response","47","33476","0.0-1.0-46.0","",""
"null","sound/msl/door.wav","null","audio-keyboard-response","48","33986","0.0-1.0-47.0","",""
"null","sound/msl/door_bell.wav","null","audio-keyboard-response","49","34496","0.0-1.0-48.0","",""
"null","sound/msl/cat.wav","null","audio-keyboard-response","50","35006","0.0-1.0-49.0","",""
"null","sound/msl/boing.wav","null","audio-keyboard-response","51","35516","0.0-1.0-50.0","",""
"null","sound/msl/organ.wav","null","audio-keyboard-response","52","36026","0.0-1.0-51.0","",""
"null","sound/msl/clock.wav","null","audio-keyboard-response","53","36586","0.0-1.0-52.0","",""
"null","sound/msl/duck.wav","null","audio-keyboard-response","54","37096","0.0-1.0-53.0","",""
"null","sound/msl/Water.wav","null","audio-keyboard-response","55","37616","0.0-1.0-54.0","",""
"null","sound/msl/dog.wav","null","audio-keyboard-response","56","38126","0.0-1.0-55.0","",""
"null","sound/msl/door.wav","null","audio-keyboard-response","57","38636","0.0-1.0-56.0","",""
"null","sound/msl/door_bell.wav","null","audio-keyboard-response","58","39156","0.0-1.0-57.0","",""
"null","sound/msl/cat.wav","null","audio-keyboard-response","59","39666","0.0-1.0-58.0","",""
"null","sound/msl/boing.wav","null","audio-keyboard-response","60","40176","0.0-1.0-59.0","",""
"null","sound/msl/frog.wav","null","audio-keyboard-response","61","40686","0.0-1.0-60.0","",""
"null","sound/msl/goat.wav","null","audio-keyboard-response","62","41236","0.0-1.0-61.0","",""
"null","sound/msl/cow.wav","null","audio-keyboard-response","63","41756","0.0-1.0-62.0","",""
"null","sound/msl/ding.wav","null","audio-keyboard-response","64","42276","0.0-1.0-63.0","",""
"null","sound/msl/slide_whistle.wav","null","audio-keyboard-response","65","42796","0.0-1.0-64.0","",""
"null","sound/msl/bird.wav","null","audio-keyboard-response","66","43316","0.0-1.0-65.0","",""
"null","sound/msl/Water.wav","null","audio-keyboard-response","67","43836","0.0-1.0-66.0","",""
"null","sound/msl/dog.wav","null","audio-keyboard-response","68","44356","0.0-1.0-67.0","",""
"null","sound/msl/door.wav","null","audio-keyboard-response","69","44866","0.0-1.0-68.0","",""
"null","sound/msl/organ.wav","null","audio-keyboard-response","70","45376","0.0-1.0-69.0","",""
"null","sound/msl/clock.wav","null","audio-keyboard-response","71","45936","0.0-1.0-70.0","",""
"null","sound/msl/duck.wav","null","audio-keyboard-response","72","46446","0.0-1.0-71.0","",""
"null","sound/msl/door_bell.wav","null","audio-keyboard-response","73","46966","0.0-1.0-72.0","",""
"null","sound/msl/cat.wav","null","audio-keyboard-response","74","47476","0.0-1.0-73.0","",""
"null","sound/msl/boing.wav","null","audio-keyboard-response","75","47986","0.0-1.0-74.0","",""
"null","sound/msl/frog.wav","null","audio-keyboard-response","76","48496","0.0-1.0-75.0","",""
"null","sound/msl/goat.wav","null","audio-keyboard-response","77","49046","0.0-1.0-76.0","",""
"null","sound/msl/cow.wav","null","audio-keyboard-response","78","49566","0.0-1.0-77.0","",""
"null","sound/msl/door_bell.wav","null","audio-keyboard-response","79","50086","0.0-1.0-78.0","",""
"null","sound/msl/cat.wav","null","audio-keyboard-response","80","50596","0.0-1.0-79.0","",""
"null","sound/msl/boing.wav","null","audio-keyboard-response","81","51106","0.0-1.0-80.0","",""
"null","sound/msl/ding.wav","null","audio-keyboard-response","82","51616","0.0-1.0-81.0","",""
"null","sound/msl/slide_whistle.wav","null","audio-keyboard-response","83","52126","0.0-1.0-82.0","",""
"null","sound/msl/bird.wav","null","audio-keyboard-response","84","52646","0.0-1.0-83.0","",""
"null","sound/msl/organ.wav","null","audio-keyboard-response","85","53156","0.0-1.0-84.0","",""
"null","sound/msl/clock.wav","null","audio-keyboard-response","86","53716","0.0-1.0-85.0","",""
"null","sound/msl/duck.wav","null","audio-keyboard-response","87","54236","0.0-1.0-86.0","",""
"null","sound/msl/Water.wav","null","audio-keyboard-response","88","54756","0.0-1.0-87.0","",""
"null","sound/msl/dog.wav","null","audio-keyboard-response","89","55276","0.0-1.0-88.0","",""
"null","sound/msl/door.wav","null","audio-keyboard-response","90","55786","0.0-1.0-89.0","",""
"null","sound/msl/ding.wav","null","audio-keyboard-response","91","56296","0.0-1.0-90.0","",""
"null","sound/msl/slide_whistle.wav","null","audio-keyboard-response","92","56806","0.0-1.0-91.0","",""
"null","sound/msl/bird.wav","null","audio-keyboard-response","93","57326","0.0-1.0-92.0","",""
"null","sound/msl/frog.wav","null","audio-keyboard-response","94","57846","0.0-1.0-93.0","",""
"null","sound/msl/goat.wav","null","audio-keyboard-response","95","58396","0.0-1.0-94.0","",""
"null","sound/msl/cow.wav","null","audio-keyboard-response","96","58916","0.0-1.0-95.0","",""
"null","sound/msl/door_bell.wav","null","audio-keyboard-response","97","59436","0.0-1.0-96.0","",""
"null","sound/msl/cat.wav","null","audio-keyboard-response","98","59946","0.0-1.0-97.0","",""
"null","sound/msl/boing.wav","null","audio-keyboard-response","99","60456","0.0-1.0-98.0","",""
"null","sound/msl/Water.wav","null","audio-keyboard-response","100","60978","0.0-1.0-99.0","",""
"null","sound/msl/dog.wav","null","audio-keyboard-response","101","61486","0.0-1.0-100.0","",""
"null","sound/msl/door.wav","null","audio-keyboard-response","102","61996","0.0-1.0-101.0","",""
"null","sound/msl/ding.wav","null","audio-keyboard-response","103","62516","0.0-1.0-102.0","",""
"null","sound/msl/slide_whistle.wav","null","audio-keyboard-response","104","63036","0.0-1.0-103.0","",""
"null","sound/msl/bird.wav","null","audio-keyboard-response","105","63556","0.0-1.0-104.0","",""
"null","sound/msl/organ.wav","null","audio-keyboard-response","106","64066","0.0-1.0-105.0","",""
"null","sound/msl/clock.wav","null","audio-keyboard-response","107","64626","0.0-1.0-106.0","",""
"null","sound/msl/duck.wav","null","audio-keyboard-response","108","65136","0.0-1.0-107.0","",""
"null","sound/msl/Water.wav","null","audio-keyboard-response","109","65656","0.0-1.0-108.0","",""
"null","sound/msl/dog.wav","null","audio-keyboard-response","110","66166","0.0-1.0-109.0","",""
"null","sound/msl/door.wav","null","audio-keyboard-response","111","66676","0.0-1.0-110.0","",""
"null","sound/msl/frog.wav","null","audio-keyboard-response","112","67196","0.0-1.0-111.0","",""
"null","sound/msl/goat.wav","null","audio-keyboard-response","113","67746","0.0-1.0-112.0","",""
"null","sound/msl/cow.wav","null","audio-keyboard-response","114","68256","0.0-1.0-113.0","",""
"null","sound/msl/ding.wav","null","audio-keyboard-response","115","68766","0.0-1.0-114.0","",""
"null","sound/msl/slide_whistle.wav","null","audio-keyboard-response","116","69286","0.0-1.0-115.0","",""
"null","sound/msl/bird.wav","null","audio-keyboard-response","117","69806","0.0-1.0-116.0","",""
"null","sound/msl/door_bell.wav","null","audio-keyboard-response","118","70326","0.0-1.0-117.0","",""
"null","sound/msl/cat.wav","null","audio-keyboard-response","119","70836","0.0-1.0-118.0","",""
"null","sound/msl/boing.wav","null","audio-keyboard-response","120","71346","0.0-1.0-119.0","",""
"null","sound/msl/organ.wav","null","audio-keyboard-response","121","71856","0.0-1.0-120.0","",""
"null","sound/msl/clock.wav","null","audio-keyboard-response","122","72416","0.0-1.0-121.0","",""
"null","sound/msl/duck.wav","null","audio-keyboard-response","123","72926","0.0-1.0-122.0","",""
"null","sound/msl/Water.wav","null","audio-keyboard-response","124","73446","0.0-1.0-123.0","",""
"null","sound/msl/dog.wav","null","audio-keyboard-response","125","73966","0.0-1.0-124.0","",""
"null","sound/msl/door.wav","null","audio-keyboard-response","126","74476","0.0-1.0-125.0","",""
"null","sound/msl/ding.wav","null","audio-keyboard-response","127","74996","0.0-1.0-126.0","",""
"null","sound/msl/slide_whistle.wav","null","audio-keyboard-response","128","75516","0.0-1.0-127.0","",""
"null","sound/msl/bird.wav","null","audio-keyboard-response","129","76036","0.0-1.0-128.0","",""
"null","sound/msl/frog.wav","null","audio-keyboard-response","130","76556","0.0-1.0-129.0","",""
"null","sound/msl/goat.wav","null","audio-keyboard-response","131","77106","0.0-1.0-130.0","",""
"null","sound/msl/cow.wav","null","audio-keyboard-response","132","77616","0.0-1.0-131.0","",""
"null","sound/msl/Water.wav","null","audio-keyboard-response","133","78136","0.0-1.0-132.0","",""
"null","sound/msl/dog.wav","null","audio-keyboard-response","134","78646","0.0-1.0-133.0","",""
"null","sound/msl/door.wav","null","audio-keyboard-response","135","79156","0.0-1.0-134.0","",""
"null","sound/msl/door_bell.wav","null","audio-keyboard-response","136","79676","0.0-1.0-135.0","",""
"null","sound/msl/cat.wav","null","audio-keyboard-response","137","80186","0.0-1.0-136.0","",""
"null","sound/msl/boing.wav","null","audio-keyboard-response","138","80696","0.0-1.0-137.0","",""
"null","sound/msl/frog.wav","null","audio-keyboard-response","139","81206","0.0-1.0-138.0","",""
"null","sound/msl/goat.wav","null","audio-keyboard-response","140","81756","0.0-1.0-139.0","",""
"null","sound/msl/cow.wav","null","audio-keyboard-response","141","82276","0.0-1.0-140.0","",""
"null","sound/msl/organ.wav","null","audio-keyboard-response","142","82786","0.0-1.0-141.0","",""
"null","sound/msl/clock.wav","null","audio-keyboard-response","143","83346","0.0-1.0-142.0","",""
"null","sound/msl/duck.wav","null","audio-keyboard-response","144","83856","0.0-1.0-143.0","",""
"null","sound/msl/ding.wav","null","audio-keyboard-response","145","84366","0.0-1.0-144.0","",""
"null","sound/msl/slide_whistle.wav","null","audio-keyboard-response","146","84886","0.0-1.0-145.0","",""
"null","sound/msl/bird.wav","null","audio-keyboard-response","147","85406","0.0-1.0-146.0","",""
"null","sound/msl/door_bell.wav","null","audio-keyboard-response","148","85926","0.0-1.0-147.0","",""
"null","sound/msl/cat.wav","null","audio-keyboard-response","149","86436","0.0-1.0-148.0","",""
"null","sound/msl/boing.wav","null","audio-keyboard-response","150","86946","0.0-1.0-149.0","",""
"null","sound/msl/organ.wav","null","audio-keyboard-response","151","87456","0.0-1.0-150.0","",""
"null","sound/msl/clock.wav","null","audio-keyboard-response","152","88016","0.0-1.0-151.0","",""
"null","sound/msl/duck.wav","null","audio-keyboard-response","153","88526","0.0-1.0-152.0","",""
"null","sound/msl/Water.wav","null","audio-keyboard-response","154","89046","0.0-1.0-153.0","",""
"null","sound/msl/dog.wav","null","audio-keyboard-response","155","89566","0.0-1.0-154.0","",""
"null","sound/msl/door.wav","null","audio-keyboard-response","156","90076","0.0-1.0-155.0","",""
"null","sound/msl/frog.wav","null","audio-keyboard-response","157","90596","0.0-1.0-156.0","",""
"null","sound/msl/goat.wav","null","audio-keyboard-response","158","91146","0.0-1.0-157.0","",""
"null","sound/msl/cow.wav","null","audio-keyboard-response","159","91656","0.0-1.0-158.0","",""
"null","sound/msl/ding.wav","null","audio-keyboard-response","160","92166","0.0-1.0-159.0","",""
"null","sound/msl/slide_whistle.wav","null","audio-keyboard-response","161","92686","0.0-1.0-160.0","",""
"null","sound/msl/bird.wav","null","audio-keyboard-response","162","93206","0.0-1.0-161.0","",""
"null","sound/msl/Water.wav","null","audio-keyboard-response","163","93726","0.0-1.0-162.0","",""
"null","sound/msl/dog.wav","null","audio-keyboard-response","164","94244","0.0-1.0-163.0","",""
"null","sound/msl/door.wav","null","audio-keyboard-response","165","94756","0.0-1.0-164.0","",""
"null","sound/msl/frog.wav","null","audio-keyboard-response","166","95276","0.0-1.0-165.0","",""
"null","sound/msl/goat.wav","null","audio-keyboard-response","167","95826","0.0-1.0-166.0","",""
"null","sound/msl/cow.wav","null","audio-keyboard-response","168","96336","0.0-1.0-167.0","",""
"null","sound/msl/organ.wav","null","audio-keyboard-response","169","96846","0.0-1.0-168.0","",""
"null","sound/msl/clock.wav","null","audio-keyboard-response","170","97406","0.0-1.0-169.0","",""
"null","sound/msl/duck.wav","null","audio-keyboard-response","171","97926","0.0-1.0-170.0","",""
"null","sound/msl/door_bell.wav","null","audio-keyboard-response","172","98446","0.0-1.0-171.0","",""
"null","sound/msl/cat.wav","null","audio-keyboard-response","173","98956","0.0-1.0-172.0","",""
"null","sound/msl/boing.wav","null","audio-keyboard-response","174","99466","0.0-1.0-173.0","",""
"null","sound/msl/ding.wav","null","audio-keyboard-response","175","99976","0.0-1.0-174.0","",""
"null","sound/msl/slide_whistle.wav","null","audio-keyboard-response","176","100486","0.0-1.0-175.0","",""
"null","sound/msl/bird.wav","null","audio-keyboard-response","177","101006","0.0-1.0-176.0","",""
"null","sound/msl/Water.wav","null","audio-keyboard-response","178","101526","0.0-1.0-177.0","",""
"null","sound/msl/dog.wav","null","audio-keyboard-response","179","102046","0.0-1.0-178.0","",""
"null","sound/msl/door.wav","null","audio-keyboard-response","180","102554","0.0-1.0-179.0","",""
"null","sound/msl/door_bell.wav","null","audio-keyboard-response","181","103076","0.0-1.0-180.0","",""
"null","sound/msl/cat.wav","null","audio-keyboard-response","182","103586","0.0-1.0-181.0","",""
"null","sound/msl/boing.wav","null","audio-keyboard-response","183","104096","0.0-1.0-182.0","",""
"null","sound/msl/frog.wav","null","audio-keyboard-response","184","104606","0.0-1.0-183.0","",""
"null","sound/msl/goat.wav","null","audio-keyboard-response","185","105156","0.0-1.0-184.0","",""
"null","sound/msl/cow.wav","null","audio-keyboard-response","186","105674","0.0-1.0-185.0","",""
"null","sound/msl/organ.wav","null","audio-keyboard-response","187","106186","0.0-1.0-186.0","",""
"null","sound/msl/clock.wav","null","audio-keyboard-response","188","106746","0.0-1.0-187.0","",""
"null","sound/msl/duck.wav","null","audio-keyboard-response","189","107256","0.0-1.0-188.0","",""
"null","sound/msl/ding.wav","null","audio-keyboard-response","190","107766","0.0-1.0-189.0","",""
"null","sound/msl/slide_whistle.wav","null","audio-keyboard-response","191","108286","0.0-1.0-190.0","",""
"null","sound/msl/bird.wav","null","audio-keyboard-response","192","108806","0.0-1.0-191.0","",""
"null","sound/msl/Water.wav","null","audio-keyboard-response","193","109326","0.0-1.0-192.0","",""
"null","sound/msl/dog.wav","null","audio-keyboard-response","194","109846","0.0-1.0-193.0","",""
"null","sound/msl/door.wav","null","audio-keyboard-response","195","110356","0.0-1.0-194.0","",""
"null","sound/msl/door_bell.wav","null","audio-keyboard-response","196","110876","0.0-1.0-195.0","",""
"null","sound/msl/cat.wav","null","audio-keyboard-response","197","111386","0.0-1.0-196.0","",""
"null","sound/msl/boing.wav","null","audio-keyboard-response","198","111896","0.0-1.0-197.0","",""
"null","sound/msl/organ.wav","null","audio-keyboard-response","199","112406","0.0-1.0-198.0","",""
"null","sound/msl/clock.wav","null","audio-keyboard-response","200","112964","0.0-1.0-199.0","",""
"null","sound/msl/duck.wav","null","audio-keyboard-response","201","113486","0.0-1.0-200.0","",""
"null","sound/msl/frog.wav","null","audio-keyboard-response","202","114006","0.0-1.0-201.0","",""
"null","sound/msl/goat.wav","null","audio-keyboard-response","203","114556","0.0-1.0-202.0","",""
"null","sound/msl/cow.wav","null","audio-keyboard-response","204","115076","0.0-1.0-203.0","",""
"null","sound/msl/ding.wav","null","audio-keyboard-response","205","115596","0.0-1.0-204.0","",""
"null","sound/msl/slide_whistle.wav","null","audio-keyboard-response","206","116116","0.0-1.0-205.0","",""
"null","sound/msl/bird.wav","null","audio-keyboard-response","207","116636","0.0-1.0-206.0","",""
"null","sound/msl/Water.wav","null","audio-keyboard-response","208","117156","0.0-1.0-207.0","",""
"null","sound/msl/dog.wav","null","audio-keyboard-response","209","117676","0.0-1.0-208.0","",""
"null","sound/msl/door.wav","null","audio-keyboard-response","210","118186","0.0-1.0-209.0","",""
"null","sound/msl/organ.wav","null","audio-keyboard-response","211","118696","0.0-1.0-210.0","",""
"null","sound/msl/clock.wav","null","audio-keyboard-response","212","119256","0.0-1.0-211.0","",""
"null","sound/msl/duck.wav","null","audio-keyboard-response","213","119766","0.0-1.0-212.0","",""
"null","sound/msl/ding.wav","null","audio-keyboard-response","214","120286","0.0-1.0-213.0","",""
"null","sound/msl/slide_whistle.wav","null","audio-keyboard-response","215","120806","0.0-1.0-214.0","",""
"null","sound/msl/bird.wav","null","audio-keyboard-response","216","121326","0.0-1.0-215.0","",""
"null","sound/msl/door_bell.wav","null","audio-keyboard-response","217","121846","0.0-1.0-216.0","",""
"null","sound/msl/cat.wav","null","audio-keyboard-response","218","122356","0.0-1.0-217.0","",""
"null","sound/msl/boing.wav","null","audio-keyboard-response","219","122866","0.0-1.0-218.0","",""
"null","sound/msl/frog.wav","null","audio-keyboard-response","220","123374","0.0-1.0-219.0","",""
"null","sound/msl/goat.wav","null","audio-keyboard-response","221","123926","0.0-1.0-220.0","",""
"null","sound/msl/cow.wav","null","audio-keyboard-response","222","124446","0.0-1.0-221.0","",""
"null","sound/msl/Water.wav","null","audio-keyboard-response","223","124966","0.0-1.0-222.0","",""
"null","sound/msl/dog.wav","null","audio-keyboard-response","224","125486","0.0-1.0-223.0","",""
"null","sound/msl/door.wav","null","audio-keyboard-response","225","125996","0.0-1.0-224.0","",""
"null","sound/msl/door_bell.wav","null","audio-keyboard-response","226","126516","0.0-1.0-225.0","",""
"null","sound/msl/cat.wav","null","audio-keyboard-response","227","127026","0.0-1.0-226.0","",""
"null","sound/msl/boing.wav","null","audio-keyboard-response","228","127536","0.0-1.0-227.0","",""
"null","sound/msl/ding.wav","null","audio-keyboard-response","229","128046","0.0-1.0-228.0","",""
"null","sound/msl/slide_whistle.wav","null","audio-keyboard-response","230","128566","0.0-1.0-229.0","",""
"null","sound/msl/bird.wav","null","audio-keyboard-response","231","129086","0.0-1.0-230.0","",""
"null","sound/msl/door_bell.wav","null","audio-keyboard-response","232","129606","0.0-1.0-231.0","",""
"null","sound/msl/cat.wav","null","audio-keyboard-response","233","130116","0.0-1.0-232.0","",""
"null","sound/msl/boing.wav","null","audio-keyboard-response","234","130626","0.0-1.0-233.0","",""
"null","sound/msl/Water.wav","null","audio-keyboard-response","235","131146","0.0-1.0-234.0","",""
"null","sound/msl/dog.wav","null","audio-keyboard-response","236","131656","0.0-1.0-235.0","",""
"null","sound/msl/door.wav","null","audio-keyboard-response","237","132166","0.0-1.0-236.0","",""
"null","sound/msl/frog.wav","null","audio-keyboard-response","238","132686","0.0-1.0-237.0","",""
"null","sound/msl/goat.wav","null","audio-keyboard-response","239","133236","0.0-1.0-238.0","",""
"null","sound/msl/cow.wav","null","audio-keyboard-response","240","133756","0.0-1.0-239.0","",""
"null","sound/msl/organ.wav","null","audio-keyboard-response","241","134266","0.0-1.0-240.0","",""
"null","sound/msl/clock.wav","null","audio-keyboard-response","242","134826","0.0-1.0-241.0","",""
"null","sound/msl/duck.wav","null","audio-keyboard-response","243","135336","0.0-1.0-242.0","",""
"null","sound/msl/ding.wav","null","audio-keyboard-response","244","135846","0.0-1.0-243.0","",""
"null","sound/msl/slide_whistle.wav","null","audio-keyboard-response","245","136366","0.0-1.0-244.0","",""
"null","sound/msl/bird.wav","null","audio-keyboard-response","246","136884","0.0-1.0-245.0","",""
"null","sound/msl/Water.wav","null","audio-keyboard-response","247","137406","0.0-1.0-246.0","",""
"null","sound/msl/dog.wav","null","audio-keyboard-response","248","137924","0.0-1.0-247.0","",""
"null","sound/msl/door.wav","null","audio-keyboard-response","249","138436","0.0-1.0-248.0","",""
"null","sound/msl/frog.wav","null","audio-keyboard-response","250","138956","0.0-1.0-249.0","",""
"null","sound/msl/goat.wav","null","audio-keyboard-response","251","139506","0.0-1.0-250.0","",""
"null","sound/msl/cow.wav","null","audio-keyboard-response","252","140016","0.0-1.0-251.0","",""
"null","sound/msl/organ.wav","null","audio-keyboard-response","253","140526","0.0-1.0-252.0","",""
"null","sound/msl/clock.wav","null","audio-keyboard-response","254","141086","0.0-1.0-253.0","",""
"null","sound/msl/duck.wav","null","audio-keyboard-response","255","141606","0.0-1.0-254.0","",""
"null","sound/msl/door_bell.wav","null","audio-keyboard-response","256","142126","0.0-1.0-255.0","",""
"null","sound/msl/cat.wav","null","audio-keyboard-response","257","142636","0.0-1.0-256.0","",""
"null","sound/msl/boing.wav","null","audio-keyboard-response","258","143144","0.0-1.0-257.0","",""
"null","sound/msl/ding.wav","null","audio-keyboard-response","259","143656","0.0-1.0-258.0","",""
"null","sound/msl/slide_whistle.wav","null","audio-keyboard-response","260","144166","0.0-1.0-259.0","",""
"null","sound/msl/bird.wav","null","audio-keyboard-response","261","144686","0.0-1.0-260.0","",""
"null","sound/msl/organ.wav","null","audio-keyboard-response","262","145194","0.0-1.0-261.0","",""
"null","sound/msl/clock.wav","null","audio-keyboard-response","263","145754","0.0-1.0-262.0","",""
"null","sound/msl/duck.wav","null","audio-keyboard-response","264","146276","0.0-1.0-263.0","",""
"null","sound/msl/frog.wav","null","audio-keyboard-response","265","146796","0.0-1.0-264.0","",""
"null","sound/msl/goat.wav","null","audio-keyboard-response","266","147346","0.0-1.0-265.0","",""
"null","sound/msl/cow.wav","null","audio-keyboard-response","267","147856","0.0-1.0-266.0","",""
"null","sound/msl/door_bell.wav","null","audio-keyboard-response","268","148366","0.0-1.0-267.0","",""
"null","sound/msl/cat.wav","null","audio-keyboard-response","269","148876","0.0-1.0-268.0","",""
"null","sound/msl/boing.wav","null","audio-keyboard-response","270","149384","0.0-1.0-269.0","",""
"null","sound/msl/Water.wav","null","audio-keyboard-response","271","149906","0.0-1.0-270.0","",""
"null","sound/msl/dog.wav","null","audio-keyboard-response","272","150416","0.0-1.0-271.0","",""
"null","sound/msl/door.wav","null","audio-keyboard-response","273","150926","0.0-1.0-272.0","",""
"null","sound/msl/ding.wav","null","audio-keyboard-response","274","151446","0.0-1.0-273.0","",""
"null","sound/msl/slide_whistle.wav","null","audio-keyboard-response","275","151966","0.0-1.0-274.0","",""
"null","sound/msl/bird.wav","null","audio-keyboard-response","276","152486","0.0-1.0-275.0","",""
"null","sound/msl/organ.wav","null","audio-keyboard-response","277","152996","0.0-1.0-276.0","",""
"null","sound/msl/clock.wav","null","audio-keyboard-response","278","153556","0.0-1.0-277.0","",""
"null","sound/msl/duck.wav","null","audio-keyboard-response","279","154076","0.0-1.0-278.0","",""
"null","sound/msl/frog.wav","null","audio-keyboard-response","280","154596","0.0-1.0-279.0","",""
"null","sound/msl/goat.wav","null","audio-keyboard-response","281","155146","0.0-1.0-280.0","",""
"null","sound/msl/cow.wav","null","audio-keyboard-response","282","155656","0.0-1.0-281.0","",""
"null","sound/msl/Water.wav","null","audio-keyboard-response","283","156176","0.0-1.0-282.0","",""
"null","sound/msl/dog.wav","null","audio-keyboard-response","284","156686","0.0-1.0-283.0","",""
"null","sound/msl/door.wav","null","audio-keyboard-response","285","157196","0.0-1.0-284.0","",""
"null","sound/msl/door_bell.wav","null","audio-keyboard-response","286","157716","0.0-1.0-285.0","",""
"null","sound/msl/cat.wav","null","audio-keyboard-response","287","158226","0.0-1.0-286.0","",""
"null","sound/msl/boing.wav","null","audio-keyboard-response","288","158736","0.0-1.0-287.0","",""
"null","sound/msl/ding.wav","null","audio-keyboard-response","289","159244","0.0-1.0-288.0","",""
"null","sound/msl/slide_whistle.wav","null","audio-keyboard-response","290","159766","0.0-1.0-289.0","",""
"null","sound/msl/bird.wav","null","audio-keyboard-response","291","160284","0.0-1.0-290.0","",""
"null","sound/msl/frog.wav","null","audio-keyboard-response","292","160806","0.0-1.0-291.0","",""
"null","sound/msl/goat.wav","null","audio-keyboard-response","293","161356","0.0-1.0-292.0","",""
"null","sound/msl/cow.wav","null","audio-keyboard-response","294","161876","0.0-1.0-293.0","",""
"null","sound/msl/organ.wav","null","audio-keyboard-response","295","162386","0.0-1.0-294.0","",""
"null","sound/msl/clock.wav","null","audio-keyboard-response","296","162946","0.0-1.0-295.0","",""
"null","sound/msl/duck.wav","null","audio-keyboard-response","297","163454","0.0-1.0-296.0","",""
"null","sound/msl/ding.wav","null","audio-keyboard-response","298","163966","0.0-1.0-297.0","",""
"null","sound/msl/slide_whistle.wav","null","audio-keyboard-response","299","164486","0.0-1.0-298.0","",""
"null","sound/msl/bird.wav","null","audio-keyboard-response","300","165006","0.0-1.0-299.0","",""
"null","sound/msl/Water.wav","null","audio-keyboard-response","301","165526","0.0-1.0-300.0","",""
"null","sound/msl/dog.wav","null","audio-keyboard-response","302","166046","0.0-1.0-301.0","",""
"null","sound/msl/door.wav","null","audio-keyboard-response","303","166554","0.0-1.0-302.0","",""
"null","sound/msl/frog.wav","null","audio-keyboard-response","304","167076","0.0-1.0-303.0","",""
"null","sound/msl/goat.wav","null","audio-keyboard-response","305","167626","0.0-1.0-304.0","",""
"null","sound/msl/cow.wav","null","audio-keyboard-response","306","168136","0.0-1.0-305.0","",""
"null","sound/msl/door_bell.wav","null","audio-keyboard-response","307","168646","0.0-1.0-306.0","",""
"null","sound/msl/cat.wav","null","audio-keyboard-response","308","169156","0.0-1.0-307.0","",""
"null","sound/msl/boing.wav","null","audio-keyboard-response","309","169666","0.0-1.0-308.0","",""
"null","sound/msl/organ.wav","null","audio-keyboard-response","310","170176","0.0-1.0-309.0","",""
"null","sound/msl/clock.wav","null","audio-keyboard-response","311","170736","0.0-1.0-310.0","",""
"null","sound/msl/duck.wav","null","audio-keyboard-response","312","171246","0.0-1.0-311.0","",""
"null","sound/msl/ding.wav","null","audio-keyboard-response","313","171766","0.0-1.0-312.0","",""
"null","sound/msl/slide_whistle.wav","null","audio-keyboard-response","314","172286","0.0-1.0-313.0","",""
"null","sound/msl/bird.wav","null","audio-keyboard-response","315","172806","0.0-1.0-314.0","",""
"null","sound/msl/Water.wav","null","audio-keyboard-response","316","173326","0.0-1.0-315.0","",""
"null","sound/msl/dog.wav","null","audio-keyboard-response","317","173846","0.0-1.0-316.0","",""
"null","sound/msl/door.wav","null","audio-keyboard-response","318","174356","0.0-1.0-317.0","",""
"null","sound/msl/frog.wav","null","audio-keyboard-response","319","174876","0.0-1.0-318.0","",""
"null","sound/msl/goat.wav","null","audio-keyboard-response","320","175426","0.0-1.0-319.0","",""
"null","sound/msl/cow.wav","null","audio-keyboard-response","321","175936","0.0-1.0-320.0","",""
"null","sound/msl/organ.wav","null","audio-keyboard-response","322","176446","0.0-1.0-321.0","",""
"null","sound/msl/clock.wav","null","audio-keyboard-response","323","177006","0.0-1.0-322.0","",""
"null","sound/msl/duck.wav","null","audio-keyboard-response","324","177526","0.0-1.0-323.0","",""
"null","sound/msl/Water.wav","null","audio-keyboard-response","325","178046","0.0-1.0-324.0","",""
"null","sound/msl/dog.wav","null","audio-keyboard-response","326","178566","0.0-1.0-325.0","",""
"null","sound/msl/door.wav","null","audio-keyboard-response","327","179076","0.0-1.0-326.0","",""
"null","sound/msl/door_bell.wav","null","audio-keyboard-response","328","179596","0.0-1.0-327.0","",""
"null","sound/msl/cat.wav","null","audio-keyboard-response","329","180106","0.0-1.0-328.0","",""
"null","sound/msl/boing.wav","null","audio-keyboard-response","330","180616","0.0-1.0-329.0","",""
"null","sound/msl/ding.wav","null","audio-keyboard-response","331","181126","0.0-1.0-330.0","",""
"null","sound/msl/slide_whistle.wav","null","audio-keyboard-response","332","181646","0.0-1.0-331.0","",""
"null","sound/msl/bird.wav","null","audio-keyboard-response","333","182166","0.0-1.0-332.0","",""
"null","sound/msl/frog.wav","null","audio-keyboard-response","334","182686","0.0-1.0-333.0","",""
"null","sound/msl/goat.wav","null","audio-keyboard-response","335","183236","0.0-1.0-334.0","",""
"null","sound/msl/cow.wav","null","audio-keyboard-response","336","183756","0.0-1.0-335.0","",""
"null","sound/msl/door_bell.wav","null","audio-keyboard-response","337","184276","0.0-1.0-336.0","",""
"null","sound/msl/cat.wav","null","audio-keyboard-response","338","184786","0.0-1.0-337.0","",""
"null","sound/msl/boing.wav","null","audio-keyboard-response","339","185296","0.0-1.0-338.0","",""
"null","sound/msl/organ.wav","null","audio-keyboard-response","340","185806","0.0-1.0-339.0","",""
"null","sound/msl/clock.wav","null","audio-keyboard-response","341","186366","0.0-1.0-340.0","",""
"null","sound/msl/duck.wav","null","audio-keyboard-response","342","186886","0.0-1.0-341.0","",""
"null","sound/msl/frog.wav","null","audio-keyboard-response","343","187406","0.0-1.0-342.0","",""
"null","sound/msl/goat.wav","null","audio-keyboard-response","344","187956","0.0-1.0-343.0","",""
"null","sound/msl/cow.wav","null","audio-keyboard-response","345","188476","0.0-1.0-344.0","",""
"null","sound/msl/organ.wav","null","audio-keyboard-response","346","188986","0.0-1.0-345.0","",""
"null","sound/msl/clock.wav","null","audio-keyboard-response","347","189546","0.0-1.0-346.0","",""
"null","sound/msl/duck.wav","null","audio-keyboard-response","348","190058","0.0-1.0-347.0","",""
"null","sound/msl/door_bell.wav","null","audio-keyboard-response","349","190566","0.0-1.0-348.0","",""
"null","sound/msl/cat.wav","null","audio-keyboard-response","350","191076","0.0-1.0-349.0","",""
"null","sound/msl/boing.wav","null","audio-keyboard-response","351","191586","0.0-1.0-350.0","",""
"null","sound/msl/ding.wav","null","audio-keyboard-response","352","192096","0.0-1.0-351.0","",""
"null","sound/msl/slide_whistle.wav","null","audio-keyboard-response","353","192606","0.0-1.0-352.0","",""
"null","sound/msl/bird.wav","null","audio-keyboard-response","354","193126","0.0-1.0-353.0","",""
"null","sound/msl/frog.wav","null","audio-keyboard-response","355","193646","0.0-1.0-354.0","",""
"null","sound/msl/goat.wav","null","audio-keyboard-response","356","194198","0.0-1.0-355.0","",""
"null","sound/msl/cow.wav","null","audio-keyboard-response","357","194716","0.0-1.0-356.0","",""
"null","sound/msl/organ.wav","null","audio-keyboard-response","358","195226","0.0-1.0-357.0","",""
"null","sound/msl/clock.wav","null","audio-keyboard-response","359","195786","0.0-1.0-358.0","",""
"null","sound/msl/duck.wav","null","audio-keyboard-response","360","196296","0.0-1.0-359.0","",""
"10086","Instructions2-eng.png","49","image-keyboard-response","361","206384","0.0-2.0","",""
"null","sound/msl/ding.wav","null","audio-keyboard-response","362","206896","0.0-3.0-0.0","",""
"null","sound/msl/slide_whistle.wav","null","audio-keyboard-response","363","207406","0.0-3.0-1.0","",""
"null","sound/msl/bird.wav","null","audio-keyboard-response","364","207926","0.0-3.0-2.0","",""
"null","sound/asl/silence.wav","null","audio-keyboard-response","365","208428","0.0-3.0-3.0","",""
"null","sound/msl/ding.wav","null","audio-keyboard-response","366","208936","0.0-3.0-4.0","",""
"null","sound/msl/clock.wav","null","audio-keyboard-response","367","209498","0.0-3.0-5.0","",""
"null","sound/msl/door.wav","null","audio-keyboard-response","368","210006","0.0-3.0-6.0","",""
"2308","sound/asl/silence.wav","50","audio-keyboard-response","369","212324","0.0-3.0-7.0","false",""
"null","sound/msl/ding.wav","null","audio-keyboard-response","370","212846","0.0-4.0-0.0","",""
"null","sound/msl/slide_whistle.wav","null","audio-keyboard-response","371","213366","0.0-4.0-1.0","",""
"null","sound/msl/bird.wav","null","audio-keyboard-response","372","213886","0.0-4.0-2.0","",""
"null","sound/asl/silence.wav","null","audio-keyboard-response","373","214388","0.0-4.0-3.0","",""
"null","sound/msl/Water.wav","null","audio-keyboard-response","374","214906","0.0-4.0-4.0","",""
"null","sound/msl/cat.wav","null","audio-keyboard-response","375","215416","0.0-4.0-5.0","",""
"null","sound/msl/cow.wav","null","audio-keyboard-response","376","215926","0.0-4.0-6.0","",""
"338","sound/asl/silence.wav","50","audio-keyboard-response","377","216272","0.0-4.0-7.0","false",""
"null","sound/msl/organ.wav","null","audio-keyboard-response","378","216776","0.0-5.0-0.0","",""
"null","sound/msl/dog.wav","null","audio-keyboard-response","379","217284","0.0-5.0-1.0","",""
"null","sound/msl/boing.wav","null","audio-keyboard-response","380","217796","0.0-5.0-2.0","",""
"null","sound/asl/silence.wav","null","audio-keyboard-response","381","218296","0.0-5.0-3.0","",""
"null","sound/msl/frog.wav","null","audio-keyboard-response","382","218806","0.0-5.0-4.0","",""
"null","sound/msl/goat.wav","null","audio-keyboard-response","383","219356","0.0-5.0-5.0","",""
"null","sound/msl/cow.wav","null","audio-keyboard-response","384","219876","0.0-5.0-6.0","",""
"782","sound/asl/silence.wav","49","audio-keyboard-response","385","220662","0.0-5.0-7.0","false",""
"null","sound/msl/organ.wav","null","audio-keyboard-response","386","221166","0.0-6.0-0.0","",""
"null","sound/msl/clock.wav","null","audio-keyboard-response","387","221726","0.0-6.0-1.0","",""
"null","sound/msl/duck.wav","null","audio-keyboard-response","388","222246","0.0-6.0-2.0","",""
"null","sound/asl/silence.wav","null","audio-keyboard-response","389","222746","0.0-6.0-3.0","",""
"null","sound/msl/frog.wav","null","audio-keyboard-response","390","223256","0.0-6.0-4.0","",""
"null","sound/msl/slide_whistle.wav","null","audio-keyboard-response","391","223766","0.0-6.0-5.0","",""
"null","sound/msl/duck.wav","null","audio-keyboard-response","392","224286","0.0-6.0-6.0","",""
"468","sound/asl/silence.wav","49","audio-keyboard-response","393","224760","0.0-6.0-7.0","true",""
"null","sound/msl/Water.wav","null","audio-keyboard-response","394","225276","0.0-7.0-0.0","",""
"null","sound/msl/dog.wav","null","audio-keyboard-response","395","225796","0.0-7.0-1.0","",""
"null","sound/msl/door.wav","null","audio-keyboard-response","396","226306","0.0-7.0-2.0","",""
"null","sound/asl/silence.wav","null","audio-keyboard-response","397","226806","0.0-7.0-3.0","",""
"null","sound/msl/door_bell.wav","null","audio-keyboard-response","398","227326","0.0-7.0-4.0","",""
"null","sound/msl/goat.wav","null","audio-keyboard-response","399","227876","0.0-7.0-5.0","",""
"null","sound/msl/bird.wav","null","audio-keyboard-response","400","228396","0.0-7.0-6.0","",""
"590","sound/asl/silence.wav","50","audio-keyboard-response","401","228988","0.0-7.0-7.0","false",""
"null","sound/msl/organ.wav","null","audio-keyboard-response","402","229496","0.0-8.0-0.0","",""
"null","sound/msl/dog.wav","null","audio-keyboard-response","403","230006","0.0-8.0-1.0","",""
"null","sound/msl/boing.wav","null","audio-keyboard-response","404","230518","0.0-8.0-2.0","",""
"null","sound/asl/silence.wav","null","audio-keyboard-response","405","231018","0.0-8.0-3.0","",""
"null","sound/msl/ding.wav","null","audio-keyboard-response","406","231526","0.0-8.0-4.0","",""
"null","sound/msl/slide_whistle.wav","null","audio-keyboard-response","407","232046","0.0-8.0-5.0","",""
"null","sound/msl/bird.wav","null","audio-keyboard-response","408","232566","0.0-8.0-6.0","",""
"320","sound/asl/silence.wav","50","audio-keyboard-response","409","232888","0.0-8.0-7.0","true",""
"null","sound/msl/door_bell.wav","null","audio-keyboard-response","410","233406","0.0-9.0-0.0","",""
"null","sound/msl/goat.wav","null","audio-keyboard-response","411","233956","0.0-9.0-1.0","",""
"null","sound/msl/bird.wav","null","audio-keyboard-response","412","234476","0.0-9.0-2.0","",""
"null","sound/asl/silence.wav","null","audio-keyboard-response","413","234978","0.0-9.0-3.0","",""
"null","sound/msl/frog.wav","null","audio-keyboard-response","414","235486","0.0-9.0-4.0","",""
"null","sound/msl/goat.wav","null","audio-keyboard-response","415","236036","0.0-9.0-5.0","",""
"null","sound/msl/cow.wav","null","audio-keyboard-response","416","236556","0.0-9.0-6.0","",""
"772","sound/asl/silence.wav","49","audio-keyboard-response","417","237334","0.0-9.0-7.0","false",""
"null","sound/msl/door_bell.wav","null","audio-keyboard-response","418","237846","0.0-10.0-0.0","",""
"null","sound/msl/goat.wav","null","audio-keyboard-response","419","238396","0.0-10.0-1.0","",""
"null","sound/msl/bird.wav","null","audio-keyboard-response","420","238916","0.0-10.0-2.0","",""
"null","sound/asl/silence.wav","null","audio-keyboard-response","421","239416","0.0-10.0-3.0","",""
"null","sound/msl/ding.wav","null","audio-keyboard-response","422","239926","0.0-10.0-4.0","",""
"null","sound/msl/slide_whistle.wav","null","audio-keyboard-response","423","240446","0.0-10.0-5.0","",""
"null","sound/msl/bird.wav","null","audio-keyboard-response","424","240966","0.0-10.0-6.0","",""
"948","sound/asl/silence.wav","49","audio-keyboard-response","425","241922","0.0-10.0-7.0","false",""
"null","sound/msl/door_bell.wav","null","audio-keyboard-response","426","242436","0.0-11.0-0.0","",""
"null","sound/msl/cat.wav","null","audio-keyboard-response","427","242946","0.0-11.0-1.0","",""
"null","sound/msl/boing.wav","null","audio-keyboard-response","428","243456","0.0-11.0-2.0","",""
"null","sound/asl/silence.wav","null","audio-keyboard-response","429","243958","0.0-11.0-3.0","",""
"null","sound/msl/ding.wav","null","audio-keyboard-response","430","244476","0.0-11.0-4.0","",""
"null","sound/msl/clock.wav","null","audio-keyboard-response","431","245036","0.0-11.0-5.0","",""
"null","sound/msl/door.wav","null","audio-keyboard-response","432","245556","0.0-11.0-6.0","",""
"542","sound/asl/silence.wav","50","audio-keyboard-response","433","246104","0.0-11.0-7.0","false",""
"null","sound/msl/frog.wav","null","audio-keyboard-response","434","246616","0.0-12.0-0.0","",""
"null","sound/msl/goat.wav","null","audio-keyboard-response","435","247166","0.0-12.0-1.0","",""
"null","sound/msl/cow.wav","null","audio-keyboard-response","436","247686","0.0-12.0-2.0","",""
"null","sound/asl/silence.wav","null","audio-keyboard-response","437","248188","0.0-12.0-3.0","",""
"null","sound/msl/ding.wav","null","audio-keyboard-response","438","248686","0.0-12.0-4.0","",""
"null","sound/msl/clock.wav","null","audio-keyboard-response","439","249246","0.0-12.0-5.0","",""
"null","sound/msl/door.wav","null","audio-keyboard-response","440","249756","0.0-12.0-6.0","",""
"470","sound/asl/silence.wav","49","audio-keyboard-response","441","250228","0.0-12.0-7.0","true",""
"null","sound/msl/Water.wav","null","audio-keyboard-response","442","250746","0.0-13.0-0.0","",""
"null","sound/msl/cat.wav","null","audio-keyboard-response","443","251256","0.0-13.0-1.0","",""
"null","sound/msl/cow.wav","null","audio-keyboard-response","444","251766","0.0-13.0-2.0","",""
"null","sound/asl/silence.wav","null","audio-keyboard-response","445","252268","0.0-13.0-3.0","",""
"null","sound/msl/frog.wav","null","audio-keyboard-response","446","252776","0.0-13.0-4.0","",""
"null","sound/msl/goat.wav","null","audio-keyboard-response","447","253326","0.0-13.0-5.0","",""
"null","sound/msl/cow.wav","null","audio-keyboard-response","448","253854","0.0-13.0-6.0","",""
"460","sound/asl/silence.wav","49","audio-keyboard-response","449","254310","0.0-13.0-7.0","false",""
"null","sound/msl/ding.wav","null","audio-keyboard-response","450","254816","0.0-14.0-0.0","",""
"null","sound/msl/slide_whistle.wav","null","audio-keyboard-response","451","255326","0.0-14.0-1.0","",""
"null","sound/msl/bird.wav","null","audio-keyboard-response","452","255846","0.0-14.0-2.0","",""
"null","sound/asl/silence.wav","null","audio-keyboard-response","453","256348","0.0-14.0-3.0","",""
"null","sound/msl/frog.wav","null","audio-keyboard-response","454","256856","0.0-14.0-4.0","",""
"null","sound/msl/slide_whistle.wav","null","audio-keyboard-response","455","257366","0.0-14.0-5.0","",""
"null","sound/msl/duck.wav","null","audio-keyboard-response","456","257886","0.0-14.0-6.0","",""
"658","sound/asl/silence.wav","49","audio-keyboard-response","457","258550","0.0-14.0-7.0","true",""
"null","sound/msl/frog.wav","null","audio-keyboard-response","458","259056","0.0-15.0-0.0","",""
"null","sound/msl/slide_whistle.wav","null","audio-keyboard-response","459","259566","0.0-15.0-1.0","",""
"null","sound/msl/duck.wav","null","audio-keyboard-response","460","260086","0.0-15.0-2.0","",""
"null","sound/asl/silence.wav","null","audio-keyboard-response","461","260588","0.0-15.0-3.0","",""
"null","sound/msl/Water.wav","null","audio-keyboard-response","462","261106","0.0-15.0-4.0","",""
"null","sound/msl/dog.wav","null","audio-keyboard-response","463","261616","0.0-15.0-5.0","",""
"null","sound/msl/door.wav","null","audio-keyboard-response","464","262126","0.0-15.0-6.0","",""
"548","sound/asl/silence.wav","49","audio-keyboard-response","465","262686","0.0-15.0-7.0","false",""
"null","sound/msl/door_bell.wav","null","audio-keyboard-response","466","263206","0.0-16.0-0.0","",""
"null","sound/msl/goat.wav","null","audio-keyboard-response","467","263756","0.0-16.0-1.0","",""
"null","sound/msl/bird.wav","null","audio-keyboard-response","468","264276","0.0-16.0-2.0","",""
"null","sound/asl/silence.wav","null","audio-keyboard-response","469","264778","0.0-16.0-3.0","",""
"null","sound/msl/door_bell.wav","null","audio-keyboard-response","470","265286","0.0-16.0-4.0","",""
"null","sound/msl/cat.wav","null","audio-keyboard-response","471","265796","0.0-16.0-5.0","",""
"null","sound/msl/boing.wav","null","audio-keyboard-response","472","266306","0.0-16.0-6.0","",""
"400","sound/asl/silence.wav","49","audio-keyboard-response","473","266708","0.0-16.0-7.0","false",""
"null","sound/msl/Water.wav","null","audio-keyboard-response","474","267226","0.0-17.0-0.0","",""
"null","sound/msl/cat.wav","null","audio-keyboard-response","475","267736","0.0-17.0-1.0","",""
"null","sound/msl/cow.wav","null","audio-keyboard-response","476","268246","0.0-17.0-2.0","",""
"null","sound/asl/silence.wav","null","audio-keyboard-response","477","268748","0.0-17.0-3.0","",""
"null","sound/msl/organ.wav","null","audio-keyboard-response","478","269256","0.0-17.0-4.0","",""
"null","sound/msl/clock.wav","null","audio-keyboard-response","479","269816","0.0-17.0-5.0","",""
"null","sound/msl/duck.wav","null","audio-keyboard-response","480","270326","0.0-17.0-6.0","",""
"228","sound/asl/silence.wav","50","audio-keyboard-response","481","270562","0.0-17.0-7.0","true",""
"null","sound/msl/door_bell.wav","null","audio-keyboard-response","482","271076","0.0-18.0-0.0","",""
"null","sound/msl/cat.wav","null","audio-keyboard-response","483","271586","0.0-18.0-1.0","",""
"null","sound/msl/boing.wav","null","audio-keyboard-response","484","272096","0.0-18.0-2.0","",""
"null","sound/asl/silence.wav","null","audio-keyboard-response","485","272596","0.0-18.0-3.0","",""
"null","sound/msl/organ.wav","null","audio-keyboard-response","486","273104","0.0-18.0-4.0","",""
"null","sound/msl/dog.wav","null","audio-keyboard-response","487","273616","0.0-18.0-5.0","",""
"null","sound/msl/boing.wav","null","audio-keyboard-response","488","274126","0.0-18.0-6.0","",""
"538","sound/asl/silence.wav","49","audio-keyboard-response","489","274670","0.0-18.0-7.0","true",""
"null","sound/msl/Water.wav","null","audio-keyboard-response","490","275186","0.0-19.0-0.0","",""
"null","sound/msl/dog.wav","null","audio-keyboard-response","491","275696","0.0-19.0-1.0","",""
"null","sound/msl/door.wav","null","audio-keyboard-response","492","276206","0.0-19.0-2.0","",""
"null","sound/asl/silence.wav","null","audio-keyboard-response","493","276708","0.0-19.0-3.0","",""
"null","sound/msl/Water.wav","null","audio-keyboard-response","494","277226","0.0-19.0-4.0","",""
"null","sound/msl/cat.wav","null","audio-keyboard-response","495","277736","0.0-19.0-5.0","",""
"null","sound/msl/cow.wav","null","audio-keyboard-response","496","278246","0.0-19.0-6.0","",""
"400","sound/asl/silence.wav","50","audio-keyboard-response","497","278648","0.0-19.0-7.0","false",""
"null","sound/msl/door_bell.wav","null","audio-keyboard-response","498","279166","0.0-20.0-0.0","",""
"null","sound/msl/goat.wav","null","audio-keyboard-response","499","279716","0.0-20.0-1.0","",""
"null","sound/msl/bird.wav","null","audio-keyboard-response","500","280236","0.0-20.0-2.0","",""
"null","sound/asl/silence.wav","null","audio-keyboard-response","501","280738","0.0-20.0-3.0","",""
"null","sound/msl/organ.wav","null","audio-keyboard-response","502","281246","0.0-20.0-4.0","",""
"null","sound/msl/clock.wav","null","audio-keyboard-response","503","281806","0.0-20.0-5.0","",""
"null","sound/msl/duck.wav","null","audio-keyboard-response","504","282326","0.0-20.0-6.0","",""
"170","sound/asl/silence.wav","50","audio-keyboard-response","505","282500","0.0-20.0-7.0","true",""
"null","sound/msl/organ.wav","null","audio-keyboard-response","506","283006","0.0-21.0-0.0","",""
"null","sound/msl/clock.wav","null","audio-keyboard-response","507","283566","0.0-21.0-1.0","",""
"null","sound/msl/duck.wav","null","audio-keyboard-response","508","284086","0.0-21.0-2.0","",""
"null","sound/asl/silence.wav","null","audio-keyboard-response","509","284588","0.0-21.0-3.0","",""
"null","sound/msl/ding.wav","null","audio-keyboard-response","510","285096","0.0-21.0-4.0","",""
"null","sound/msl/clock.wav","null","audio-keyboard-response","511","285656","0.0-21.0-5.0","",""
"null","sound/msl/door.wav","null","audio-keyboard-response","512","286166","0.0-21.0-6.0","",""
"210","sound/asl/silence.wav","49","audio-keyboard-response","513","286384","0.0-21.0-7.0","true",""
"null","sound/msl/Water.wav","null","audio-keyboard-response","514","286906","0.0-22.0-0.0","",""
"null","sound/msl/dog.wav","null","audio-keyboard-response","515","287416","0.0-22.0-1.0","",""
"null","sound/msl/door.wav","null","audio-keyboard-response","516","287926","0.0-22.0-2.0","",""
"null","sound/asl/silence.wav","null","audio-keyboard-response","517","288428","0.0-22.0-3.0","",""
"null","sound/msl/organ.wav","null","audio-keyboard-response","518","288936","0.0-22.0-4.0","",""
"null","sound/msl/dog.wav","null","audio-keyboard-response","519","289446","0.0-22.0-5.0","",""
"null","sound/msl/boing.wav","null","audio-keyboard-response","520","289956","0.0-22.0-6.0","",""
"1110","sound/asl/silence.wav","49","audio-keyboard-response","521","291074","0.0-22.0-7.0","true",""
"null","sound/msl/frog.wav","null","audio-keyboard-response","522","291576","0.0-23.0-0.0","",""
"null","sound/msl/slide_whistle.wav","null","audio-keyboard-response","523","292086","0.0-23.0-1.0","",""
"null","sound/msl/duck.wav","null","audio-keyboard-response","524","292606","0.0-23.0-2.0","",""
"null","sound/asl/silence.wav","null","audio-keyboard-response","525","293108","0.0-23.0-3.0","",""
"null","sound/msl/door_bell.wav","null","audio-keyboard-response","526","293616","0.0-23.0-4.0","",""
"null","sound/msl/cat.wav","null","audio-keyboard-response","527","294126","0.0-23.0-5.0","",""
"null","sound/msl/boing.wav","null","audio-keyboard-response","528","294636","0.0-23.0-6.0","",""
"492","sound/asl/silence.wav","49","audio-keyboard-response","529","295132","0.0-23.0-7.0","false",""
"null","sound/msl/Water.wav","null","audio-keyboard-response","530","295646","0.0-24.0-0.0","",""
"null","sound/msl/cat.wav","null","audio-keyboard-response","531","296156","0.0-24.0-1.0","",""
"null","sound/msl/cow.wav","null","audio-keyboard-response","532","296676","0.0-24.0-2.0","",""
"null","sound/asl/silence.wav","null","audio-keyboard-response","533","297176","0.0-24.0-3.0","",""
"null","sound/msl/door_bell.wav","null","audio-keyboard-response","534","297686","0.0-24.0-4.0","",""
"null","sound/msl/cat.wav","null","audio-keyboard-response","535","298196","0.0-24.0-5.0","",""
"null","sound/msl/boing.wav","null","audio-keyboard-response","536","298706","0.0-24.0-6.0","",""
"440","sound/asl/silence.wav","50","audio-keyboard-response","537","299154","0.0-24.0-7.0","true",""
"null","sound/msl/ding.wav","null","audio-keyboard-response","538","299676","0.0-25.0-0.0","",""
"null","sound/msl/clock.wav","null","audio-keyboard-response","539","300236","0.0-25.0-1.0","",""
"null","sound/msl/door.wav","null","audio-keyboard-response","540","300746","0.0-25.0-2.0","",""
"null","sound/asl/silence.wav","null","audio-keyboard-response","541","301246","0.0-25.0-3.0","",""
"null","sound/msl/Water.wav","null","audio-keyboard-response","542","301766","0.0-25.0-4.0","",""
"null","sound/msl/dog.wav","null","audio-keyboard-response","543","302286","0.0-25.0-5.0","",""
"null","sound/msl/door.wav","null","audio-keyboard-response","544","302796","0.0-25.0-6.0","",""
"422","sound/asl/silence.wav","50","audio-keyboard-response","545","303220","0.0-25.0-7.0","true",""
"null","sound/msl/frog.wav","null","audio-keyboard-response","546","303726","0.0-26.0-0.0","",""
"null","sound/msl/goat.wav","null","audio-keyboard-response","547","304276","0.0-26.0-1.0","",""
"null","sound/msl/cow.wav","null","audio-keyboard-response","548","304796","0.0-26.0-2.0","",""
"null","sound/asl/silence.wav","null","audio-keyboard-response","549","305298","0.0-26.0-3.0","",""
"null","sound/msl/frog.wav","null","audio-keyboard-response","550","305806","0.0-26.0-4.0","",""
"null","sound/msl/slide_whistle.wav","null","audio-keyboard-response","551","306326","0.0-26.0-5.0","",""
"null","sound/msl/duck.wav","null","audio-keyboard-response","552","306846","0.0-26.0-6.0","",""
"548","sound/asl/silence.wav","49","audio-keyboard-response","553","307402","0.0-26.0-7.0","true",""
"null","sound/msl/organ.wav","null","audio-keyboard-response","554","307906","0.0-27.0-0.0","",""
"null","sound/msl/dog.wav","null","audio-keyboard-response","555","308416","0.0-27.0-1.0","",""
"null","sound/msl/boing.wav","null","audio-keyboard-response","556","308926","0.0-27.0-2.0","",""
"null","sound/asl/silence.wav","null","audio-keyboard-response","557","309428","0.0-27.0-3.0","",""
"null","sound/msl/organ.wav","null","audio-keyboard-response","558","309936","0.0-27.0-4.0","",""
"null","sound/msl/clock.wav","null","audio-keyboard-response","559","310496","0.0-27.0-5.0","",""
"null","sound/msl/duck.wav","null","audio-keyboard-response","560","311006","0.0-27.0-6.0","",""
"1320","sound/asl/silence.wav","50","audio-keyboard-response","561","312330","0.0-27.0-7.0","true",""
"2972","","","instructions","562","315304","0.0-28.0","","[{""page_index"":0,""viewing_time"":2972}]"
