"rt","stimulus","key_press","trial_type","trial_index","time_elapsed","internal_node_id","correct","view_history"
"7514","alien.jpg","49","image-keyboard-response","0","7518","0.0-0.0","",""
"null","sound/msl/frog.wav","null","audio-keyboard-response","1","8034","0.0-1.0-0.0","",""
"null","sound/msl/slide_whistle.wav","null","audio-keyboard-response","2","8544","0.0-1.0-1.0","",""
"null","sound/msl/goat.wav","null","audio-keyboard-response","3","9084","0.0-1.0-2.0","",""
"null","sound/msl/door.wav","null","audio-keyboard-response","4","9594","0.0-1.0-3.0","",""
"null","sound/msl/boing.wav","null","audio-keyboard-response","5","10106","0.0-1.0-4.0","",""
"null","sound/msl/cow.wav","null","audio-keyboard-response","6","10614","0.0-1.0-5.0","",""
"null","sound/msl/duck.wav","null","audio-keyboard-response","7","11134","0.0-1.0-6.0","",""
"null","sound/msl/cat.wav","null","audio-keyboard-response","8","11646","0.0-1.0-7.0","",""
"null","sound/msl/Water.wav","null","audio-keyboard-response","9","12166","0.0-1.0-8.0","",""
"null","sound/msl/clock.wav","null","audio-keyboard-response","10","12726","0.0-1.0-9.0","",""
"null","sound/msl/door_bell.wav","null","audio-keyboard-response","11","13246","0.0-1.0-10.0","",""
"null","sound/msl/bird.wav","null","audio-keyboard-response","12","13756","0.0-1.0-11.0","",""
"null","sound/msl/door.wav","null","audio-keyboard-response","13","14264","0.0-1.0-12.0","",""
"null","sound/msl/boing.wav","null","audio-keyboard-response","14","14774","0.0-1.0-13.0","",""
"null","sound/msl/cow.wav","null","audio-keyboard-response","15","15286","0.0-1.0-14.0","",""
"null","sound/msl/frog.wav","null","audio-keyboard-response","16","15806","0.0-1.0-15.0","",""
"null","sound/msl/slide_whistle.wav","null","audio-keyboard-response","17","16316","0.0-1.0-16.0","",""
"null","sound/msl/goat.wav","null","audio-keyboard-response","18","16854","0.0-1.0-17.0","",""
"null","sound/msl/organ.wav","null","audio-keyboard-response","19","17366","0.0-1.0-18.0","",""
"null","sound/msl/dog.wav","null","audio-keyboard-response","20","17886","0.0-1.0-19.0","",""
"null","sound/msl/ding.wav","null","audio-keyboard-response","21","18406","0.0-1.0-20.0","",""
"null","sound/msl/clock.wav","null","audio-keyboard-response","22","18966","0.0-1.0-21.0","",""
"null","sound/msl/door_bell.wav","null","audio-keyboard-response","23","19486","0.0-1.0-22.0","",""
"null","sound/msl/bird.wav","null","audio-keyboard-response","24","20014","0.0-1.0-23.0","",""
"null","sound/msl/duck.wav","null","audio-keyboard-response","25","20524","0.0-1.0-24.0","",""
"null","sound/msl/cat.wav","null","audio-keyboard-response","26","21034","0.0-1.0-25.0","",""
"null","sound/msl/Water.wav","null","audio-keyboard-response","27","21554","0.0-1.0-26.0","",""
"null","sound/msl/frog.wav","null","audio-keyboard-response","28","22066","0.0-1.0-27.0","",""
"null","sound/msl/slide_whistle.wav","null","audio-keyboard-response","29","22574","0.0-1.0-28.0","",""
"null","sound/msl/goat.wav","null","audio-keyboard-response","30","23124","0.0-1.0-29.0","",""
"null","sound/msl/door.wav","null","audio-keyboard-response","31","23634","0.0-1.0-30.0","",""
"null","sound/msl/boing.wav","null","audio-keyboard-response","32","24144","0.0-1.0-31.0","",""
"null","sound/msl/cow.wav","null","audio-keyboard-response","33","24666","0.0-1.0-32.0","",""
"null","sound/msl/organ.wav","null","audio-keyboard-response","34","25176","0.0-1.0-33.0","",""
"null","sound/msl/dog.wav","null","audio-keyboard-response","35","25696","0.0-1.0-34.0","",""
"null","sound/msl/ding.wav","null","audio-keyboard-response","36","26216","0.0-1.0-35.0","",""
"null","sound/msl/duck.wav","null","audio-keyboard-response","37","26736","0.0-1.0-36.0","",""
"null","sound/msl/cat.wav","null","audio-keyboard-response","38","27246","0.0-1.0-37.0","",""
"null","sound/msl/Water.wav","null","audio-keyboard-response","39","27764","0.0-1.0-38.0","",""
"null","sound/msl/clock.wav","null","audio-keyboard-response","40","28326","0.0-1.0-39.0","",""
"null","sound/msl/door_bell.wav","null","audio-keyboard-response","41","28846","0.0-1.0-40.0","",""
"null","sound/msl/bird.wav","null","audio-keyboard-response","42","29366","0.0-1.0-41.0","",""
"null","sound/msl/organ.wav","null","audio-keyboard-response","43","29876","0.0-1.0-42.0","",""
"null","sound/msl/dog.wav","null","audio-keyboard-response","44","30396","0.0-1.0-43.0","",""
"null","sound/msl/ding.wav","null","audio-keyboard-response","45","30916","0.0-1.0-44.0","",""
"null","sound/msl/door.wav","null","audio-keyboard-response","46","31426","0.0-1.0-45.0","",""
"null","sound/msl/boing.wav","null","audio-keyboard-response","47","31934","0.0-1.0-46.0","",""
"null","sound/msl/cow.wav","null","audio-keyboard-response","48","32456","0.0-1.0-47.0","",""
"null","sound/msl/duck.wav","null","audio-keyboard-response","49","32976","0.0-1.0-48.0","",""
"null","sound/msl/cat.wav","null","audio-keyboard-response","50","33484","0.0-1.0-49.0","",""
"null","sound/msl/Water.wav","null","audio-keyboard-response","51","34006","0.0-1.0-50.0","",""
"null","sound/msl/frog.wav","null","audio-keyboard-response","52","34524","0.0-1.0-51.0","",""
"null","sound/msl/slide_whistle.wav","null","audio-keyboard-response","53","35034","0.0-1.0-52.0","",""
"null","sound/msl/goat.wav","null","audio-keyboard-response","54","35586","0.0-1.0-53.0","",""
"null","sound/msl/door.wav","null","audio-keyboard-response","55","36096","0.0-1.0-54.0","",""
"null","sound/msl/boing.wav","null","audio-keyboard-response","56","36606","0.0-1.0-55.0","",""
"null","sound/msl/cow.wav","null","audio-keyboard-response","57","37116","0.0-1.0-56.0","",""
"null","sound/msl/duck.wav","null","audio-keyboard-response","58","37636","0.0-1.0-57.0","",""
"null","sound/msl/cat.wav","null","audio-keyboard-response","59","38144","0.0-1.0-58.0","",""
"null","sound/msl/Water.wav","null","audio-keyboard-response","60","38666","0.0-1.0-59.0","",""
"null","sound/msl/clock.wav","null","audio-keyboard-response","61","39226","0.0-1.0-60.0","",""
"null","sound/msl/door_bell.wav","null","audio-keyboard-response","62","39744","0.0-1.0-61.0","",""
"null","sound/msl/bird.wav","null","audio-keyboard-response","63","40256","0.0-1.0-62.0","",""
"null","sound/msl/organ.wav","null","audio-keyboard-response","64","40766","0.0-1.0-63.0","",""
"null","sound/msl/dog.wav","null","audio-keyboard-response","65","41286","0.0-1.0-64.0","",""
"null","sound/msl/ding.wav","null","audio-keyboard-response","66","41806","0.0-1.0-65.0","",""
"null","sound/msl/door.wav","null","audio-keyboard-response","67","42316","0.0-1.0-66.0","",""
"null","sound/msl/boing.wav","null","audio-keyboard-response","68","42824","0.0-1.0-67.0","",""
"null","sound/msl/cow.wav","null","audio-keyboard-response","69","43336","0.0-1.0-68.0","",""
"null","sound/msl/frog.wav","null","audio-keyboard-response","70","43854","0.0-1.0-69.0","",""
"null","sound/msl/slide_whistle.wav","null","audio-keyboard-response","71","44364","0.0-1.0-70.0","",""
"null","sound/msl/goat.wav","null","audio-keyboard-response","72","44906","0.0-1.0-71.0","",""
"null","sound/msl/duck.wav","null","audio-keyboard-response","73","45426","0.0-1.0-72.0","",""
"null","sound/msl/cat.wav","null","audio-keyboard-response","74","45936","0.0-1.0-73.0","",""
"null","sound/msl/Water.wav","null","audio-keyboard-response","75","46454","0.0-1.0-74.0","",""
"null","sound/msl/clock.wav","null","audio-keyboard-response","76","47014","0.0-1.0-75.0","",""
"null","sound/msl/door_bell.wav","null","audio-keyboard-response","77","47534","0.0-1.0-76.0","",""
"null","sound/msl/bird.wav","null","audio-keyboard-response","78","48054","0.0-1.0-77.0","",""
"null","sound/msl/duck.wav","null","audio-keyboard-response","79","48566","0.0-1.0-78.0","",""
"null","sound/msl/cat.wav","null","audio-keyboard-response","80","49076","0.0-1.0-79.0","",""
"null","sound/msl/Water.wav","null","audio-keyboard-response","81","49594","0.0-1.0-80.0","",""
"null","sound/msl/organ.wav","null","audio-keyboard-response","82","50104","0.0-1.0-81.0","",""
"null","sound/msl/dog.wav","null","audio-keyboard-response","83","50624","0.0-1.0-82.0","",""
"null","sound/msl/ding.wav","null","audio-keyboard-response","84","51146","0.0-1.0-83.0","",""
"null","sound/msl/frog.wav","null","audio-keyboard-response","85","51666","0.0-1.0-84.0","",""
"null","sound/msl/slide_whistle.wav","null","audio-keyboard-response","86","52176","0.0-1.0-85.0","",""
"null","sound/msl/goat.wav","null","audio-keyboard-response","87","52726","0.0-1.0-86.0","",""
"null","sound/msl/door.wav","null","audio-keyboard-response","88","53236","0.0-1.0-87.0","",""
"null","sound/msl/boing.wav","null","audio-keyboard-response","89","53744","0.0-1.0-88.0","",""
"null","sound/msl/cow.wav","null","audio-keyboard-response","90","54264","0.0-1.0-89.0","",""
"null","sound/msl/organ.wav","null","audio-keyboard-response","91","54774","0.0-1.0-90.0","",""
"null","sound/msl/dog.wav","null","audio-keyboard-response","92","55294","0.0-1.0-91.0","",""
"null","sound/msl/ding.wav","null","audio-keyboard-response","93","55814","0.0-1.0-92.0","",""
"null","sound/msl/clock.wav","null","audio-keyboard-response","94","56376","0.0-1.0-93.0","",""
"null","sound/msl/door_bell.wav","null","audio-keyboard-response","95","56896","0.0-1.0-94.0","",""
"null","sound/msl/bird.wav","null","audio-keyboard-response","96","57416","0.0-1.0-95.0","",""
"null","sound/msl/duck.wav","null","audio-keyboard-response","97","57936","0.0-1.0-96.0","",""
"null","sound/msl/cat.wav","null","audio-keyboard-response","98","58446","0.0-1.0-97.0","",""
"null","sound/msl/Water.wav","null","audio-keyboard-response","99","58966","0.0-1.0-98.0","",""
"null","sound/msl/door.wav","null","audio-keyboard-response","100","59476","0.0-1.0-99.0","",""
"null","sound/msl/boing.wav","null","audio-keyboard-response","101","59984","0.0-1.0-100.0","",""
"null","sound/msl/cow.wav","null","audio-keyboard-response","102","60504","0.0-1.0-101.0","",""
"null","sound/msl/organ.wav","null","audio-keyboard-response","103","61014","0.0-1.0-102.0","",""
"null","sound/msl/dog.wav","null","audio-keyboard-response","104","61534","0.0-1.0-103.0","",""
"null","sound/msl/ding.wav","null","audio-keyboard-response","105","62054","0.0-1.0-104.0","",""
"null","sound/msl/frog.wav","null","audio-keyboard-response","106","62574","0.0-1.0-105.0","",""
"null","sound/msl/slide_whistle.wav","null","audio-keyboard-response","107","63084","0.0-1.0-106.0","",""
"null","sound/msl/goat.wav","null","audio-keyboard-response","108","63634","0.0-1.0-107.0","",""
"null","sound/msl/door.wav","null","audio-keyboard-response","109","64146","0.0-1.0-108.0","",""
"null","sound/msl/boing.wav","null","audio-keyboard-response","110","64654","0.0-1.0-109.0","",""
"null","sound/msl/cow.wav","null","audio-keyboard-response","111","65174","0.0-1.0-110.0","",""
"null","sound/msl/clock.wav","null","audio-keyboard-response","112","65734","0.0-1.0-111.0","",""
"null","sound/msl/door_bell.wav","null","audio-keyboard-response","113","66254","0.0-1.0-112.0","",""
"null","sound/msl/bird.wav","null","audio-keyboard-response","114","66776","0.0-1.0-113.0","",""
"null","sound/msl/organ.wav","null","audio-keyboard-response","115","67284","0.0-1.0-114.0","",""
"null","sound/msl/dog.wav","null","audio-keyboard-response","116","67806","0.0-1.0-115.0","",""
"null","sound/msl/ding.wav","null","audio-keyboard-response","117","68326","0.0-1.0-116.0","",""
"null","sound/msl/duck.wav","null","audio-keyboard-response","118","68846","0.0-1.0-117.0","",""
"null","sound/msl/cat.wav","null","audio-keyboard-response","119","69356","0.0-1.0-118.0","",""
"null","sound/msl/Water.wav","null","audio-keyboard-response","120","69876","0.0-1.0-119.0","",""
"null","sound/msl/frog.wav","null","audio-keyboard-response","121","70394","0.0-1.0-120.0","",""
"null","sound/msl/slide_whistle.wav","null","audio-keyboard-response","122","70906","0.0-1.0-121.0","",""
"null","sound/msl/goat.wav","null","audio-keyboard-response","123","71444","0.0-1.0-122.0","",""
"null","sound/msl/door.wav","null","audio-keyboard-response","124","71956","0.0-1.0-123.0","",""
"null","sound/msl/boing.wav","null","audio-keyboard-response","125","72464","0.0-1.0-124.0","",""
"null","sound/msl/cow.wav","null","audio-keyboard-response","126","72976","0.0-1.0-125.0","",""
"null","sound/msl/organ.wav","null","audio-keyboard-response","127","73486","0.0-1.0-126.0","",""
"null","sound/msl/dog.wav","null","audio-keyboard-response","128","74006","0.0-1.0-127.0","",""
"null","sound/msl/ding.wav","null","audio-keyboard-response","129","74526","0.0-1.0-128.0","",""
"null","sound/msl/clock.wav","null","audio-keyboard-response","130","75084","0.0-1.0-129.0","",""
"null","sound/msl/door_bell.wav","null","audio-keyboard-response","131","75606","0.0-1.0-130.0","",""
"null","sound/msl/bird.wav","null","audio-keyboard-response","132","76126","0.0-1.0-131.0","",""
"null","sound/msl/door.wav","null","audio-keyboard-response","133","76634","0.0-1.0-132.0","",""
"null","sound/msl/boing.wav","null","audio-keyboard-response","134","77146","0.0-1.0-133.0","",""
"null","sound/msl/cow.wav","null","audio-keyboard-response","135","77664","0.0-1.0-134.0","",""
"null","sound/msl/duck.wav","null","audio-keyboard-response","136","78184","0.0-1.0-135.0","",""
"null","sound/msl/cat.wav","null","audio-keyboard-response","137","78696","0.0-1.0-136.0","",""
"null","sound/msl/Water.wav","null","audio-keyboard-response","138","79216","0.0-1.0-137.0","",""
"null","sound/msl/clock.wav","null","audio-keyboard-response","139","79776","0.0-1.0-138.0","",""
"null","sound/msl/door_bell.wav","null","audio-keyboard-response","140","80294","0.0-1.0-139.0","",""
"null","sound/msl/bird.wav","null","audio-keyboard-response","141","80816","0.0-1.0-140.0","",""
"null","sound/msl/frog.wav","null","audio-keyboard-response","142","81336","0.0-1.0-141.0","",""
"null","sound/msl/slide_whistle.wav","null","audio-keyboard-response","143","81846","0.0-1.0-142.0","",""
"null","sound/msl/goat.wav","null","audio-keyboard-response","144","82386","0.0-1.0-143.0","",""
"null","sound/msl/organ.wav","null","audio-keyboard-response","145","82894","0.0-1.0-144.0","",""
"null","sound/msl/dog.wav","null","audio-keyboard-response","146","83416","0.0-1.0-145.0","",""
"null","sound/msl/ding.wav","null","audio-keyboard-response","147","83936","0.0-1.0-146.0","",""
"null","sound/msl/duck.wav","null","audio-keyboard-response","148","84456","0.0-1.0-147.0","",""
"null","sound/msl/cat.wav","null","audio-keyboard-response","149","84966","0.0-1.0-148.0","",""
"null","sound/msl/Water.wav","null","audio-keyboard-response","150","85488","0.0-1.0-149.0","",""
"null","sound/msl/frog.wav","null","audio-keyboard-response","151","86006","0.0-1.0-150.0","",""
"null","sound/msl/slide_whistle.wav","null","audio-keyboard-response","152","86516","0.0-1.0-151.0","",""
"null","sound/msl/goat.wav","null","audio-keyboard-response","153","87056","0.0-1.0-152.0","",""
"null","sound/msl/door.wav","null","audio-keyboard-response","154","87566","0.0-1.0-153.0","",""
"null","sound/msl/boing.wav","null","audio-keyboard-response","155","88074","0.0-1.0-154.0","",""
"null","sound/msl/cow.wav","null","audio-keyboard-response","156","88594","0.0-1.0-155.0","",""
"null","sound/msl/clock.wav","null","audio-keyboard-response","157","89156","0.0-1.0-156.0","",""
"null","sound/msl/door_bell.wav","null","audio-keyboard-response","158","89676","0.0-1.0-157.0","",""
"null","sound/msl/bird.wav","null","audio-keyboard-response","159","90194","0.0-1.0-158.0","",""
"null","sound/msl/organ.wav","null","audio-keyboard-response","160","90706","0.0-1.0-159.0","",""
"null","sound/msl/dog.wav","null","audio-keyboard-response","161","91226","0.0-1.0-160.0","",""
"null","sound/msl/ding.wav","null","audio-keyboard-response","162","91746","0.0-1.0-161.0","",""
"null","sound/msl/door.wav","null","audio-keyboard-response","163","92254","0.0-1.0-162.0","",""
"null","sound/msl/boing.wav","null","audio-keyboard-response","164","92766","0.0-1.0-163.0","",""
"null","sound/msl/cow.wav","null","audio-keyboard-response","165","93274","0.0-1.0-164.0","",""
"null","sound/msl/clock.wav","null","audio-keyboard-response","166","93834","0.0-1.0-165.0","",""
"null","sound/msl/door_bell.wav","null","audio-keyboard-response","167","94354","0.0-1.0-166.0","",""
"null","sound/msl/bird.wav","null","audio-keyboard-response","168","94876","0.0-1.0-167.0","",""
"null","sound/msl/frog.wav","null","audio-keyboard-response","169","95386","0.0-1.0-168.0","",""
"null","sound/msl/slide_whistle.wav","null","audio-keyboard-response","170","95896","0.0-1.0-169.0","",""
"null","sound/msl/goat.wav","null","audio-keyboard-response","171","96446","0.0-1.0-170.0","",""
"null","sound/msl/duck.wav","null","audio-keyboard-response","172","96956","0.0-1.0-171.0","",""
"null","sound/msl/cat.wav","null","audio-keyboard-response","173","97464","0.0-1.0-172.0","",""
"null","sound/msl/Water.wav","null","audio-keyboard-response","174","97986","0.0-1.0-173.0","",""
"null","sound/msl/organ.wav","null","audio-keyboard-response","175","98496","0.0-1.0-174.0","",""
"null","sound/msl/dog.wav","null","audio-keyboard-response","176","99014","0.0-1.0-175.0","",""
"null","sound/msl/ding.wav","null","audio-keyboard-response","177","99534","0.0-1.0-176.0","",""
"null","sound/msl/door.wav","null","audio-keyboard-response","178","100044","0.0-1.0-177.0","",""
"null","sound/msl/boing.wav","null","audio-keyboard-response","179","100556","0.0-1.0-178.0","",""
"null","sound/msl/cow.wav","null","audio-keyboard-response","180","101064","0.0-1.0-179.0","",""
"null","sound/msl/duck.wav","null","audio-keyboard-response","181","101584","0.0-1.0-180.0","",""
"null","sound/msl/cat.wav","null","audio-keyboard-response","182","102096","0.0-1.0-181.0","",""
"null","sound/msl/Water.wav","null","audio-keyboard-response","183","102616","0.0-1.0-182.0","",""
"null","sound/msl/clock.wav","null","audio-keyboard-response","184","103174","0.0-1.0-183.0","",""
"null","sound/msl/door_bell.wav","null","audio-keyboard-response","185","103696","0.0-1.0-184.0","",""
"null","sound/msl/bird.wav","null","audio-keyboard-response","186","104214","0.0-1.0-185.0","",""
"null","sound/msl/frog.wav","null","audio-keyboard-response","187","104726","0.0-1.0-186.0","",""
"null","sound/msl/slide_whistle.wav","null","audio-keyboard-response","188","105236","0.0-1.0-187.0","",""
"null","sound/msl/goat.wav","null","audio-keyboard-response","189","105786","0.0-1.0-188.0","",""
"null","sound/msl/organ.wav","null","audio-keyboard-response","190","106296","0.0-1.0-189.0","",""
"null","sound/msl/dog.wav","null","audio-keyboard-response","191","106814","0.0-1.0-190.0","",""
"null","sound/msl/ding.wav","null","audio-keyboard-response","192","107336","0.0-1.0-191.0","",""
"null","sound/msl/door.wav","null","audio-keyboard-response","193","107844","0.0-1.0-192.0","",""
"null","sound/msl/boing.wav","null","audio-keyboard-response","194","108354","0.0-1.0-193.0","",""
"null","sound/msl/cow.wav","null","audio-keyboard-response","195","108876","0.0-1.0-194.0","",""
"null","sound/msl/duck.wav","null","audio-keyboard-response","196","109394","0.0-1.0-195.0","",""
"null","sound/msl/cat.wav","null","audio-keyboard-response","197","109906","0.0-1.0-196.0","",""
"null","sound/msl/Water.wav","null","audio-keyboard-response","198","110424","0.0-1.0-197.0","",""
"null","sound/msl/frog.wav","null","audio-keyboard-response","199","110946","0.0-1.0-198.0","",""
"null","sound/msl/slide_whistle.wav","null","audio-keyboard-response","200","111456","0.0-1.0-199.0","",""
"null","sound/msl/goat.wav","null","audio-keyboard-response","201","112004","0.0-1.0-200.0","",""
"null","sound/msl/clock.wav","null","audio-keyboard-response","202","112564","0.0-1.0-201.0","",""
"null","sound/msl/door_bell.wav","null","audio-keyboard-response","203","113086","0.0-1.0-202.0","",""
"null","sound/msl/bird.wav","null","audio-keyboard-response","204","113596","0.0-1.0-203.0","",""
"null","sound/msl/organ.wav","null","audio-keyboard-response","205","114104","0.0-1.0-204.0","",""
"null","sound/msl/dog.wav","null","audio-keyboard-response","206","114624","0.0-1.0-205.0","",""
"null","sound/msl/ding.wav","null","audio-keyboard-response","207","115146","0.0-1.0-206.0","",""
"null","sound/msl/door.wav","null","audio-keyboard-response","208","115656","0.0-1.0-207.0","",""
"null","sound/msl/boing.wav","null","audio-keyboard-response","209","116164","0.0-1.0-208.0","",""
"null","sound/msl/cow.wav","null","audio-keyboard-response","210","116674","0.0-1.0-209.0","",""
"null","sound/msl/frog.wav","null","audio-keyboard-response","211","117196","0.0-1.0-210.0","",""
"null","sound/msl/slide_whistle.wav","null","audio-keyboard-response","212","117706","0.0-1.0-211.0","",""
"null","sound/msl/goat.wav","null","audio-keyboard-response","213","118244","0.0-1.0-212.0","",""
"null","sound/msl/organ.wav","null","audio-keyboard-response","214","118754","0.0-1.0-213.0","",""
"null","sound/msl/dog.wav","null","audio-keyboard-response","215","119274","0.0-1.0-214.0","",""
"null","sound/msl/ding.wav","null","audio-keyboard-response","216","119796","0.0-1.0-215.0","",""
"null","sound/msl/duck.wav","null","audio-keyboard-response","217","120314","0.0-1.0-216.0","",""
"null","sound/msl/cat.wav","null","audio-keyboard-response","218","120824","0.0-1.0-217.0","",""
"null","sound/msl/Water.wav","null","audio-keyboard-response","219","121344","0.0-1.0-218.0","",""
"null","sound/msl/clock.wav","null","audio-keyboard-response","220","121904","0.0-1.0-219.0","",""
"null","sound/msl/door_bell.wav","null","audio-keyboard-response","221","122426","0.0-1.0-220.0","",""
"null","sound/msl/bird.wav","null","audio-keyboard-response","222","122946","0.0-1.0-221.0","",""
"null","sound/msl/door.wav","null","audio-keyboard-response","223","123456","0.0-1.0-222.0","",""
"null","sound/msl/boing.wav","null","audio-keyboard-response","224","123964","0.0-1.0-223.0","",""
"null","sound/msl/cow.wav","null","audio-keyboard-response","225","124484","0.0-1.0-224.0","",""
"null","sound/msl/duck.wav","null","audio-keyboard-response","226","125004","0.0-1.0-225.0","",""
"null","sound/msl/cat.wav","null","audio-keyboard-response","227","125516","0.0-1.0-226.0","",""
"null","sound/msl/Water.wav","null","audio-keyboard-response","228","126036","0.0-1.0-227.0","",""
"null","sound/msl/organ.wav","null","audio-keyboard-response","229","126544","0.0-1.0-228.0","",""
"null","sound/msl/dog.wav","null","audio-keyboard-response","230","127064","0.0-1.0-229.0","",""
"null","sound/msl/ding.wav","null","audio-keyboard-response","231","127586","0.0-1.0-230.0","",""
"null","sound/msl/duck.wav","null","audio-keyboard-response","232","128106","0.0-1.0-231.0","",""
"null","sound/msl/cat.wav","null","audio-keyboard-response","233","128614","0.0-1.0-232.0","",""
"null","sound/msl/Water.wav","null","audio-keyboard-response","234","129136","0.0-1.0-233.0","",""
"null","sound/msl/door.wav","null","audio-keyboard-response","235","129644","0.0-1.0-234.0","",""
"null","sound/msl/boing.wav","null","audio-keyboard-response","236","130156","0.0-1.0-235.0","",""
"null","sound/msl/cow.wav","null","audio-keyboard-response","237","130666","0.0-1.0-236.0","",""
"null","sound/msl/clock.wav","null","audio-keyboard-response","238","131226","0.0-1.0-237.0","",""
"null","sound/msl/door_bell.wav","null","audio-keyboard-response","239","131746","0.0-1.0-238.0","",""
"null","sound/msl/bird.wav","null","audio-keyboard-response","240","132266","0.0-1.0-239.0","",""
"null","sound/msl/frog.wav","null","audio-keyboard-response","241","132776","0.0-1.0-240.0","",""
"null","sound/msl/slide_whistle.wav","null","audio-keyboard-response","242","133284","0.0-1.0-241.0","",""
"null","sound/msl/goat.wav","null","audio-keyboard-response","243","133836","0.0-1.0-242.0","",""
"null","sound/msl/organ.wav","null","audio-keyboard-response","244","134344","0.0-1.0-243.0","",""
"null","sound/msl/dog.wav","null","audio-keyboard-response","245","134864","0.0-1.0-244.0","",""
"null","sound/msl/ding.wav","null","audio-keyboard-response","246","135386","0.0-1.0-245.0","",""
"null","sound/msl/door.wav","null","audio-keyboard-response","247","135896","0.0-1.0-246.0","",""
"null","sound/msl/boing.wav","null","audio-keyboard-response","248","136404","0.0-1.0-247.0","",""
"null","sound/msl/cow.wav","null","audio-keyboard-response","249","136926","0.0-1.0-248.0","",""
"null","sound/msl/clock.wav","null","audio-keyboard-response","250","137486","0.0-1.0-249.0","",""
"null","sound/msl/door_bell.wav","null","audio-keyboard-response","251","138006","0.0-1.0-250.0","",""
"null","sound/msl/bird.wav","null","audio-keyboard-response","252","138526","0.0-1.0-251.0","",""
"null","sound/msl/frog.wav","null","audio-keyboard-response","253","139046","0.0-1.0-252.0","",""
"null","sound/msl/slide_whistle.wav","null","audio-keyboard-response","254","139554","0.0-1.0-253.0","",""
"null","sound/msl/goat.wav","null","audio-keyboard-response","255","140096","0.0-1.0-254.0","",""
"null","sound/msl/duck.wav","null","audio-keyboard-response","256","140614","0.0-1.0-255.0","",""
"null","sound/msl/cat.wav","null","audio-keyboard-response","257","141124","0.0-1.0-256.0","",""
"null","sound/msl/Water.wav","null","audio-keyboard-response","258","141644","0.0-1.0-257.0","",""
"null","sound/msl/organ.wav","null","audio-keyboard-response","259","142154","0.0-1.0-258.0","",""
"null","sound/msl/dog.wav","null","audio-keyboard-response","260","142676","0.0-1.0-259.0","",""
"null","sound/msl/ding.wav","null","audio-keyboard-response","261","143196","0.0-1.0-260.0","",""
"null","sound/msl/frog.wav","null","audio-keyboard-response","262","143714","0.0-1.0-261.0","",""
"null","sound/msl/slide_whistle.wav","null","audio-keyboard-response","263","144226","0.0-1.0-262.0","",""
"null","sound/msl/goat.wav","null","audio-keyboard-response","264","144766","0.0-1.0-263.0","",""
"null","sound/msl/clock.wav","null","audio-keyboard-response","265","145324","0.0-1.0-264.0","",""
"null","sound/msl/door_bell.wav","null","audio-keyboard-response","266","145846","0.0-1.0-265.0","",""
"null","sound/msl/bird.wav","null","audio-keyboard-response","267","146364","0.0-1.0-266.0","",""
"null","sound/msl/duck.wav","null","audio-keyboard-response","268","146876","0.0-1.0-267.0","",""
"null","sound/msl/cat.wav","null","audio-keyboard-response","269","147384","0.0-1.0-268.0","",""
"null","sound/msl/Water.wav","null","audio-keyboard-response","270","147906","0.0-1.0-269.0","",""
"null","sound/msl/door.wav","null","audio-keyboard-response","271","148414","0.0-1.0-270.0","",""
"null","sound/msl/boing.wav","null","audio-keyboard-response","272","148926","0.0-1.0-271.0","",""
"null","sound/msl/cow.wav","null","audio-keyboard-response","273","149434","0.0-1.0-272.0","",""
"null","sound/msl/organ.wav","null","audio-keyboard-response","274","149946","0.0-1.0-273.0","",""
"null","sound/msl/dog.wav","null","audio-keyboard-response","275","150464","0.0-1.0-274.0","",""
"null","sound/msl/ding.wav","null","audio-keyboard-response","276","150984","0.0-1.0-275.0","",""
"null","sound/msl/frog.wav","null","audio-keyboard-response","277","151506","0.0-1.0-276.0","",""
"null","sound/msl/slide_whistle.wav","null","audio-keyboard-response","278","152014","0.0-1.0-277.0","",""
"null","sound/msl/goat.wav","null","audio-keyboard-response","279","152564","0.0-1.0-278.0","",""
"null","sound/msl/clock.wav","null","audio-keyboard-response","280","153126","0.0-1.0-279.0","",""
"null","sound/msl/door_bell.wav","null","audio-keyboard-response","281","153636","0.0-1.0-280.0","",""
"null","sound/msl/bird.wav","null","audio-keyboard-response","282","154156","0.0-1.0-281.0","",""
"null","sound/msl/door.wav","null","audio-keyboard-response","283","154664","0.0-1.0-282.0","",""
"null","sound/msl/boing.wav","null","audio-keyboard-response","284","155174","0.0-1.0-283.0","",""
"null","sound/msl/cow.wav","null","audio-keyboard-response","285","155696","0.0-1.0-284.0","",""
"null","sound/msl/duck.wav","null","audio-keyboard-response","286","156216","0.0-1.0-285.0","",""
"null","sound/msl/cat.wav","null","audio-keyboard-response","287","156726","0.0-1.0-286.0","",""
"null","sound/msl/Water.wav","null","audio-keyboard-response","288","157246","0.0-1.0-287.0","",""
"null","sound/msl/organ.wav","null","audio-keyboard-response","289","157756","0.0-1.0-288.0","",""
"null","sound/msl/dog.wav","null","audio-keyboard-response","290","158266","0.0-1.0-289.0","",""
"null","sound/msl/ding.wav","null","audio-keyboard-response","291","158786","0.0-1.0-290.0","",""
"null","sound/msl/clock.wav","null","audio-keyboard-response","292","159346","0.0-1.0-291.0","",""
"null","sound/msl/door_bell.wav","null","audio-keyboard-response","293","159854","0.0-1.0-292.0","",""
"null","sound/msl/bird.wav","null","audio-keyboard-response","294","160374","0.0-1.0-293.0","",""
"null","sound/msl/frog.wav","null","audio-keyboard-response","295","160896","0.0-1.0-294.0","",""
"null","sound/msl/slide_whistle.wav","null","audio-keyboard-response","296","161404","0.0-1.0-295.0","",""
"null","sound/msl/goat.wav","null","audio-keyboard-response","297","161946","0.0-1.0-296.0","",""
"null","sound/msl/organ.wav","null","audio-keyboard-response","298","162454","0.0-1.0-297.0","",""
"null","sound/msl/dog.wav","null","audio-keyboard-response","299","162976","0.0-1.0-298.0","",""
"null","sound/msl/ding.wav","null","audio-keyboard-response","300","163496","0.0-1.0-299.0","",""
"null","sound/msl/door.wav","null","audio-keyboard-response","301","164006","0.0-1.0-300.0","",""
"null","sound/msl/boing.wav","null","audio-keyboard-response","302","164514","0.0-1.0-301.0","",""
"null","sound/msl/cow.wav","null","audio-keyboard-response","303","165026","0.0-1.0-302.0","",""
"null","sound/msl/clock.wav","null","audio-keyboard-response","304","165584","0.0-1.0-303.0","",""
"null","sound/msl/door_bell.wav","null","audio-keyboard-response","305","166104","0.0-1.0-304.0","",""
"null","sound/msl/bird.wav","null","audio-keyboard-response","306","166616","0.0-1.0-305.0","",""
"null","sound/msl/duck.wav","null","audio-keyboard-response","307","167136","0.0-1.0-306.0","",""
"null","sound/msl/cat.wav","null","audio-keyboard-response","308","167646","0.0-1.0-307.0","",""
"null","sound/msl/Water.wav","null","audio-keyboard-response","309","168164","0.0-1.0-308.0","",""
"null","sound/msl/frog.wav","null","audio-keyboard-response","310","168686","0.0-1.0-309.0","",""
"null","sound/msl/slide_whistle.wav","null","audio-keyboard-response","311","169194","0.0-1.0-310.0","",""
"null","sound/msl/goat.wav","null","audio-keyboard-response","312","169744","0.0-1.0-311.0","",""
"null","sound/msl/organ.wav","null","audio-keyboard-response","313","170254","0.0-1.0-312.0","",""
"null","sound/msl/dog.wav","null","audio-keyboard-response","314","170774","0.0-1.0-313.0","",""
"null","sound/msl/ding.wav","null","audio-keyboard-response","315","171284","0.0-1.0-314.0","",""
"null","sound/msl/door.wav","null","audio-keyboard-response","316","171794","0.0-1.0-315.0","",""
"null","sound/msl/boing.wav","null","audio-keyboard-response","317","172304","0.0-1.0-316.0","",""
"null","sound/msl/cow.wav","null","audio-keyboard-response","318","172814","0.0-1.0-317.0","",""
"null","sound/msl/clock.wav","null","audio-keyboard-response","319","173374","0.0-1.0-318.0","",""
"null","sound/msl/door_bell.wav","null","audio-keyboard-response","320","173894","0.0-1.0-319.0","",""
"null","sound/msl/bird.wav","null","audio-keyboard-response","321","174414","0.0-1.0-320.0","",""
"null","sound/msl/frog.wav","null","audio-keyboard-response","322","174924","0.0-1.0-321.0","",""
"null","sound/msl/slide_whistle.wav","null","audio-keyboard-response","323","175436","0.0-1.0-322.0","",""
"null","sound/msl/goat.wav","null","audio-keyboard-response","324","175986","0.0-1.0-323.0","",""
"null","sound/msl/door.wav","null","audio-keyboard-response","325","176494","0.0-1.0-324.0","",""
"null","sound/msl/boing.wav","null","audio-keyboard-response","326","177006","0.0-1.0-325.0","",""
"null","sound/msl/cow.wav","null","audio-keyboard-response","327","177526","0.0-1.0-326.0","",""
"null","sound/msl/duck.wav","null","audio-keyboard-response","328","178046","0.0-1.0-327.0","",""
"null","sound/msl/cat.wav","null","audio-keyboard-response","329","178554","0.0-1.0-328.0","",""
"null","sound/msl/Water.wav","null","audio-keyboard-response","330","179074","0.0-1.0-329.0","",""
"null","sound/msl/organ.wav","null","audio-keyboard-response","331","179584","0.0-1.0-330.0","",""
"null","sound/msl/dog.wav","null","audio-keyboard-response","332","180106","0.0-1.0-331.0","",""
"null","sound/msl/ding.wav","null","audio-keyboard-response","333","180626","0.0-1.0-332.0","",""
"null","sound/msl/clock.wav","null","audio-keyboard-response","334","181184","0.0-1.0-333.0","",""
"null","sound/msl/door_bell.wav","null","audio-keyboard-response","335","181704","0.0-1.0-334.0","",""
"null","sound/msl/bird.wav","null","audio-keyboard-response","336","182224","0.0-1.0-335.0","",""
"null","sound/msl/duck.wav","null","audio-keyboard-response","337","182744","0.0-1.0-336.0","",""
"null","sound/msl/cat.wav","null","audio-keyboard-response","338","183256","0.0-1.0-337.0","",""
"null","sound/msl/Water.wav","null","audio-keyboard-response","339","183776","0.0-1.0-338.0","",""
"null","sound/msl/frog.wav","null","audio-keyboard-response","340","184294","0.0-1.0-339.0","",""
"null","sound/msl/slide_whistle.wav","null","audio-keyboard-response","341","184804","0.0-1.0-340.0","",""
"null","sound/msl/goat.wav","null","audio-keyboard-response","342","185344","0.0-1.0-341.0","",""
"null","sound/msl/clock.wav","null","audio-keyboard-response","343","185904","0.0-1.0-342.0","",""
"null","sound/msl/door_bell.wav","null","audio-keyboard-response","344","186424","0.0-1.0-343.0","",""
"null","sound/msl/bird.wav","null","audio-keyboard-response","345","186946","0.0-1.0-344.0","",""
"null","sound/msl/frog.wav","null","audio-keyboard-response","346","187454","0.0-1.0-345.0","",""
"null","sound/msl/slide_whistle.wav","null","audio-keyboard-response","347","187984","0.0-1.0-346.0","",""
"null","sound/msl/goat.wav","null","audio-keyboard-response","348","188534","0.0-1.0-347.0","",""
"null","sound/msl/duck.wav","null","audio-keyboard-response","349","189064","0.0-1.0-348.0","",""
"null","sound/msl/cat.wav","null","audio-keyboard-response","350","189576","0.0-1.0-349.0","",""
"null","sound/msl/Water.wav","null","audio-keyboard-response","351","190096","0.0-1.0-350.0","",""
"null","sound/msl/organ.wav","null","audio-keyboard-response","352","190606","0.0-1.0-351.0","",""
"null","sound/msl/dog.wav","null","audio-keyboard-response","353","191114","0.0-1.0-352.0","",""
"null","sound/msl/ding.wav","null","audio-keyboard-response","354","191634","0.0-1.0-353.0","",""
"null","sound/msl/clock.wav","null","audio-keyboard-response","355","192194","0.0-1.0-354.0","",""
"null","sound/msl/door_bell.wav","null","audio-keyboard-response","356","192716","0.0-1.0-355.0","",""
"null","sound/msl/bird.wav","null","audio-keyboard-response","357","193224","0.0-1.0-356.0","",""
"null","sound/msl/frog.wav","null","audio-keyboard-response","358","193746","0.0-1.0-357.0","",""
"null","sound/msl/slide_whistle.wav","null","audio-keyboard-response","359","194254","0.0-1.0-358.0","",""
"null","sound/msl/goat.wav","null","audio-keyboard-response","360","194806","0.0-1.0-359.0","",""
"16682","Instructions2-eng.png","49","image-keyboard-response","361","211492","0.0-2.0","",""
"null","sound/msl/frog.wav","null","audio-keyboard-response","362","212016","0.0-3.0-0.0","",""
"null","sound/msl/boing.wav","null","audio-keyboard-response","363","212526","0.0-3.0-1.0","",""
"null","sound/msl/Water.wav","null","audio-keyboard-response","364","213046","0.0-3.0-2.0","",""
"null","sound/asl/silence.wav","null","audio-keyboard-response","365","213548","0.0-3.0-3.0","",""
"null","sound/msl/frog.wav","null","audio-keyboard-response","366","214066","0.0-3.0-4.0","",""
"null","sound/msl/slide_whistle.wav","null","audio-keyboard-response","367","214574","0.0-3.0-5.0","",""
"null","sound/msl/goat.wav","null","audio-keyboard-response","368","215126","0.0-3.0-6.0","",""
"450","sound/asl/silence.wav","50","audio-keyboard-response","369","215580","0.0-3.0-7.0","true",""
"null","sound/msl/organ.wav","null","audio-keyboard-response","370","216086","0.0-4.0-0.0","",""
"null","sound/msl/slide_whistle.wav","null","audio-keyboard-response","371","216596","0.0-4.0-1.0","",""
"null","sound/msl/cow.wav","null","audio-keyboard-response","372","217116","0.0-4.0-2.0","",""
"null","sound/asl/silence.wav","null","audio-keyboard-response","373","217618","0.0-4.0-3.0","",""
"null","sound/msl/door.wav","null","audio-keyboard-response","374","218124","0.0-4.0-4.0","",""
"null","sound/msl/boing.wav","null","audio-keyboard-response","375","218634","0.0-4.0-5.0","",""
"null","sound/msl/cow.wav","null","audio-keyboard-response","376","219154","0.0-4.0-6.0","",""
"3090","sound/asl/silence.wav","49","audio-keyboard-response","377","222248","0.0-4.0-7.0","false",""
"null","sound/msl/duck.wav","null","audio-keyboard-response","378","222756","0.0-5.0-0.0","",""
"null","sound/msl/cat.wav","null","audio-keyboard-response","379","223264","0.0-5.0-1.0","",""
"null","sound/msl/Water.wav","null","audio-keyboard-response","380","223786","0.0-5.0-2.0","",""
"null","sound/asl/silence.wav","null","audio-keyboard-response","381","224288","0.0-5.0-3.0","",""
"null","sound/msl/organ.wav","null","audio-keyboard-response","382","224794","0.0-5.0-4.0","",""
"null","sound/msl/slide_whistle.wav","null","audio-keyboard-response","383","225306","0.0-5.0-5.0","",""
"null","sound/msl/cow.wav","null","audio-keyboard-response","384","225826","0.0-5.0-6.0","",""
"800","sound/asl/silence.wav","49","audio-keyboard-response","385","226626","0.0-5.0-7.0","true",""
"null","sound/msl/clock.wav","null","audio-keyboard-response","386","227184","0.0-6.0-0.0","",""
"null","sound/msl/door_bell.wav","null","audio-keyboard-response","387","227696","0.0-6.0-1.0","",""
"null","sound/msl/bird.wav","null","audio-keyboard-response","388","228216","0.0-6.0-2.0","",""
"null","sound/asl/silence.wav","null","audio-keyboard-response","389","228718","0.0-6.0-3.0","",""
"null","sound/msl/organ.wav","null","audio-keyboard-response","390","229226","0.0-6.0-4.0","",""
"null","sound/msl/slide_whistle.wav","null","audio-keyboard-response","391","229736","0.0-6.0-5.0","",""
"null","sound/msl/cow.wav","null","audio-keyboard-response","392","230256","0.0-6.0-6.0","",""
"590","sound/asl/silence.wav","50","audio-keyboard-response","393","230846","0.0-6.0-7.0","false",""
"null","sound/msl/duck.wav","null","audio-keyboard-response","394","231356","0.0-7.0-0.0","",""
"null","sound/msl/cat.wav","null","audio-keyboard-response","395","231866","0.0-7.0-1.0","",""
"null","sound/msl/Water.wav","null","audio-keyboard-response","396","232386","0.0-7.0-2.0","",""
"null","sound/asl/silence.wav","null","audio-keyboard-response","397","232888","0.0-7.0-3.0","",""
"null","sound/msl/frog.wav","null","audio-keyboard-response","398","233404","0.0-7.0-4.0","",""
"null","sound/msl/boing.wav","null","audio-keyboard-response","399","233916","0.0-7.0-5.0","",""
"null","sound/msl/Water.wav","null","audio-keyboard-response","400","234436","0.0-7.0-6.0","",""
"498","sound/asl/silence.wav","49","audio-keyboard-response","401","234936","0.0-7.0-7.0","true",""
"null","sound/msl/organ.wav","null","audio-keyboard-response","402","235444","0.0-8.0-0.0","",""
"null","sound/msl/dog.wav","null","audio-keyboard-response","403","235964","0.0-8.0-1.0","",""
"null","sound/msl/ding.wav","null","audio-keyboard-response","404","236474","0.0-8.0-2.0","",""
"null","sound/asl/silence.wav","null","audio-keyboard-response","405","236976","0.0-8.0-3.0","",""
"null","sound/msl/organ.wav","null","audio-keyboard-response","406","237484","0.0-8.0-4.0","",""
"null","sound/msl/slide_whistle.wav","null","audio-keyboard-response","407","237994","0.0-8.0-5.0","",""
"null","sound/msl/cow.wav","null","audio-keyboard-response","408","238514","0.0-8.0-6.0","",""
"460","sound/asl/silence.wav","50","audio-keyboard-response","409","238980","0.0-8.0-7.0","false",""
"null","sound/msl/door.wav","null","audio-keyboard-response","410","239486","0.0-9.0-0.0","",""
"null","sound/msl/boing.wav","null","audio-keyboard-response","411","239994","0.0-9.0-1.0","",""
"null","sound/msl/cow.wav","null","audio-keyboard-response","412","240514","0.0-9.0-2.0","",""
"null","sound/asl/silence.wav","null","audio-keyboard-response","413","241016","0.0-9.0-3.0","",""
"null","sound/msl/duck.wav","null","audio-keyboard-response","414","241536","0.0-9.0-4.0","",""
"null","sound/msl/door_bell.wav","null","audio-keyboard-response","415","242046","0.0-9.0-5.0","",""
"null","sound/msl/ding.wav","null","audio-keyboard-response","416","242564","0.0-9.0-6.0","",""
"630","sound/asl/silence.wav","49","audio-keyboard-response","417","243202","0.0-9.0-7.0","true",""
"null","sound/msl/clock.wav","null","audio-keyboard-response","418","243754","0.0-10.0-0.0","",""
"null","sound/msl/dog.wav","null","audio-keyboard-response","419","244276","0.0-10.0-1.0","",""
"null","sound/msl/goat.wav","null","audio-keyboard-response","420","244816","0.0-10.0-2.0","",""
"null","sound/asl/silence.wav","null","audio-keyboard-response","421","245316","0.0-10.0-3.0","",""
"null","sound/msl/door.wav","null","audio-keyboard-response","422","245824","0.0-10.0-4.0","",""
"null","sound/msl/boing.wav","null","audio-keyboard-response","423","246334","0.0-10.0-5.0","",""
"null","sound/msl/cow.wav","null","audio-keyboard-response","424","246854","0.0-10.0-6.0","",""
"688","sound/asl/silence.wav","49","audio-keyboard-response","425","247552","0.0-10.0-7.0","false",""
"null","sound/msl/frog.wav","null","audio-keyboard-response","426","248066","0.0-11.0-0.0","",""
"null","sound/msl/slide_whistle.wav","null","audio-keyboard-response","427","248574","0.0-11.0-1.0","",""
"null","sound/msl/goat.wav","null","audio-keyboard-response","428","249126","0.0-11.0-2.0","",""
"null","sound/asl/silence.wav","null","audio-keyboard-response","429","249626","0.0-11.0-3.0","",""
"null","sound/msl/organ.wav","null","audio-keyboard-response","430","250136","0.0-11.0-4.0","",""
"null","sound/msl/slide_whistle.wav","null","audio-keyboard-response","431","250646","0.0-11.0-5.0","",""
"null","sound/msl/cow.wav","null","audio-keyboard-response","432","251164","0.0-11.0-6.0","",""
"398","sound/asl/silence.wav","50","audio-keyboard-response","433","251574","0.0-11.0-7.0","false",""
"null","sound/msl/door.wav","null","audio-keyboard-response","434","252084","0.0-12.0-0.0","",""
"null","sound/msl/cat.wav","null","audio-keyboard-response","435","252594","0.0-12.0-1.0","",""
"null","sound/msl/bird.wav","null","audio-keyboard-response","436","253116","0.0-12.0-2.0","",""
"null","sound/asl/silence.wav","null","audio-keyboard-response","437","253616","0.0-12.0-3.0","",""
"null","sound/msl/clock.wav","null","audio-keyboard-response","438","254176","0.0-12.0-4.0","",""
"null","sound/msl/door_bell.wav","null","audio-keyboard-response","439","254696","0.0-12.0-5.0","",""
"null","sound/msl/bird.wav","null","audio-keyboard-response","440","255204","0.0-12.0-6.0","",""
"478","sound/asl/silence.wav","50","audio-keyboard-response","441","255692","0.0-12.0-7.0","true",""
"null","sound/msl/door.wav","null","audio-keyboard-response","442","256196","0.0-13.0-0.0","",""
"null","sound/msl/boing.wav","null","audio-keyboard-response","443","256708","0.0-13.0-1.0","",""
"null","sound/msl/cow.wav","null","audio-keyboard-response","444","257228","0.0-13.0-2.0","",""
"null","sound/asl/silence.wav","null","audio-keyboard-response","445","257732","0.0-13.0-3.0","",""
"null","sound/msl/door.wav","null","audio-keyboard-response","446","258246","0.0-13.0-4.0","",""
"null","sound/msl/cat.wav","null","audio-keyboard-response","447","258756","0.0-13.0-5.0","",""
"null","sound/msl/bird.wav","null","audio-keyboard-response","448","259274","0.0-13.0-6.0","",""
"750","sound/asl/silence.wav","49","audio-keyboard-response","449","260032","0.0-13.0-7.0","true",""
"null","sound/msl/duck.wav","null","audio-keyboard-response","450","260546","0.0-14.0-0.0","",""
"null","sound/msl/door_bell.wav","null","audio-keyboard-response","451","261078","0.0-14.0-1.0","",""
"null","sound/msl/ding.wav","null","audio-keyboard-response","452","261584","0.0-14.0-2.0","",""
"null","sound/asl/silence.wav","null","audio-keyboard-response","453","262090","0.0-14.0-3.0","",""
"null","sound/msl/organ.wav","null","audio-keyboard-response","454","262594","0.0-14.0-4.0","",""
"null","sound/msl/dog.wav","null","audio-keyboard-response","455","263114","0.0-14.0-5.0","",""
"null","sound/msl/ding.wav","null","audio-keyboard-response","456","263626","0.0-14.0-6.0","",""
"398","sound/asl/silence.wav","49","audio-keyboard-response","457","264034","0.0-14.0-7.0","false",""
"null","sound/msl/frog.wav","null","audio-keyboard-response","458","264546","0.0-15.0-0.0","",""
"null","sound/msl/boing.wav","null","audio-keyboard-response","459","265056","0.0-15.0-1.0","",""
"null","sound/msl/Water.wav","null","audio-keyboard-response","460","265576","0.0-15.0-2.0","",""
"null","sound/asl/silence.wav","null","audio-keyboard-response","461","266078","0.0-15.0-3.0","",""
"null","sound/msl/organ.wav","null","audio-keyboard-response","462","266586","0.0-15.0-4.0","",""
"null","sound/msl/dog.wav","null","audio-keyboard-response","463","267104","0.0-15.0-5.0","",""
"null","sound/msl/ding.wav","null","audio-keyboard-response","464","267626","0.0-15.0-6.0","",""
"528","sound/asl/silence.wav","49","audio-keyboard-response","465","268160","0.0-15.0-7.0","false",""
"null","sound/msl/duck.wav","null","audio-keyboard-response","466","268674","0.0-16.0-0.0","",""
"null","sound/msl/door_bell.wav","null","audio-keyboard-response","467","269196","0.0-16.0-1.0","",""
"null","sound/msl/ding.wav","null","audio-keyboard-response","468","269714","0.0-16.0-2.0","",""
"null","sound/asl/silence.wav","null","audio-keyboard-response","469","270216","0.0-16.0-3.0","",""
"null","sound/msl/duck.wav","null","audio-keyboard-response","470","270726","0.0-16.0-4.0","",""
"null","sound/msl/cat.wav","null","audio-keyboard-response","471","271236","0.0-16.0-5.0","",""
"null","sound/msl/Water.wav","null","audio-keyboard-response","472","271756","0.0-16.0-6.0","",""
"408","sound/asl/silence.wav","50","audio-keyboard-response","473","272174","0.0-16.0-7.0","true",""
"null","sound/msl/door.wav","null","audio-keyboard-response","474","272686","0.0-17.0-0.0","",""
"null","sound/msl/cat.wav","null","audio-keyboard-response","475","273196","0.0-17.0-1.0","",""
"null","sound/msl/bird.wav","null","audio-keyboard-response","476","273714","0.0-17.0-2.0","",""
"null","sound/asl/silence.wav","null","audio-keyboard-response","477","274216","0.0-17.0-3.0","",""
"null","sound/msl/duck.wav","null","audio-keyboard-response","478","274736","0.0-17.0-4.0","",""
"null","sound/msl/cat.wav","null","audio-keyboard-response","479","275246","0.0-17.0-5.0","",""
"null","sound/msl/Water.wav","null","audio-keyboard-response","480","275766","0.0-17.0-6.0","",""
"352","sound/asl/silence.wav","49","audio-keyboard-response","481","276122","0.0-17.0-7.0","false",""
"null","sound/msl/door.wav","null","audio-keyboard-response","482","276626","0.0-18.0-0.0","",""
"null","sound/msl/cat.wav","null","audio-keyboard-response","483","277136","0.0-18.0-1.0","",""
"null","sound/msl/bird.wav","null","audio-keyboard-response","484","277656","0.0-18.0-2.0","",""
"null","sound/asl/silence.wav","null","audio-keyboard-response","485","278156","0.0-18.0-3.0","",""
"null","sound/msl/frog.wav","null","audio-keyboard-response","486","278676","0.0-18.0-4.0","",""
"null","sound/msl/slide_whistle.wav","null","audio-keyboard-response","487","279186","0.0-18.0-5.0","",""
"null","sound/msl/goat.wav","null","audio-keyboard-response","488","279736","0.0-18.0-6.0","",""
"410","sound/asl/silence.wav","50","audio-keyboard-response","489","280154","0.0-18.0-7.0","true",""
"null","sound/msl/frog.wav","null","audio-keyboard-response","490","280674","0.0-19.0-0.0","",""
"null","sound/msl/slide_whistle.wav","null","audio-keyboard-response","491","281186","0.0-19.0-1.0","",""
"null","sound/msl/goat.wav","null","audio-keyboard-response","492","281724","0.0-19.0-2.0","",""
"null","sound/asl/silence.wav","null","audio-keyboard-response","493","282226","0.0-19.0-3.0","",""
"null","sound/msl/clock.wav","null","audio-keyboard-response","494","282784","0.0-19.0-4.0","",""
"null","sound/msl/dog.wav","null","audio-keyboard-response","495","283304","0.0-19.0-5.0","",""
"null","sound/msl/goat.wav","null","audio-keyboard-response","496","283844","0.0-19.0-6.0","",""
"402","sound/asl/silence.wav","49","audio-keyboard-response","497","284254","0.0-19.0-7.0","true",""
"null","sound/msl/duck.wav","null","audio-keyboard-response","498","284776","0.0-20.0-0.0","",""
"null","sound/msl/door_bell.wav","null","audio-keyboard-response","499","285296","0.0-20.0-1.0","",""
"null","sound/msl/ding.wav","null","audio-keyboard-response","500","285816","0.0-20.0-2.0","",""
"null","sound/asl/silence.wav","null","audio-keyboard-response","501","286316","0.0-20.0-3.0","",""
"null","sound/msl/frog.wav","null","audio-keyboard-response","502","286826","0.0-20.0-4.0","",""
"null","sound/msl/slide_whistle.wav","null","audio-keyboard-response","503","287336","0.0-20.0-5.0","",""
"null","sound/msl/goat.wav","null","audio-keyboard-response","504","287884","0.0-20.0-6.0","",""
"340","sound/asl/silence.wav","50","audio-keyboard-response","505","288226","0.0-20.0-7.0","true",""
"null","sound/msl/clock.wav","null","audio-keyboard-response","506","288784","0.0-21.0-0.0","",""
"null","sound/msl/dog.wav","null","audio-keyboard-response","507","289294","0.0-21.0-1.0","",""
"null","sound/msl/goat.wav","null","audio-keyboard-response","508","289834","0.0-21.0-2.0","",""
"null","sound/asl/silence.wav","null","audio-keyboard-response","509","290338","0.0-21.0-3.0","",""
"null","sound/msl/duck.wav","null","audio-keyboard-response","510","290844","0.0-21.0-4.0","",""
"null","sound/msl/cat.wav","null","audio-keyboard-response","511","291356","0.0-21.0-5.0","",""
"null","sound/msl/Water.wav","null","audio-keyboard-response","512","291874","0.0-21.0-6.0","",""
"378","sound/asl/silence.wav","50","audio-keyboard-response","513","292264","0.0-21.0-7.0","true",""
"null","sound/msl/duck.wav","null","audio-keyboard-response","514","292776","0.0-22.0-0.0","",""
"null","sound/msl/door_bell.wav","null","audio-keyboard-response","515","293294","0.0-22.0-1.0","",""
"null","sound/msl/ding.wav","null","audio-keyboard-response","516","293816","0.0-22.0-2.0","",""
"null","sound/asl/silence.wav","null","audio-keyboard-response","517","294318","0.0-22.0-3.0","",""
"null","sound/msl/clock.wav","null","audio-keyboard-response","518","294874","0.0-22.0-4.0","",""
"null","sound/msl/door_bell.wav","null","audio-keyboard-response","519","295396","0.0-22.0-5.0","",""
"null","sound/msl/bird.wav","null","audio-keyboard-response","520","295916","0.0-22.0-6.0","",""
"400","sound/asl/silence.wav","50","audio-keyboard-response","521","296324","0.0-22.0-7.0","true",""
"null","sound/msl/organ.wav","null","audio-keyboard-response","522","296834","0.0-23.0-0.0","",""
"null","sound/msl/dog.wav","null","audio-keyboard-response","523","297354","0.0-23.0-1.0","",""
"null","sound/msl/ding.wav","null","audio-keyboard-response","524","297874","0.0-23.0-2.0","",""
"null","sound/asl/silence.wav","null","audio-keyboard-response","525","298376","0.0-23.0-3.0","",""
"null","sound/msl/clock.wav","null","audio-keyboard-response","526","298936","0.0-23.0-4.0","",""
"null","sound/msl/dog.wav","null","audio-keyboard-response","527","299446","0.0-23.0-5.0","",""
"null","sound/msl/goat.wav","null","audio-keyboard-response","528","299984","0.0-23.0-6.0","",""
"308","sound/asl/silence.wav","50","audio-keyboard-response","529","300304","0.0-23.0-7.0","false",""
"null","sound/msl/door.wav","null","audio-keyboard-response","530","300814","0.0-24.0-0.0","",""
"null","sound/msl/boing.wav","null","audio-keyboard-response","531","301326","0.0-24.0-1.0","",""
"null","sound/msl/cow.wav","null","audio-keyboard-response","532","301846","0.0-24.0-2.0","",""
"null","sound/asl/silence.wav","null","audio-keyboard-response","533","302348","0.0-24.0-3.0","",""
"null","sound/msl/frog.wav","null","audio-keyboard-response","534","302864","0.0-24.0-4.0","",""
"null","sound/msl/boing.wav","null","audio-keyboard-response","535","303376","0.0-24.0-5.0","",""
"null","sound/msl/Water.wav","null","audio-keyboard-response","536","303896","0.0-24.0-6.0","",""
"510","sound/asl/silence.wav","49","audio-keyboard-response","537","304412","0.0-24.0-7.0","true",""
"null","sound/msl/frog.wav","null","audio-keyboard-response","538","304926","0.0-25.0-0.0","",""
"null","sound/msl/boing.wav","null","audio-keyboard-response","539","305436","0.0-25.0-1.0","",""
"null","sound/msl/Water.wav","null","audio-keyboard-response","540","305954","0.0-25.0-2.0","",""
"null","sound/asl/silence.wav","null","audio-keyboard-response","541","306458","0.0-25.0-3.0","",""
"null","sound/msl/clock.wav","null","audio-keyboard-response","542","307016","0.0-25.0-4.0","",""
"null","sound/msl/door_bell.wav","null","audio-keyboard-response","543","307534","0.0-25.0-5.0","",""
"null","sound/msl/bird.wav","null","audio-keyboard-response","544","308044","0.0-25.0-6.0","",""
"498","sound/asl/silence.wav","50","audio-keyboard-response","545","308548","0.0-25.0-7.0","true",""
"null","sound/msl/organ.wav","null","audio-keyboard-response","546","309054","0.0-26.0-0.0","",""
"null","sound/msl/dog.wav","null","audio-keyboard-response","547","309576","0.0-26.0-1.0","",""
"null","sound/msl/ding.wav","null","audio-keyboard-response","548","310096","0.0-26.0-2.0","",""
"null","sound/asl/silence.wav","null","audio-keyboard-response","549","310596","0.0-26.0-3.0","",""
"null","sound/msl/door.wav","null","audio-keyboard-response","550","311106","0.0-26.0-4.0","",""
"null","sound/msl/cat.wav","null","audio-keyboard-response","551","311614","0.0-26.0-5.0","",""
"null","sound/msl/bird.wav","null","audio-keyboard-response","552","312136","0.0-26.0-6.0","",""
"658","sound/asl/silence.wav","50","audio-keyboard-response","553","312796","0.0-26.0-7.0","false",""
"null","sound/msl/clock.wav","null","audio-keyboard-response","554","313354","0.0-27.0-0.0","",""
"null","sound/msl/door_bell.wav","null","audio-keyboard-response","555","313874","0.0-27.0-1.0","",""
"null","sound/msl/bird.wav","null","audio-keyboard-response","556","314394","0.0-27.0-2.0","",""
"null","sound/asl/silence.wav","null","audio-keyboard-response","557","314896","0.0-27.0-3.0","",""
"null","sound/msl/clock.wav","null","audio-keyboard-response","558","315456","0.0-27.0-4.0","",""
"null","sound/msl/dog.wav","null","audio-keyboard-response","559","315974","0.0-27.0-5.0","",""
"null","sound/msl/goat.wav","null","audio-keyboard-response","560","316514","0.0-27.0-6.0","",""
"858","sound/asl/silence.wav","49","audio-keyboard-response","561","317384","0.0-27.0-7.0","true",""
"2902","","","instructions","562","320288","0.0-28.0","","[{""page_index"":0,""viewing_time"":2902}]"
