"rt","stimulus","key_press","trial_type","trial_index","time_elapsed","internal_node_id","correct","view_history"
"6304","alien.jpg","49","image-keyboard-response","0","6304","0.0-0.0","",""
"null","sound/msl/door_bell.wav","null","audio-keyboard-response","1","6824","0.0-1.0-0.0","",""
"null","sound/msl/goat.wav","null","audio-keyboard-response","2","7364","0.0-1.0-1.0","",""
"null","sound/msl/ding.wav","null","audio-keyboard-response","3","7886","0.0-1.0-2.0","",""
"null","sound/msl/dog.wav","null","audio-keyboard-response","4","8396","0.0-1.0-3.0","",""
"null","sound/msl/cow.wav","null","audio-keyboard-response","5","8916","0.0-1.0-4.0","",""
"null","sound/msl/organ.wav","null","audio-keyboard-response","6","9424","0.0-1.0-5.0","",""
"null","sound/msl/door.wav","null","audio-keyboard-response","7","9934","0.0-1.0-6.0","",""
"null","sound/msl/frog.wav","null","audio-keyboard-response","8","10456","0.0-1.0-7.0","",""
"null","sound/msl/Water.wav","null","audio-keyboard-response","9","10976","0.0-1.0-8.0","",""
"null","sound/msl/clock.wav","null","audio-keyboard-response","10","11536","0.0-1.0-9.0","",""
"null","sound/msl/bird.wav","null","audio-keyboard-response","11","12054","0.0-1.0-10.0","",""
"null","sound/msl/slide_whistle.wav","null","audio-keyboard-response","12","12564","0.0-1.0-11.0","",""
"null","sound/msl/dog.wav","null","audio-keyboard-response","13","13084","0.0-1.0-12.0","",""
"null","sound/msl/cow.wav","null","audio-keyboard-response","14","13606","0.0-1.0-13.0","",""
"null","sound/msl/organ.wav","null","audio-keyboard-response","15","14114","0.0-1.0-14.0","",""
"null","sound/msl/door_bell.wav","null","audio-keyboard-response","16","14634","0.0-1.0-15.0","",""
"null","sound/msl/goat.wav","null","audio-keyboard-response","17","15174","0.0-1.0-16.0","",""
"null","sound/msl/ding.wav","null","audio-keyboard-response","18","15696","0.0-1.0-17.0","",""
"null","sound/msl/boing.wav","null","audio-keyboard-response","19","16204","0.0-1.0-18.0","",""
"null","sound/msl/cat.wav","null","audio-keyboard-response","20","16714","0.0-1.0-19.0","",""
"null","sound/msl/duck.wav","null","audio-keyboard-response","21","17234","0.0-1.0-20.0","",""
"null","sound/msl/clock.wav","null","audio-keyboard-response","22","17796","0.0-1.0-21.0","",""
"null","sound/msl/bird.wav","null","audio-keyboard-response","23","18314","0.0-1.0-22.0","",""
"null","sound/msl/slide_whistle.wav","null","audio-keyboard-response","24","18826","0.0-1.0-23.0","",""
"null","sound/msl/door.wav","null","audio-keyboard-response","25","19334","0.0-1.0-24.0","",""
"null","sound/msl/frog.wav","null","audio-keyboard-response","26","19856","0.0-1.0-25.0","",""
"null","sound/msl/Water.wav","null","audio-keyboard-response","27","20376","0.0-1.0-26.0","",""
"null","sound/msl/door_bell.wav","null","audio-keyboard-response","28","20896","0.0-1.0-27.0","",""
"null","sound/msl/goat.wav","null","audio-keyboard-response","29","21446","0.0-1.0-28.0","",""
"null","sound/msl/ding.wav","null","audio-keyboard-response","30","21966","0.0-1.0-29.0","",""
"null","sound/msl/dog.wav","null","audio-keyboard-response","31","22476","0.0-1.0-30.0","",""
"null","sound/msl/cow.wav","null","audio-keyboard-response","32","22994","0.0-1.0-31.0","",""
"null","sound/msl/organ.wav","null","audio-keyboard-response","33","23506","0.0-1.0-32.0","",""
"null","sound/msl/boing.wav","null","audio-keyboard-response","34","24014","0.0-1.0-33.0","",""
"null","sound/msl/cat.wav","null","audio-keyboard-response","35","24526","0.0-1.0-34.0","",""
"null","sound/msl/duck.wav","null","audio-keyboard-response","36","25036","0.0-1.0-35.0","",""
"null","sound/msl/door.wav","null","audio-keyboard-response","37","25546","0.0-1.0-36.0","",""
"null","sound/msl/frog.wav","null","audio-keyboard-response","38","26066","0.0-1.0-37.0","",""
"null","sound/msl/Water.wav","null","audio-keyboard-response","39","26586","0.0-1.0-38.0","",""
"null","sound/msl/clock.wav","null","audio-keyboard-response","40","27146","0.0-1.0-39.0","",""
"null","sound/msl/bird.wav","null","audio-keyboard-response","41","27666","0.0-1.0-40.0","",""
"null","sound/msl/slide_whistle.wav","null","audio-keyboard-response","42","28176","0.0-1.0-41.0","",""
"null","sound/msl/boing.wav","null","audio-keyboard-response","43","28686","0.0-1.0-42.0","",""
"null","sound/msl/cat.wav","null","audio-keyboard-response","44","29196","0.0-1.0-43.0","",""
"null","sound/msl/duck.wav","null","audio-keyboard-response","45","29706","0.0-1.0-44.0","",""
"null","sound/msl/dog.wav","null","audio-keyboard-response","46","30226","0.0-1.0-45.0","",""
"null","sound/msl/cow.wav","null","audio-keyboard-response","47","30744","0.0-1.0-46.0","",""
"null","sound/msl/organ.wav","null","audio-keyboard-response","48","31254","0.0-1.0-47.0","",""
"null","sound/msl/door.wav","null","audio-keyboard-response","49","31764","0.0-1.0-48.0","",""
"null","sound/msl/frog.wav","null","audio-keyboard-response","50","32286","0.0-1.0-49.0","",""
"null","sound/msl/Water.wav","null","audio-keyboard-response","51","32806","0.0-1.0-50.0","",""
"null","sound/msl/door_bell.wav","null","audio-keyboard-response","52","33326","0.0-1.0-51.0","",""
"null","sound/msl/goat.wav","null","audio-keyboard-response","53","33866","0.0-1.0-52.0","",""
"null","sound/msl/ding.wav","null","audio-keyboard-response","54","34376","0.0-1.0-53.0","",""
"null","sound/msl/dog.wav","null","audio-keyboard-response","55","34894","0.0-1.0-54.0","",""
"null","sound/msl/cow.wav","null","audio-keyboard-response","56","35416","0.0-1.0-55.0","",""
"null","sound/msl/organ.wav","null","audio-keyboard-response","57","35926","0.0-1.0-56.0","",""
"null","sound/msl/door.wav","null","audio-keyboard-response","58","36436","0.0-1.0-57.0","",""
"null","sound/msl/frog.wav","null","audio-keyboard-response","59","36956","0.0-1.0-58.0","",""
"null","sound/msl/Water.wav","null","audio-keyboard-response","60","37476","0.0-1.0-59.0","",""
"null","sound/msl/clock.wav","null","audio-keyboard-response","61","38036","0.0-1.0-60.0","",""
"null","sound/msl/bird.wav","null","audio-keyboard-response","62","38556","0.0-1.0-61.0","",""
"null","sound/msl/slide_whistle.wav","null","audio-keyboard-response","63","39066","0.0-1.0-62.0","",""
"null","sound/msl/boing.wav","null","audio-keyboard-response","64","39574","0.0-1.0-63.0","",""
"null","sound/msl/cat.wav","null","audio-keyboard-response","65","40086","0.0-1.0-64.0","",""
"null","sound/msl/duck.wav","null","audio-keyboard-response","66","40606","0.0-1.0-65.0","",""
"null","sound/msl/dog.wav","null","audio-keyboard-response","67","41116","0.0-1.0-66.0","",""
"null","sound/msl/cow.wav","null","audio-keyboard-response","68","41634","0.0-1.0-67.0","",""
"null","sound/msl/organ.wav","null","audio-keyboard-response","69","42146","0.0-1.0-68.0","",""
"null","sound/msl/door_bell.wav","null","audio-keyboard-response","70","42664","0.0-1.0-69.0","",""
"null","sound/msl/goat.wav","null","audio-keyboard-response","71","43206","0.0-1.0-70.0","",""
"null","sound/msl/ding.wav","null","audio-keyboard-response","72","43726","0.0-1.0-71.0","",""
"null","sound/msl/door.wav","null","audio-keyboard-response","73","44234","0.0-1.0-72.0","",""
"null","sound/msl/frog.wav","null","audio-keyboard-response","74","44754","0.0-1.0-73.0","",""
"null","sound/msl/Water.wav","null","audio-keyboard-response","75","45276","0.0-1.0-74.0","",""
"null","sound/msl/clock.wav","null","audio-keyboard-response","76","45836","0.0-1.0-75.0","",""
"null","sound/msl/bird.wav","null","audio-keyboard-response","77","46344","0.0-1.0-76.0","",""
"null","sound/msl/slide_whistle.wav","null","audio-keyboard-response","78","46854","0.0-1.0-77.0","",""
"null","sound/msl/door.wav","null","audio-keyboard-response","79","47366","0.0-1.0-78.0","",""
"null","sound/msl/frog.wav","null","audio-keyboard-response","80","47876","0.0-1.0-79.0","",""
"null","sound/msl/Water.wav","null","audio-keyboard-response","81","48396","0.0-1.0-80.0","",""
"null","sound/msl/boing.wav","null","audio-keyboard-response","82","48906","0.0-1.0-81.0","",""
"null","sound/msl/cat.wav","null","audio-keyboard-response","83","49414","0.0-1.0-82.0","",""
"null","sound/msl/duck.wav","null","audio-keyboard-response","84","49934","0.0-1.0-83.0","",""
"null","sound/msl/door_bell.wav","null","audio-keyboard-response","85","50456","0.0-1.0-84.0","",""
"null","sound/msl/goat.wav","null","audio-keyboard-response","86","50996","0.0-1.0-85.0","",""
"null","sound/msl/ding.wav","null","audio-keyboard-response","87","51516","0.0-1.0-86.0","",""
"null","sound/msl/dog.wav","null","audio-keyboard-response","88","52036","0.0-1.0-87.0","",""
"null","sound/msl/cow.wav","null","audio-keyboard-response","89","52544","0.0-1.0-88.0","",""
"null","sound/msl/organ.wav","null","audio-keyboard-response","90","53054","0.0-1.0-89.0","",""
"null","sound/msl/boing.wav","null","audio-keyboard-response","91","53566","0.0-1.0-90.0","",""
"null","sound/msl/cat.wav","null","audio-keyboard-response","92","54076","0.0-1.0-91.0","",""
"null","sound/msl/duck.wav","null","audio-keyboard-response","93","54596","0.0-1.0-92.0","",""
"null","sound/msl/clock.wav","null","audio-keyboard-response","94","55156","0.0-1.0-93.0","",""
"null","sound/msl/bird.wav","null","audio-keyboard-response","95","55666","0.0-1.0-94.0","",""
"null","sound/msl/slide_whistle.wav","null","audio-keyboard-response","96","56176","0.0-1.0-95.0","",""
"null","sound/msl/door.wav","null","audio-keyboard-response","97","56686","0.0-1.0-96.0","",""
"null","sound/msl/frog.wav","null","audio-keyboard-response","98","57196","0.0-1.0-97.0","",""
"null","sound/msl/Water.wav","null","audio-keyboard-response","99","57716","0.0-1.0-98.0","",""
"null","sound/msl/dog.wav","null","audio-keyboard-response","100","58226","0.0-1.0-99.0","",""
"null","sound/msl/cow.wav","null","audio-keyboard-response","101","58748","0.0-1.0-100.0","",""
"null","sound/msl/organ.wav","null","audio-keyboard-response","102","59256","0.0-1.0-101.0","",""
"null","sound/msl/boing.wav","null","audio-keyboard-response","103","59766","0.0-1.0-102.0","",""
"null","sound/msl/cat.wav","null","audio-keyboard-response","104","60274","0.0-1.0-103.0","",""
"null","sound/msl/duck.wav","null","audio-keyboard-response","105","60786","0.0-1.0-104.0","",""
"null","sound/msl/door_bell.wav","null","audio-keyboard-response","106","61306","0.0-1.0-105.0","",""
"null","sound/msl/goat.wav","null","audio-keyboard-response","107","61844","0.0-1.0-106.0","",""
"null","sound/msl/ding.wav","null","audio-keyboard-response","108","62366","0.0-1.0-107.0","",""
"null","sound/msl/dog.wav","null","audio-keyboard-response","109","62876","0.0-1.0-108.0","",""
"null","sound/msl/cow.wav","null","audio-keyboard-response","110","63396","0.0-1.0-109.0","",""
"null","sound/msl/organ.wav","null","audio-keyboard-response","111","63906","0.0-1.0-110.0","",""
"null","sound/msl/clock.wav","null","audio-keyboard-response","112","64466","0.0-1.0-111.0","",""
"null","sound/msl/bird.wav","null","audio-keyboard-response","113","64986","0.0-1.0-112.0","",""
"null","sound/msl/slide_whistle.wav","null","audio-keyboard-response","114","65496","0.0-1.0-113.0","",""
"null","sound/msl/boing.wav","null","audio-keyboard-response","115","66006","0.0-1.0-114.0","",""
"null","sound/msl/cat.wav","null","audio-keyboard-response","116","66518","0.0-1.0-115.0","",""
"null","sound/msl/duck.wav","null","audio-keyboard-response","117","67036","0.0-1.0-116.0","",""
"null","sound/msl/door.wav","null","audio-keyboard-response","118","67546","0.0-1.0-117.0","",""
"null","sound/msl/frog.wav","null","audio-keyboard-response","119","68066","0.0-1.0-118.0","",""
"null","sound/msl/Water.wav","null","audio-keyboard-response","120","68586","0.0-1.0-119.0","",""
"null","sound/msl/door_bell.wav","null","audio-keyboard-response","121","69096","0.0-1.0-120.0","",""
"null","sound/msl/goat.wav","null","audio-keyboard-response","122","69634","0.0-1.0-121.0","",""
"null","sound/msl/ding.wav","null","audio-keyboard-response","123","70156","0.0-1.0-122.0","",""
"null","sound/msl/dog.wav","null","audio-keyboard-response","124","70666","0.0-1.0-123.0","",""
"null","sound/msl/cow.wav","null","audio-keyboard-response","125","71186","0.0-1.0-124.0","",""
"null","sound/msl/organ.wav","null","audio-keyboard-response","126","71696","0.0-1.0-125.0","",""
"null","sound/msl/boing.wav","null","audio-keyboard-response","127","72204","0.0-1.0-126.0","",""
"null","sound/msl/cat.wav","null","audio-keyboard-response","128","72716","0.0-1.0-127.0","",""
"null","sound/msl/duck.wav","null","audio-keyboard-response","129","73226","0.0-1.0-128.0","",""
"null","sound/msl/clock.wav","null","audio-keyboard-response","130","73786","0.0-1.0-129.0","",""
"null","sound/msl/bird.wav","null","audio-keyboard-response","131","74306","0.0-1.0-130.0","",""
"null","sound/msl/slide_whistle.wav","null","audio-keyboard-response","132","74816","0.0-1.0-131.0","",""
"null","sound/msl/dog.wav","null","audio-keyboard-response","133","75336","0.0-1.0-132.0","",""
"null","sound/msl/cow.wav","null","audio-keyboard-response","134","75856","0.0-1.0-133.0","",""
"null","sound/msl/organ.wav","null","audio-keyboard-response","135","76364","0.0-1.0-134.0","",""
"null","sound/msl/door.wav","null","audio-keyboard-response","136","76876","0.0-1.0-135.0","",""
"null","sound/msl/frog.wav","null","audio-keyboard-response","137","77396","0.0-1.0-136.0","",""
"null","sound/msl/Water.wav","null","audio-keyboard-response","138","77916","0.0-1.0-137.0","",""
"null","sound/msl/clock.wav","null","audio-keyboard-response","139","78476","0.0-1.0-138.0","",""
"null","sound/msl/bird.wav","null","audio-keyboard-response","140","78994","0.0-1.0-139.0","",""
"null","sound/msl/slide_whistle.wav","null","audio-keyboard-response","141","79504","0.0-1.0-140.0","",""
"null","sound/msl/door_bell.wav","null","audio-keyboard-response","142","80024","0.0-1.0-141.0","",""
"null","sound/msl/goat.wav","null","audio-keyboard-response","143","80576","0.0-1.0-142.0","",""
"null","sound/msl/ding.wav","null","audio-keyboard-response","144","81086","0.0-1.0-143.0","",""
"null","sound/msl/boing.wav","null","audio-keyboard-response","145","81594","0.0-1.0-144.0","",""
"null","sound/msl/cat.wav","null","audio-keyboard-response","146","82106","0.0-1.0-145.0","",""
"null","sound/msl/duck.wav","null","audio-keyboard-response","147","82616","0.0-1.0-146.0","",""
"null","sound/msl/door.wav","null","audio-keyboard-response","148","83126","0.0-1.0-147.0","",""
"null","sound/msl/frog.wav","null","audio-keyboard-response","149","83646","0.0-1.0-148.0","",""
"null","sound/msl/Water.wav","null","audio-keyboard-response","150","84166","0.0-1.0-149.0","",""
"null","sound/msl/door_bell.wav","null","audio-keyboard-response","151","84686","0.0-1.0-150.0","",""
"null","sound/msl/goat.wav","null","audio-keyboard-response","152","85224","0.0-1.0-151.0","",""
"null","sound/msl/ding.wav","null","audio-keyboard-response","153","85734","0.0-1.0-152.0","",""
"null","sound/msl/dog.wav","null","audio-keyboard-response","154","86256","0.0-1.0-153.0","",""
"null","sound/msl/cow.wav","null","audio-keyboard-response","155","86776","0.0-1.0-154.0","",""
"null","sound/msl/organ.wav","null","audio-keyboard-response","156","87286","0.0-1.0-155.0","",""
"null","sound/msl/clock.wav","null","audio-keyboard-response","157","87846","0.0-1.0-156.0","",""
"null","sound/msl/bird.wav","null","audio-keyboard-response","158","88366","0.0-1.0-157.0","",""
"null","sound/msl/slide_whistle.wav","null","audio-keyboard-response","159","88876","0.0-1.0-158.0","",""
"null","sound/msl/boing.wav","null","audio-keyboard-response","160","89384","0.0-1.0-159.0","",""
"null","sound/msl/cat.wav","null","audio-keyboard-response","161","89896","0.0-1.0-160.0","",""
"null","sound/msl/duck.wav","null","audio-keyboard-response","162","90406","0.0-1.0-161.0","",""
"null","sound/msl/dog.wav","null","audio-keyboard-response","163","90926","0.0-1.0-162.0","",""
"null","sound/msl/cow.wav","null","audio-keyboard-response","164","91446","0.0-1.0-163.0","",""
"null","sound/msl/organ.wav","null","audio-keyboard-response","165","91956","0.0-1.0-164.0","",""
"null","sound/msl/clock.wav","null","audio-keyboard-response","166","92516","0.0-1.0-165.0","",""
"null","sound/msl/bird.wav","null","audio-keyboard-response","167","93036","0.0-1.0-166.0","",""
"null","sound/msl/slide_whistle.wav","null","audio-keyboard-response","168","93544","0.0-1.0-167.0","",""
"null","sound/msl/door_bell.wav","null","audio-keyboard-response","169","94066","0.0-1.0-168.0","",""
"null","sound/msl/goat.wav","null","audio-keyboard-response","170","94604","0.0-1.0-169.0","",""
"null","sound/msl/ding.wav","null","audio-keyboard-response","171","95126","0.0-1.0-170.0","",""
"null","sound/msl/door.wav","null","audio-keyboard-response","172","95634","0.0-1.0-171.0","",""
"null","sound/msl/frog.wav","null","audio-keyboard-response","173","96156","0.0-1.0-172.0","",""
"null","sound/msl/Water.wav","null","audio-keyboard-response","174","96676","0.0-1.0-173.0","",""
"null","sound/msl/boing.wav","null","audio-keyboard-response","175","97186","0.0-1.0-174.0","",""
"null","sound/msl/cat.wav","null","audio-keyboard-response","176","97696","0.0-1.0-175.0","",""
"null","sound/msl/duck.wav","null","audio-keyboard-response","177","98216","0.0-1.0-176.0","",""
"null","sound/msl/dog.wav","null","audio-keyboard-response","178","98736","0.0-1.0-177.0","",""
"null","sound/msl/cow.wav","null","audio-keyboard-response","179","99256","0.0-1.0-178.0","",""
"null","sound/msl/organ.wav","null","audio-keyboard-response","180","99766","0.0-1.0-179.0","",""
"null","sound/msl/door.wav","null","audio-keyboard-response","181","100274","0.0-1.0-180.0","",""
"null","sound/msl/frog.wav","null","audio-keyboard-response","182","100796","0.0-1.0-181.0","",""
"null","sound/msl/Water.wav","null","audio-keyboard-response","183","101320","0.0-1.0-182.0","",""
"null","sound/msl/clock.wav","null","audio-keyboard-response","184","101876","0.0-1.0-183.0","",""
"null","sound/msl/bird.wav","null","audio-keyboard-response","185","102396","0.0-1.0-184.0","",""
"null","sound/msl/slide_whistle.wav","null","audio-keyboard-response","186","102906","0.0-1.0-185.0","",""
"null","sound/msl/door_bell.wav","null","audio-keyboard-response","187","103428","0.0-1.0-186.0","",""
"null","sound/msl/goat.wav","null","audio-keyboard-response","188","103976","0.0-1.0-187.0","",""
"null","sound/msl/ding.wav","null","audio-keyboard-response","189","104488","0.0-1.0-188.0","",""
"null","sound/msl/boing.wav","null","audio-keyboard-response","190","104996","0.0-1.0-189.0","",""
"null","sound/msl/cat.wav","null","audio-keyboard-response","191","105506","0.0-1.0-190.0","",""
"null","sound/msl/duck.wav","null","audio-keyboard-response","192","106016","0.0-1.0-191.0","",""
"null","sound/msl/dog.wav","null","audio-keyboard-response","193","106536","0.0-1.0-192.0","",""
"null","sound/msl/cow.wav","null","audio-keyboard-response","194","107046","0.0-1.0-193.0","",""
"null","sound/msl/organ.wav","null","audio-keyboard-response","195","107556","0.0-1.0-194.0","",""
"null","sound/msl/door.wav","null","audio-keyboard-response","196","108066","0.0-1.0-195.0","",""
"null","sound/msl/frog.wav","null","audio-keyboard-response","197","108576","0.0-1.0-196.0","",""
"null","sound/msl/Water.wav","null","audio-keyboard-response","198","109094","0.0-1.0-197.0","",""
"null","sound/msl/door_bell.wav","null","audio-keyboard-response","199","109606","0.0-1.0-198.0","",""
"null","sound/msl/goat.wav","null","audio-keyboard-response","200","110146","0.0-1.0-199.0","",""
"null","sound/msl/ding.wav","null","audio-keyboard-response","201","110666","0.0-1.0-200.0","",""
"null","sound/msl/clock.wav","null","audio-keyboard-response","202","111226","0.0-1.0-201.0","",""
"null","sound/msl/bird.wav","null","audio-keyboard-response","203","111746","0.0-1.0-202.0","",""
"null","sound/msl/slide_whistle.wav","null","audio-keyboard-response","204","112254","0.0-1.0-203.0","",""
"null","sound/msl/boing.wav","null","audio-keyboard-response","205","112766","0.0-1.0-204.0","",""
"null","sound/msl/cat.wav","null","audio-keyboard-response","206","113274","0.0-1.0-205.0","",""
"null","sound/msl/duck.wav","null","audio-keyboard-response","207","113784","0.0-1.0-206.0","",""
"null","sound/msl/dog.wav","null","audio-keyboard-response","208","114306","0.0-1.0-207.0","",""
"null","sound/msl/cow.wav","null","audio-keyboard-response","209","114816","0.0-1.0-208.0","",""
"null","sound/msl/organ.wav","null","audio-keyboard-response","210","115324","0.0-1.0-209.0","",""
"null","sound/msl/door_bell.wav","null","audio-keyboard-response","211","115846","0.0-1.0-210.0","",""
"null","sound/msl/goat.wav","null","audio-keyboard-response","212","116386","0.0-1.0-211.0","",""
"null","sound/msl/ding.wav","null","audio-keyboard-response","213","116906","0.0-1.0-212.0","",""
"null","sound/msl/boing.wav","null","audio-keyboard-response","214","117416","0.0-1.0-213.0","",""
"null","sound/msl/cat.wav","null","audio-keyboard-response","215","117924","0.0-1.0-214.0","",""
"null","sound/msl/duck.wav","null","audio-keyboard-response","216","118446","0.0-1.0-215.0","",""
"null","sound/msl/door.wav","null","audio-keyboard-response","217","118956","0.0-1.0-216.0","",""
"null","sound/msl/frog.wav","null","audio-keyboard-response","218","119466","0.0-1.0-217.0","",""
"null","sound/msl/Water.wav","null","audio-keyboard-response","219","119984","0.0-1.0-218.0","",""
"null","sound/msl/clock.wav","null","audio-keyboard-response","220","120546","0.0-1.0-219.0","",""
"null","sound/msl/bird.wav","null","audio-keyboard-response","221","121066","0.0-1.0-220.0","",""
"null","sound/msl/slide_whistle.wav","null","audio-keyboard-response","222","121576","0.0-1.0-221.0","",""
"null","sound/msl/dog.wav","null","audio-keyboard-response","223","122094","0.0-1.0-222.0","",""
"null","sound/msl/cow.wav","null","audio-keyboard-response","224","122616","0.0-1.0-223.0","",""
"null","sound/msl/organ.wav","null","audio-keyboard-response","225","123126","0.0-1.0-224.0","",""
"null","sound/msl/door.wav","null","audio-keyboard-response","226","123636","0.0-1.0-225.0","",""
"null","sound/msl/frog.wav","null","audio-keyboard-response","227","124156","0.0-1.0-226.0","",""
"null","sound/msl/Water.wav","null","audio-keyboard-response","228","124676","0.0-1.0-227.0","",""
"null","sound/msl/boing.wav","null","audio-keyboard-response","229","125186","0.0-1.0-228.0","",""
"null","sound/msl/cat.wav","null","audio-keyboard-response","230","125696","0.0-1.0-229.0","",""
"null","sound/msl/duck.wav","null","audio-keyboard-response","231","126216","0.0-1.0-230.0","",""
"null","sound/msl/door.wav","null","audio-keyboard-response","232","126726","0.0-1.0-231.0","",""
"null","sound/msl/frog.wav","null","audio-keyboard-response","233","127236","0.0-1.0-232.0","",""
"null","sound/msl/Water.wav","null","audio-keyboard-response","234","127754","0.0-1.0-233.0","",""
"null","sound/msl/dog.wav","null","audio-keyboard-response","235","128264","0.0-1.0-234.0","",""
"null","sound/msl/cow.wav","null","audio-keyboard-response","236","128786","0.0-1.0-235.0","",""
"null","sound/msl/organ.wav","null","audio-keyboard-response","237","129296","0.0-1.0-236.0","",""
"null","sound/msl/clock.wav","null","audio-keyboard-response","238","129854","0.0-1.0-237.0","",""
"null","sound/msl/bird.wav","null","audio-keyboard-response","239","130376","0.0-1.0-238.0","",""
"null","sound/msl/slide_whistle.wav","null","audio-keyboard-response","240","130890","0.0-1.0-239.0","",""
"null","sound/msl/door_bell.wav","null","audio-keyboard-response","241","131404","0.0-1.0-240.0","",""
"null","sound/msl/goat.wav","null","audio-keyboard-response","242","131956","0.0-1.0-241.0","",""
"null","sound/msl/ding.wav","null","audio-keyboard-response","243","132468","0.0-1.0-242.0","",""
"null","sound/msl/boing.wav","null","audio-keyboard-response","244","132976","0.0-1.0-243.0","",""
"null","sound/msl/cat.wav","null","audio-keyboard-response","245","133486","0.0-1.0-244.0","",""
"null","sound/msl/duck.wav","null","audio-keyboard-response","246","133996","0.0-1.0-245.0","",""
"null","sound/msl/dog.wav","null","audio-keyboard-response","247","134516","0.0-1.0-246.0","",""
"null","sound/msl/cow.wav","null","audio-keyboard-response","248","135026","0.0-1.0-247.0","",""
"null","sound/msl/organ.wav","null","audio-keyboard-response","249","135536","0.0-1.0-248.0","",""
"null","sound/msl/clock.wav","null","audio-keyboard-response","250","136096","0.0-1.0-249.0","",""
"null","sound/msl/bird.wav","null","audio-keyboard-response","251","136616","0.0-1.0-250.0","",""
"null","sound/msl/slide_whistle.wav","null","audio-keyboard-response","252","137126","0.0-1.0-251.0","",""
"null","sound/msl/door_bell.wav","null","audio-keyboard-response","253","137646","0.0-1.0-252.0","",""
"null","sound/msl/goat.wav","null","audio-keyboard-response","254","138196","0.0-1.0-253.0","",""
"null","sound/msl/ding.wav","null","audio-keyboard-response","255","138714","0.0-1.0-254.0","",""
"null","sound/msl/door.wav","null","audio-keyboard-response","256","139226","0.0-1.0-255.0","",""
"null","sound/msl/frog.wav","null","audio-keyboard-response","257","139746","0.0-1.0-256.0","",""
"null","sound/msl/Water.wav","null","audio-keyboard-response","258","140266","0.0-1.0-257.0","",""
"null","sound/msl/boing.wav","null","audio-keyboard-response","259","140776","0.0-1.0-258.0","",""
"null","sound/msl/cat.wav","null","audio-keyboard-response","260","141286","0.0-1.0-259.0","",""
"null","sound/msl/duck.wav","null","audio-keyboard-response","261","141806","0.0-1.0-260.0","",""
"null","sound/msl/door_bell.wav","null","audio-keyboard-response","262","142326","0.0-1.0-261.0","",""
"null","sound/msl/goat.wav","null","audio-keyboard-response","263","142866","0.0-1.0-262.0","",""
"null","sound/msl/ding.wav","null","audio-keyboard-response","264","143386","0.0-1.0-263.0","",""
"null","sound/msl/clock.wav","null","audio-keyboard-response","265","143946","0.0-1.0-264.0","",""
"null","sound/msl/bird.wav","null","audio-keyboard-response","266","144456","0.0-1.0-265.0","",""
"null","sound/msl/slide_whistle.wav","null","audio-keyboard-response","267","144966","0.0-1.0-266.0","",""
"null","sound/msl/door.wav","null","audio-keyboard-response","268","145476","0.0-1.0-267.0","",""
"null","sound/msl/frog.wav","null","audio-keyboard-response","269","145986","0.0-1.0-268.0","",""
"null","sound/msl/Water.wav","null","audio-keyboard-response","270","146506","0.0-1.0-269.0","",""
"null","sound/msl/dog.wav","null","audio-keyboard-response","271","147014","0.0-1.0-270.0","",""
"null","sound/msl/cow.wav","null","audio-keyboard-response","272","147536","0.0-1.0-271.0","",""
"null","sound/msl/organ.wav","null","audio-keyboard-response","273","148046","0.0-1.0-272.0","",""
"null","sound/msl/boing.wav","null","audio-keyboard-response","274","148554","0.0-1.0-273.0","",""
"null","sound/msl/cat.wav","null","audio-keyboard-response","275","149066","0.0-1.0-274.0","",""
"null","sound/msl/duck.wav","null","audio-keyboard-response","276","149574","0.0-1.0-275.0","",""
"null","sound/msl/door_bell.wav","null","audio-keyboard-response","277","150096","0.0-1.0-276.0","",""
"null","sound/msl/goat.wav","null","audio-keyboard-response","278","150636","0.0-1.0-277.0","",""
"null","sound/msl/ding.wav","null","audio-keyboard-response","279","151156","0.0-1.0-278.0","",""
"null","sound/msl/clock.wav","null","audio-keyboard-response","280","151716","0.0-1.0-279.0","",""
"null","sound/msl/bird.wav","null","audio-keyboard-response","281","152224","0.0-1.0-280.0","",""
"null","sound/msl/slide_whistle.wav","null","audio-keyboard-response","282","152734","0.0-1.0-281.0","",""
"null","sound/msl/dog.wav","null","audio-keyboard-response","283","153256","0.0-1.0-282.0","",""
"null","sound/msl/cow.wav","null","audio-keyboard-response","284","153776","0.0-1.0-283.0","",""
"null","sound/msl/organ.wav","null","audio-keyboard-response","285","154284","0.0-1.0-284.0","",""
"null","sound/msl/door.wav","null","audio-keyboard-response","286","154796","0.0-1.0-285.0","",""
"null","sound/msl/frog.wav","null","audio-keyboard-response","287","155306","0.0-1.0-286.0","",""
"null","sound/msl/Water.wav","null","audio-keyboard-response","288","155828","0.0-1.0-287.0","",""
"null","sound/msl/boing.wav","null","audio-keyboard-response","289","156336","0.0-1.0-288.0","",""
"null","sound/msl/cat.wav","null","audio-keyboard-response","290","156846","0.0-1.0-289.0","",""
"null","sound/msl/duck.wav","null","audio-keyboard-response","291","157366","0.0-1.0-290.0","",""
"null","sound/msl/clock.wav","null","audio-keyboard-response","292","157926","0.0-1.0-291.0","",""
"null","sound/msl/bird.wav","null","audio-keyboard-response","293","158446","0.0-1.0-292.0","",""
"null","sound/msl/slide_whistle.wav","null","audio-keyboard-response","294","158956","0.0-1.0-293.0","",""
"null","sound/msl/door_bell.wav","null","audio-keyboard-response","295","159476","0.0-1.0-294.0","",""
"null","sound/msl/goat.wav","null","audio-keyboard-response","296","160026","0.0-1.0-295.0","",""
"null","sound/msl/ding.wav","null","audio-keyboard-response","297","160534","0.0-1.0-296.0","",""
"null","sound/msl/boing.wav","null","audio-keyboard-response","298","161044","0.0-1.0-297.0","",""
"null","sound/msl/cat.wav","null","audio-keyboard-response","299","161554","0.0-1.0-298.0","",""
"null","sound/msl/duck.wav","null","audio-keyboard-response","300","162064","0.0-1.0-299.0","",""
"null","sound/msl/dog.wav","null","audio-keyboard-response","301","162586","0.0-1.0-300.0","",""
"null","sound/msl/cow.wav","null","audio-keyboard-response","302","163096","0.0-1.0-301.0","",""
"null","sound/msl/organ.wav","null","audio-keyboard-response","303","163606","0.0-1.0-302.0","",""
"null","sound/msl/clock.wav","null","audio-keyboard-response","304","164176","0.0-1.0-303.0","",""
"null","sound/msl/bird.wav","null","audio-keyboard-response","305","164694","0.0-1.0-304.0","",""
"null","sound/msl/slide_whistle.wav","null","audio-keyboard-response","306","165204","0.0-1.0-305.0","",""
"null","sound/msl/door.wav","null","audio-keyboard-response","307","165734","0.0-1.0-306.0","",""
"null","sound/msl/frog.wav","null","audio-keyboard-response","308","166256","0.0-1.0-307.0","",""
"null","sound/msl/Water.wav","null","audio-keyboard-response","309","166774","0.0-1.0-308.0","",""
"null","sound/msl/door_bell.wav","null","audio-keyboard-response","310","167296","0.0-1.0-309.0","",""
"null","sound/msl/goat.wav","null","audio-keyboard-response","311","167836","0.0-1.0-310.0","",""
"null","sound/msl/ding.wav","null","audio-keyboard-response","312","168356","0.0-1.0-311.0","",""
"null","sound/msl/boing.wav","null","audio-keyboard-response","313","168866","0.0-1.0-312.0","",""
"null","sound/msl/cat.wav","null","audio-keyboard-response","314","169376","0.0-1.0-313.0","",""
"null","sound/msl/duck.wav","null","audio-keyboard-response","315","169896","0.0-1.0-314.0","",""
"null","sound/msl/dog.wav","null","audio-keyboard-response","316","170416","0.0-1.0-315.0","",""
"null","sound/msl/cow.wav","null","audio-keyboard-response","317","170936","0.0-1.0-316.0","",""
"null","sound/msl/organ.wav","null","audio-keyboard-response","318","171444","0.0-1.0-317.0","",""
"null","sound/msl/clock.wav","null","audio-keyboard-response","319","172006","0.0-1.0-318.0","",""
"null","sound/msl/bird.wav","null","audio-keyboard-response","320","172526","0.0-1.0-319.0","",""
"null","sound/msl/slide_whistle.wav","null","audio-keyboard-response","321","173036","0.0-1.0-320.0","",""
"null","sound/msl/door_bell.wav","null","audio-keyboard-response","322","173556","0.0-1.0-321.0","",""
"null","sound/msl/goat.wav","null","audio-keyboard-response","323","174106","0.0-1.0-322.0","",""
"null","sound/msl/ding.wav","null","audio-keyboard-response","324","174616","0.0-1.0-323.0","",""
"null","sound/msl/dog.wav","null","audio-keyboard-response","325","175136","0.0-1.0-324.0","",""
"null","sound/msl/cow.wav","null","audio-keyboard-response","326","175656","0.0-1.0-325.0","",""
"null","sound/msl/organ.wav","null","audio-keyboard-response","327","176166","0.0-1.0-326.0","",""
"null","sound/msl/door.wav","null","audio-keyboard-response","328","176676","0.0-1.0-327.0","",""
"null","sound/msl/frog.wav","null","audio-keyboard-response","329","177196","0.0-1.0-328.0","",""
"null","sound/msl/Water.wav","null","audio-keyboard-response","330","177716","0.0-1.0-329.0","",""
"null","sound/msl/boing.wav","null","audio-keyboard-response","331","178226","0.0-1.0-330.0","",""
"null","sound/msl/cat.wav","null","audio-keyboard-response","332","178734","0.0-1.0-331.0","",""
"null","sound/msl/duck.wav","null","audio-keyboard-response","333","179246","0.0-1.0-332.0","",""
"null","sound/msl/clock.wav","null","audio-keyboard-response","334","179806","0.0-1.0-333.0","",""
"null","sound/msl/bird.wav","null","audio-keyboard-response","335","180326","0.0-1.0-334.0","",""
"null","sound/msl/slide_whistle.wav","null","audio-keyboard-response","336","180836","0.0-1.0-335.0","",""
"null","sound/msl/door.wav","null","audio-keyboard-response","337","181346","0.0-1.0-336.0","",""
"null","sound/msl/frog.wav","null","audio-keyboard-response","338","181866","0.0-1.0-337.0","",""
"null","sound/msl/Water.wav","null","audio-keyboard-response","339","182386","0.0-1.0-338.0","",""
"null","sound/msl/door_bell.wav","null","audio-keyboard-response","340","182906","0.0-1.0-339.0","",""
"null","sound/msl/goat.wav","null","audio-keyboard-response","341","183446","0.0-1.0-340.0","",""
"null","sound/msl/ding.wav","null","audio-keyboard-response","342","183966","0.0-1.0-341.0","",""
"null","sound/msl/clock.wav","null","audio-keyboard-response","343","184526","0.0-1.0-342.0","",""
"null","sound/msl/bird.wav","null","audio-keyboard-response","344","185036","0.0-1.0-343.0","",""
"null","sound/msl/slide_whistle.wav","null","audio-keyboard-response","345","185546","0.0-1.0-344.0","",""
"null","sound/msl/door_bell.wav","null","audio-keyboard-response","346","186066","0.0-1.0-345.0","",""
"null","sound/msl/goat.wav","null","audio-keyboard-response","347","186616","0.0-1.0-346.0","",""
"null","sound/msl/ding.wav","null","audio-keyboard-response","348","187124","0.0-1.0-347.0","",""
"null","sound/msl/door.wav","null","audio-keyboard-response","349","187636","0.0-1.0-348.0","",""
"null","sound/msl/frog.wav","null","audio-keyboard-response","350","188156","0.0-1.0-349.0","",""
"null","sound/msl/Water.wav","null","audio-keyboard-response","351","188676","0.0-1.0-350.0","",""
"null","sound/msl/boing.wav","null","audio-keyboard-response","352","189184","0.0-1.0-351.0","",""
"null","sound/msl/cat.wav","null","audio-keyboard-response","353","189696","0.0-1.0-352.0","",""
"null","sound/msl/duck.wav","null","audio-keyboard-response","354","190216","0.0-1.0-353.0","",""
"null","sound/msl/clock.wav","null","audio-keyboard-response","355","190776","0.0-1.0-354.0","",""
"null","sound/msl/bird.wav","null","audio-keyboard-response","356","191298","0.0-1.0-355.0","",""
"null","sound/msl/slide_whistle.wav","null","audio-keyboard-response","357","191806","0.0-1.0-356.0","",""
"null","sound/msl/door_bell.wav","null","audio-keyboard-response","358","192326","0.0-1.0-357.0","",""
"null","sound/msl/goat.wav","null","audio-keyboard-response","359","192876","0.0-1.0-358.0","",""
"null","sound/msl/ding.wav","null","audio-keyboard-response","360","193396","0.0-1.0-359.0","",""
"13834","Instructions2-eng.png","49","image-keyboard-response","361","207234","0.0-2.0","",""
"null","sound/msl/dog.wav","null","audio-keyboard-response","362","207756","0.0-3.0-0.0","",""
"null","sound/msl/cow.wav","null","audio-keyboard-response","363","208276","0.0-3.0-1.0","",""
"null","sound/msl/organ.wav","null","audio-keyboard-response","364","208786","0.0-3.0-2.0","",""
"null","sound/asl/silence.wav","null","audio-keyboard-response","365","209290","0.0-3.0-3.0","",""
"null","sound/msl/door.wav","null","audio-keyboard-response","366","209796","0.0-3.0-4.0","",""
"null","sound/msl/bird.wav","null","audio-keyboard-response","367","210314","0.0-3.0-5.0","",""
"null","sound/msl/duck.wav","null","audio-keyboard-response","368","210836","0.0-3.0-6.0","",""
"432","sound/asl/silence.wav","49","audio-keyboard-response","369","211266","0.0-3.0-7.0","true",""
"null","sound/msl/door_bell.wav","null","audio-keyboard-response","370","211786","0.0-4.0-0.0","",""
"null","sound/msl/cow.wav","null","audio-keyboard-response","371","212296","0.0-4.0-1.0","",""
"null","sound/msl/Water.wav","null","audio-keyboard-response","372","212816","0.0-4.0-2.0","",""
"null","sound/asl/silence.wav","null","audio-keyboard-response","373","213318","0.0-4.0-3.0","",""
"null","sound/msl/boing.wav","null","audio-keyboard-response","374","213826","0.0-4.0-4.0","",""
"null","sound/msl/cat.wav","null","audio-keyboard-response","375","214334","0.0-4.0-5.0","",""
"null","sound/msl/duck.wav","null","audio-keyboard-response","376","214854","0.0-4.0-6.0","",""
"500","sound/asl/silence.wav","50","audio-keyboard-response","377","215358","0.0-4.0-7.0","true",""
"null","sound/msl/door_bell.wav","null","audio-keyboard-response","378","215876","0.0-5.0-0.0","",""
"null","sound/msl/goat.wav","null","audio-keyboard-response","379","216416","0.0-5.0-1.0","",""
"null","sound/msl/ding.wav","null","audio-keyboard-response","380","216926","0.0-5.0-2.0","",""
"null","sound/asl/silence.wav","null","audio-keyboard-response","381","217428","0.0-5.0-3.0","",""
"null","sound/msl/clock.wav","null","audio-keyboard-response","382","217986","0.0-5.0-4.0","",""
"null","sound/msl/cat.wav","null","audio-keyboard-response","383","218496","0.0-5.0-5.0","",""
"null","sound/msl/ding.wav","null","audio-keyboard-response","384","219014","0.0-5.0-6.0","",""
"540","sound/asl/silence.wav","49","audio-keyboard-response","385","219562","0.0-5.0-7.0","true",""
"null","sound/msl/clock.wav","null","audio-keyboard-response","386","220114","0.0-6.0-0.0","",""
"null","sound/msl/bird.wav","null","audio-keyboard-response","387","220636","0.0-6.0-1.0","",""
"null","sound/msl/slide_whistle.wav","null","audio-keyboard-response","388","221146","0.0-6.0-2.0","",""
"null","sound/asl/silence.wav","null","audio-keyboard-response","389","221648","0.0-6.0-3.0","",""
"null","sound/msl/boing.wav","null","audio-keyboard-response","390","222156","0.0-6.0-4.0","",""
"null","sound/msl/goat.wav","null","audio-keyboard-response","391","222696","0.0-6.0-5.0","",""
"null","sound/msl/organ.wav","null","audio-keyboard-response","392","223206","0.0-6.0-6.0","",""
"360","sound/asl/silence.wav","50","audio-keyboard-response","393","223568","0.0-6.0-7.0","false",""
"null","sound/msl/boing.wav","null","audio-keyboard-response","394","224076","0.0-7.0-0.0","",""
"null","sound/msl/cat.wav","null","audio-keyboard-response","395","224584","0.0-7.0-1.0","",""
"null","sound/msl/duck.wav","null","audio-keyboard-response","396","225096","0.0-7.0-2.0","",""
"null","sound/asl/silence.wav","null","audio-keyboard-response","397","225598","0.0-7.0-3.0","",""
"null","sound/msl/clock.wav","null","audio-keyboard-response","398","226156","0.0-7.0-4.0","",""
"null","sound/msl/cat.wav","null","audio-keyboard-response","399","226666","0.0-7.0-5.0","",""
"null","sound/msl/ding.wav","null","audio-keyboard-response","400","227186","0.0-7.0-6.0","",""
"810","sound/asl/silence.wav","50","audio-keyboard-response","401","228004","0.0-7.0-7.0","false",""
"null","sound/msl/boing.wav","null","audio-keyboard-response","402","228516","0.0-8.0-0.0","",""
"null","sound/msl/cat.wav","null","audio-keyboard-response","403","229026","0.0-8.0-1.0","",""
"null","sound/msl/duck.wav","null","audio-keyboard-response","404","229546","0.0-8.0-2.0","",""
"null","sound/asl/silence.wav","null","audio-keyboard-response","405","230048","0.0-8.0-3.0","",""
"null","sound/msl/boing.wav","null","audio-keyboard-response","406","230556","0.0-8.0-4.0","",""
"null","sound/msl/goat.wav","null","audio-keyboard-response","407","231096","0.0-8.0-5.0","",""
"null","sound/msl/organ.wav","null","audio-keyboard-response","408","231606","0.0-8.0-6.0","",""
"342","sound/asl/silence.wav","49","audio-keyboard-response","409","231952","0.0-8.0-7.0","true",""
"null","sound/msl/door_bell.wav","null","audio-keyboard-response","410","232466","0.0-9.0-0.0","",""
"null","sound/msl/cow.wav","null","audio-keyboard-response","411","232986","0.0-9.0-1.0","",""
"null","sound/msl/Water.wav","null","audio-keyboard-response","412","233508","0.0-9.0-2.0","",""
"null","sound/asl/silence.wav","null","audio-keyboard-response","413","234008","0.0-9.0-3.0","",""
"null","sound/msl/clock.wav","null","audio-keyboard-response","414","234566","0.0-9.0-4.0","",""
"null","sound/msl/bird.wav","null","audio-keyboard-response","415","235086","0.0-9.0-5.0","",""
"null","sound/msl/slide_whistle.wav","null","audio-keyboard-response","416","235596","0.0-9.0-6.0","",""
"422","sound/asl/silence.wav","49","audio-keyboard-response","417","236022","0.0-9.0-7.0","false",""
"null","sound/msl/door_bell.wav","null","audio-keyboard-response","418","236536","0.0-10.0-0.0","",""
"null","sound/msl/goat.wav","null","audio-keyboard-response","419","237074","0.0-10.0-1.0","",""
"null","sound/msl/ding.wav","null","audio-keyboard-response","420","237586","0.0-10.0-2.0","",""
"null","sound/asl/silence.wav","null","audio-keyboard-response","421","238086","0.0-10.0-3.0","",""
"null","sound/msl/boing.wav","null","audio-keyboard-response","422","238596","0.0-10.0-4.0","",""
"null","sound/msl/goat.wav","null","audio-keyboard-response","423","239134","0.0-10.0-5.0","",""
"null","sound/msl/organ.wav","null","audio-keyboard-response","424","239646","0.0-10.0-6.0","",""
"792","sound/asl/silence.wav","49","audio-keyboard-response","425","240442","0.0-10.0-7.0","true",""
"null","sound/msl/dog.wav","null","audio-keyboard-response","426","240956","0.0-11.0-0.0","",""
"null","sound/msl/frog.wav","null","audio-keyboard-response","427","241476","0.0-11.0-1.0","",""
"null","sound/msl/slide_whistle.wav","null","audio-keyboard-response","428","241986","0.0-11.0-2.0","",""
"null","sound/asl/silence.wav","null","audio-keyboard-response","429","242488","0.0-11.0-3.0","",""
"null","sound/msl/door.wav","null","audio-keyboard-response","430","242996","0.0-11.0-4.0","",""
"null","sound/msl/frog.wav","null","audio-keyboard-response","431","243516","0.0-11.0-5.0","",""
"null","sound/msl/Water.wav","null","audio-keyboard-response","432","244036","0.0-11.0-6.0","",""
"460","sound/asl/silence.wav","50","audio-keyboard-response","433","244496","0.0-11.0-7.0","true",""
"null","sound/msl/door.wav","null","audio-keyboard-response","434","245006","0.0-12.0-0.0","",""
"null","sound/msl/bird.wav","null","audio-keyboard-response","435","245526","0.0-12.0-1.0","",""
"null","sound/msl/duck.wav","null","audio-keyboard-response","436","246046","0.0-12.0-2.0","",""
"null","sound/asl/silence.wav","null","audio-keyboard-response","437","246548","0.0-12.0-3.0","",""
"null","sound/msl/door.wav","null","audio-keyboard-response","438","247054","0.0-12.0-4.0","",""
"null","sound/msl/frog.wav","null","audio-keyboard-response","439","247576","0.0-12.0-5.0","",""
"null","sound/msl/Water.wav","null","audio-keyboard-response","440","248096","0.0-12.0-6.0","",""
"368","sound/asl/silence.wav","49","audio-keyboard-response","441","248472","0.0-12.0-7.0","false",""
"null","sound/msl/dog.wav","null","audio-keyboard-response","442","248986","0.0-13.0-0.0","",""
"null","sound/msl/frog.wav","null","audio-keyboard-response","443","249506","0.0-13.0-1.0","",""
"null","sound/msl/slide_whistle.wav","null","audio-keyboard-response","444","250016","0.0-13.0-2.0","",""
"null","sound/asl/silence.wav","null","audio-keyboard-response","445","250516","0.0-13.0-3.0","",""
"null","sound/msl/clock.wav","null","audio-keyboard-response","446","251076","0.0-13.0-4.0","",""
"null","sound/msl/bird.wav","null","audio-keyboard-response","447","251596","0.0-13.0-5.0","",""
"null","sound/msl/slide_whistle.wav","null","audio-keyboard-response","448","252104","0.0-13.0-6.0","",""
"470","sound/asl/silence.wav","50","audio-keyboard-response","449","252586","0.0-13.0-7.0","true",""
"null","sound/msl/boing.wav","null","audio-keyboard-response","450","253094","0.0-14.0-0.0","",""
"null","sound/msl/goat.wav","null","audio-keyboard-response","451","253646","0.0-14.0-1.0","",""
"null","sound/msl/organ.wav","null","audio-keyboard-response","452","254156","0.0-14.0-2.0","",""
"null","sound/asl/silence.wav","null","audio-keyboard-response","453","254658","0.0-14.0-3.0","",""
"null","sound/msl/dog.wav","null","audio-keyboard-response","454","255166","0.0-14.0-4.0","",""
"null","sound/msl/cow.wav","null","audio-keyboard-response","455","255686","0.0-14.0-5.0","",""
"null","sound/msl/organ.wav","null","audio-keyboard-response","456","256196","0.0-14.0-6.0","",""
"342","sound/asl/silence.wav","50","audio-keyboard-response","457","256540","0.0-14.0-7.0","true",""
"null","sound/msl/door.wav","null","audio-keyboard-response","458","257046","0.0-15.0-0.0","",""
"null","sound/msl/frog.wav","null","audio-keyboard-response","459","257566","0.0-15.0-1.0","",""
"null","sound/msl/Water.wav","null","audio-keyboard-response","460","258086","0.0-15.0-2.0","",""
"null","sound/asl/silence.wav","null","audio-keyboard-response","461","258588","0.0-15.0-3.0","",""
"null","sound/msl/door_bell.wav","null","audio-keyboard-response","462","259094","0.0-15.0-4.0","",""
"null","sound/msl/cow.wav","null","audio-keyboard-response","463","259616","0.0-15.0-5.0","",""
"null","sound/msl/Water.wav","null","audio-keyboard-response","464","260136","0.0-15.0-6.0","",""
"720","sound/asl/silence.wav","49","audio-keyboard-response","465","260862","0.0-15.0-7.0","true",""
"null","sound/msl/door.wav","null","audio-keyboard-response","466","261366","0.0-16.0-0.0","",""
"null","sound/msl/bird.wav","null","audio-keyboard-response","467","261886","0.0-16.0-1.0","",""
"null","sound/msl/duck.wav","null","audio-keyboard-response","468","262396","0.0-16.0-2.0","",""
"null","sound/asl/silence.wav","null","audio-keyboard-response","469","262898","0.0-16.0-3.0","",""
"null","sound/msl/boing.wav","null","audio-keyboard-response","470","263404","0.0-16.0-4.0","",""
"null","sound/msl/cat.wav","null","audio-keyboard-response","471","263916","0.0-16.0-5.0","",""
"null","sound/msl/duck.wav","null","audio-keyboard-response","472","264436","0.0-16.0-6.0","",""
"1090","sound/asl/silence.wav","50","audio-keyboard-response","473","265536","0.0-16.0-7.0","true",""
"null","sound/msl/clock.wav","null","audio-keyboard-response","474","266096","0.0-17.0-0.0","",""
"null","sound/msl/cat.wav","null","audio-keyboard-response","475","266606","0.0-17.0-1.0","",""
"null","sound/msl/ding.wav","null","audio-keyboard-response","476","267116","0.0-17.0-2.0","",""
"null","sound/asl/silence.wav","null","audio-keyboard-response","477","267618","0.0-17.0-3.0","",""
"null","sound/msl/door.wav","null","audio-keyboard-response","478","268126","0.0-17.0-4.0","",""
"null","sound/msl/frog.wav","null","audio-keyboard-response","479","268646","0.0-17.0-5.0","",""
"null","sound/msl/Water.wav","null","audio-keyboard-response","480","269166","0.0-17.0-6.0","",""
"312","sound/asl/silence.wav","49","audio-keyboard-response","481","269478","0.0-17.0-7.0","false",""
"null","sound/msl/clock.wav","null","audio-keyboard-response","482","270036","0.0-18.0-0.0","",""
"null","sound/msl/cat.wav","null","audio-keyboard-response","483","270546","0.0-18.0-1.0","",""
"null","sound/msl/ding.wav","null","audio-keyboard-response","484","271066","0.0-18.0-2.0","",""
"null","sound/asl/silence.wav","null","audio-keyboard-response","485","271566","0.0-18.0-3.0","",""
"null","sound/msl/dog.wav","null","audio-keyboard-response","486","272076","0.0-18.0-4.0","",""
"null","sound/msl/cow.wav","null","audio-keyboard-response","487","272596","0.0-18.0-5.0","",""
"null","sound/msl/organ.wav","null","audio-keyboard-response","488","273106","0.0-18.0-6.0","",""
"310","sound/asl/silence.wav","49","audio-keyboard-response","489","273428","0.0-18.0-7.0","false",""
"null","sound/msl/door_bell.wav","null","audio-keyboard-response","490","273946","0.0-19.0-0.0","",""
"null","sound/msl/cow.wav","null","audio-keyboard-response","491","274454","0.0-19.0-1.0","",""
"null","sound/msl/Water.wav","null","audio-keyboard-response","492","274978","0.0-19.0-2.0","",""
"null","sound/asl/silence.wav","null","audio-keyboard-response","493","275480","0.0-19.0-3.0","",""
"null","sound/msl/door_bell.wav","null","audio-keyboard-response","494","275984","0.0-19.0-4.0","",""
"null","sound/msl/goat.wav","null","audio-keyboard-response","495","276526","0.0-19.0-5.0","",""
"null","sound/msl/ding.wav","null","audio-keyboard-response","496","277046","0.0-19.0-6.0","",""
"292","sound/asl/silence.wav","50","audio-keyboard-response","497","277342","0.0-19.0-7.0","true",""
"null","sound/msl/dog.wav","null","audio-keyboard-response","498","277846","0.0-20.0-0.0","",""
"null","sound/msl/frog.wav","null","audio-keyboard-response","499","278366","0.0-20.0-1.0","",""
"null","sound/msl/slide_whistle.wav","null","audio-keyboard-response","500","278876","0.0-20.0-2.0","",""
"null","sound/asl/silence.wav","null","audio-keyboard-response","501","279378","0.0-20.0-3.0","",""
"null","sound/msl/door_bell.wav","null","audio-keyboard-response","502","279896","0.0-20.0-4.0","",""
"null","sound/msl/goat.wav","null","audio-keyboard-response","503","280436","0.0-20.0-5.0","",""
"null","sound/msl/ding.wav","null","audio-keyboard-response","504","280946","0.0-20.0-6.0","",""
"160","sound/asl/silence.wav","50","audio-keyboard-response","505","281116","0.0-20.0-7.0","true",""
"null","sound/msl/dog.wav","null","audio-keyboard-response","506","281636","0.0-21.0-0.0","",""
"null","sound/msl/cow.wav","null","audio-keyboard-response","507","282156","0.0-21.0-1.0","",""
"null","sound/msl/organ.wav","null","audio-keyboard-response","508","282666","0.0-21.0-2.0","",""
"null","sound/asl/silence.wav","null","audio-keyboard-response","509","283168","0.0-21.0-3.0","",""
"null","sound/msl/door_bell.wav","null","audio-keyboard-response","510","283686","0.0-21.0-4.0","",""
"null","sound/msl/cow.wav","null","audio-keyboard-response","511","284206","0.0-21.0-5.0","",""
"null","sound/msl/Water.wav","null","audio-keyboard-response","512","284726","0.0-21.0-6.0","",""
"410","sound/asl/silence.wav","49","audio-keyboard-response","513","285142","0.0-21.0-7.0","true",""
"null","sound/msl/door.wav","null","audio-keyboard-response","514","285646","0.0-22.0-0.0","",""
"null","sound/msl/frog.wav","null","audio-keyboard-response","515","286156","0.0-22.0-1.0","",""
"null","sound/msl/Water.wav","null","audio-keyboard-response","516","286676","0.0-22.0-2.0","",""
"null","sound/asl/silence.wav","null","audio-keyboard-response","517","287178","0.0-22.0-3.0","",""
"null","sound/msl/boing.wav","null","audio-keyboard-response","518","287686","0.0-22.0-4.0","",""
"null","sound/msl/goat.wav","null","audio-keyboard-response","519","288226","0.0-22.0-5.0","",""
"null","sound/msl/organ.wav","null","audio-keyboard-response","520","288734","0.0-22.0-6.0","",""
"220","sound/asl/silence.wav","50","audio-keyboard-response","521","288962","0.0-22.0-7.0","false",""
"null","sound/msl/clock.wav","null","audio-keyboard-response","522","289514","0.0-23.0-0.0","",""
"null","sound/msl/bird.wav","null","audio-keyboard-response","523","290034","0.0-23.0-1.0","",""
"null","sound/msl/slide_whistle.wav","null","audio-keyboard-response","524","290546","0.0-23.0-2.0","",""
"null","sound/asl/silence.wav","null","audio-keyboard-response","525","291046","0.0-23.0-3.0","",""
"null","sound/msl/clock.wav","null","audio-keyboard-response","526","291604","0.0-23.0-4.0","",""
"null","sound/msl/cat.wav","null","audio-keyboard-response","527","292116","0.0-23.0-5.0","",""
"null","sound/msl/ding.wav","null","audio-keyboard-response","528","292626","0.0-23.0-6.0","",""
"470","sound/asl/silence.wav","49","audio-keyboard-response","529","293104","0.0-23.0-7.0","true",""
"null","sound/msl/door.wav","null","audio-keyboard-response","530","293616","0.0-24.0-0.0","",""
"null","sound/msl/bird.wav","null","audio-keyboard-response","531","294134","0.0-24.0-1.0","",""
"null","sound/msl/duck.wav","null","audio-keyboard-response","532","294644","0.0-24.0-2.0","",""
"null","sound/asl/silence.wav","null","audio-keyboard-response","533","295146","0.0-24.0-3.0","",""
"null","sound/msl/door_bell.wav","null","audio-keyboard-response","534","295656","0.0-24.0-4.0","",""
"null","sound/msl/goat.wav","null","audio-keyboard-response","535","296196","0.0-24.0-5.0","",""
"null","sound/msl/ding.wav","null","audio-keyboard-response","536","296716","0.0-24.0-6.0","",""
"390","sound/asl/silence.wav","50","audio-keyboard-response","537","297106","0.0-24.0-7.0","true",""
"null","sound/msl/dog.wav","null","audio-keyboard-response","538","297626","0.0-25.0-0.0","",""
"null","sound/msl/cow.wav","null","audio-keyboard-response","539","298144","0.0-25.0-1.0","",""
"null","sound/msl/organ.wav","null","audio-keyboard-response","540","298656","0.0-25.0-2.0","",""
"null","sound/asl/silence.wav","null","audio-keyboard-response","541","299158","0.0-25.0-3.0","",""
"null","sound/msl/dog.wav","null","audio-keyboard-response","542","299676","0.0-25.0-4.0","",""
"null","sound/msl/frog.wav","null","audio-keyboard-response","543","300196","0.0-25.0-5.0","",""
"null","sound/msl/slide_whistle.wav","null","audio-keyboard-response","544","300706","0.0-25.0-6.0","",""
"348","sound/asl/silence.wav","50","audio-keyboard-response","545","301060","0.0-25.0-7.0","false",""
"null","sound/msl/door.wav","null","audio-keyboard-response","546","301564","0.0-26.0-0.0","",""
"null","sound/msl/bird.wav","null","audio-keyboard-response","547","302074","0.0-26.0-1.0","",""
"null","sound/msl/duck.wav","null","audio-keyboard-response","548","302594","0.0-26.0-2.0","",""
"null","sound/asl/silence.wav","null","audio-keyboard-response","549","303096","0.0-26.0-3.0","",""
"null","sound/msl/clock.wav","null","audio-keyboard-response","550","303656","0.0-26.0-4.0","",""
"null","sound/msl/bird.wav","null","audio-keyboard-response","551","304166","0.0-26.0-5.0","",""
"null","sound/msl/slide_whistle.wav","null","audio-keyboard-response","552","304676","0.0-26.0-6.0","",""
"282","sound/asl/silence.wav","49","audio-keyboard-response","553","304958","0.0-26.0-7.0","false",""
"null","sound/msl/boing.wav","null","audio-keyboard-response","554","305466","0.0-27.0-0.0","",""
"null","sound/msl/cat.wav","null","audio-keyboard-response","555","305976","0.0-27.0-1.0","",""
"null","sound/msl/duck.wav","null","audio-keyboard-response","556","306496","0.0-27.0-2.0","",""
"null","sound/asl/silence.wav","null","audio-keyboard-response","557","306996","0.0-27.0-3.0","",""
"null","sound/msl/dog.wav","null","audio-keyboard-response","558","307516","0.0-27.0-4.0","",""
"null","sound/msl/frog.wav","null","audio-keyboard-response","559","308036","0.0-27.0-5.0","",""
"null","sound/msl/slide_whistle.wav","null","audio-keyboard-response","560","308546","0.0-27.0-6.0","",""
"90","sound/asl/silence.wav","49","audio-keyboard-response","561","308644","0.0-27.0-7.0","true",""
"4192","","","instructions","562","312838","0.0-28.0","","[{""page_index"":0,""viewing_time"":4192}]"
