"rt","stimulus","key_press","trial_type","trial_index","time_elapsed","internal_node_id","correct","view_history"
"13810","alien.jpg","49","image-keyboard-response","0","13816","0.0-0.0","",""
"null","sound/msl/organ.wav","null","audio-keyboard-response","1","14327","0.0-1.0-0.0","",""
"null","sound/msl/ding.wav","null","audio-keyboard-response","2","14847","0.0-1.0-1.0","",""
"null","sound/msl/clock.wav","null","audio-keyboard-response","3","15406","0.0-1.0-2.0","",""
"null","sound/msl/duck.wav","null","audio-keyboard-response","4","15927","0.0-1.0-3.0","",""
"null","sound/msl/cat.wav","null","audio-keyboard-response","5","16437","0.0-1.0-4.0","",""
"null","sound/msl/door.wav","null","audio-keyboard-response","6","16947","0.0-1.0-5.0","",""
"null","sound/msl/slide_whistle.wav","null","audio-keyboard-response","7","17456","0.0-1.0-6.0","",""
"null","sound/msl/goat.wav","null","audio-keyboard-response","8","17996","0.0-1.0-7.0","",""
"null","sound/msl/Water.wav","null","audio-keyboard-response","9","18517","0.0-1.0-8.0","",""
"null","sound/msl/cow.wav","null","audio-keyboard-response","10","19038","0.0-1.0-9.0","",""
"null","sound/msl/bird.wav","null","audio-keyboard-response","11","19557","0.0-1.0-10.0","",""
"null","sound/msl/frog.wav","null","audio-keyboard-response","12","20077","0.0-1.0-11.0","",""
"null","sound/msl/duck.wav","null","audio-keyboard-response","13","20596","0.0-1.0-12.0","",""
"null","sound/msl/cat.wav","null","audio-keyboard-response","14","21107","0.0-1.0-13.0","",""
"null","sound/msl/door.wav","null","audio-keyboard-response","15","21617","0.0-1.0-14.0","",""
"null","sound/msl/organ.wav","null","audio-keyboard-response","16","22126","0.0-1.0-15.0","",""
"null","sound/msl/ding.wav","null","audio-keyboard-response","17","22638","0.0-1.0-16.0","",""
"null","sound/msl/clock.wav","null","audio-keyboard-response","18","23196","0.0-1.0-17.0","",""
"null","sound/msl/dog.wav","null","audio-keyboard-response","19","23717","0.0-1.0-18.0","",""
"null","sound/msl/door_bell.wav","null","audio-keyboard-response","20","24237","0.0-1.0-19.0","",""
"null","sound/msl/boing.wav","null","audio-keyboard-response","21","24747","0.0-1.0-20.0","",""
"null","sound/msl/cow.wav","null","audio-keyboard-response","22","25267","0.0-1.0-21.0","",""
"null","sound/msl/bird.wav","null","audio-keyboard-response","23","25787","0.0-1.0-22.0","",""
"null","sound/msl/frog.wav","null","audio-keyboard-response","24","26296","0.0-1.0-23.0","",""
"null","sound/msl/slide_whistle.wav","null","audio-keyboard-response","25","26806","0.0-1.0-24.0","",""
"null","sound/msl/goat.wav","null","audio-keyboard-response","26","27356","0.0-1.0-25.0","",""
"null","sound/msl/Water.wav","null","audio-keyboard-response","27","27877","0.0-1.0-26.0","",""
"null","sound/msl/organ.wav","null","audio-keyboard-response","28","28386","0.0-1.0-27.0","",""
"null","sound/msl/ding.wav","null","audio-keyboard-response","29","28906","0.0-1.0-28.0","",""
"null","sound/msl/clock.wav","null","audio-keyboard-response","30","29466","0.0-1.0-29.0","",""
"null","sound/msl/duck.wav","null","audio-keyboard-response","31","29987","0.0-1.0-30.0","",""
"null","sound/msl/cat.wav","null","audio-keyboard-response","32","30496","0.0-1.0-31.0","",""
"null","sound/msl/door.wav","null","audio-keyboard-response","33","31007","0.0-1.0-32.0","",""
"null","sound/msl/dog.wav","null","audio-keyboard-response","34","31527","0.0-1.0-33.0","",""
"null","sound/msl/door_bell.wav","null","audio-keyboard-response","35","32047","0.0-1.0-34.0","",""
"null","sound/msl/boing.wav","null","audio-keyboard-response","36","32556","0.0-1.0-35.0","",""
"null","sound/msl/slide_whistle.wav","null","audio-keyboard-response","37","33067","0.0-1.0-36.0","",""
"null","sound/msl/goat.wav","null","audio-keyboard-response","38","33606","0.0-1.0-37.0","",""
"null","sound/msl/Water.wav","null","audio-keyboard-response","39","34127","0.0-1.0-38.0","",""
"null","sound/msl/cow.wav","null","audio-keyboard-response","40","34647","0.0-1.0-39.0","",""
"null","sound/msl/bird.wav","null","audio-keyboard-response","41","35167","0.0-1.0-40.0","",""
"null","sound/msl/frog.wav","null","audio-keyboard-response","42","35686","0.0-1.0-41.0","",""
"null","sound/msl/dog.wav","null","audio-keyboard-response","43","36206","0.0-1.0-42.0","",""
"null","sound/msl/door_bell.wav","null","audio-keyboard-response","44","36716","0.0-1.0-43.0","",""
"null","sound/msl/boing.wav","null","audio-keyboard-response","45","37226","0.0-1.0-44.0","",""
"null","sound/msl/duck.wav","null","audio-keyboard-response","46","37746","0.0-1.0-45.0","",""
"null","sound/msl/cat.wav","null","audio-keyboard-response","47","38257","0.0-1.0-46.0","",""
"null","sound/msl/door.wav","null","audio-keyboard-response","48","38767","0.0-1.0-47.0","",""
"null","sound/msl/slide_whistle.wav","null","audio-keyboard-response","49","39276","0.0-1.0-48.0","",""
"null","sound/msl/goat.wav","null","audio-keyboard-response","50","39816","0.0-1.0-49.0","",""
"null","sound/msl/Water.wav","null","audio-keyboard-response","51","40337","0.0-1.0-50.0","",""
"null","sound/msl/organ.wav","null","audio-keyboard-response","52","40846","0.0-1.0-51.0","",""
"null","sound/msl/ding.wav","null","audio-keyboard-response","53","41366","0.0-1.0-52.0","",""
"null","sound/msl/clock.wav","null","audio-keyboard-response","54","41927","0.0-1.0-53.0","",""
"null","sound/msl/duck.wav","null","audio-keyboard-response","55","42447","0.0-1.0-54.0","",""
"null","sound/msl/cat.wav","null","audio-keyboard-response","56","42956","0.0-1.0-55.0","",""
"null","sound/msl/door.wav","null","audio-keyboard-response","57","43467","0.0-1.0-56.0","",""
"null","sound/msl/slide_whistle.wav","null","audio-keyboard-response","58","43976","0.0-1.0-57.0","",""
"null","sound/msl/goat.wav","null","audio-keyboard-response","59","44517","0.0-1.0-58.0","",""
"null","sound/msl/Water.wav","null","audio-keyboard-response","60","45037","0.0-1.0-59.0","",""
"null","sound/msl/cow.wav","null","audio-keyboard-response","61","45546","0.0-1.0-60.0","",""
"null","sound/msl/bird.wav","null","audio-keyboard-response","62","46066","0.0-1.0-61.0","",""
"null","sound/msl/frog.wav","null","audio-keyboard-response","63","46577","0.0-1.0-62.0","",""
"null","sound/msl/dog.wav","null","audio-keyboard-response","64","47096","0.0-1.0-63.0","",""
"null","sound/msl/door_bell.wav","null","audio-keyboard-response","65","47617","0.0-1.0-64.0","",""
"null","sound/msl/boing.wav","null","audio-keyboard-response","66","48126","0.0-1.0-65.0","",""
"null","sound/msl/duck.wav","null","audio-keyboard-response","67","48647","0.0-1.0-66.0","",""
"null","sound/msl/cat.wav","null","audio-keyboard-response","68","49157","0.0-1.0-67.0","",""
"null","sound/msl/door.wav","null","audio-keyboard-response","69","49667","0.0-1.0-68.0","",""
"null","sound/msl/organ.wav","null","audio-keyboard-response","70","50176","0.0-1.0-69.0","",""
"null","sound/msl/ding.wav","null","audio-keyboard-response","71","50687","0.0-1.0-70.0","",""
"null","sound/msl/clock.wav","null","audio-keyboard-response","72","51246","0.0-1.0-71.0","",""
"null","sound/msl/slide_whistle.wav","null","audio-keyboard-response","73","51756","0.0-1.0-72.0","",""
"null","sound/msl/goat.wav","null","audio-keyboard-response","74","52306","0.0-1.0-73.0","",""
"null","sound/msl/Water.wav","null","audio-keyboard-response","75","52827","0.0-1.0-74.0","",""
"null","sound/msl/cow.wav","null","audio-keyboard-response","76","53337","0.0-1.0-75.0","",""
"null","sound/msl/bird.wav","null","audio-keyboard-response","77","53857","0.0-1.0-76.0","",""
"null","sound/msl/frog.wav","null","audio-keyboard-response","78","54366","0.0-1.0-77.0","",""
"null","sound/msl/slide_whistle.wav","null","audio-keyboard-response","79","54876","0.0-1.0-78.0","",""
"null","sound/msl/goat.wav","null","audio-keyboard-response","80","55427","0.0-1.0-79.0","",""
"null","sound/msl/Water.wav","null","audio-keyboard-response","81","55947","0.0-1.0-80.0","",""
"null","sound/msl/dog.wav","null","audio-keyboard-response","82","56456","0.0-1.0-81.0","",""
"null","sound/msl/door_bell.wav","null","audio-keyboard-response","83","56976","0.0-1.0-82.0","",""
"null","sound/msl/boing.wav","null","audio-keyboard-response","84","57487","0.0-1.0-83.0","",""
"null","sound/msl/organ.wav","null","audio-keyboard-response","85","57997","0.0-1.0-84.0","",""
"null","sound/msl/ding.wav","null","audio-keyboard-response","86","58516","0.0-1.0-85.0","",""
"null","sound/msl/clock.wav","null","audio-keyboard-response","87","59076","0.0-1.0-86.0","",""
"null","sound/msl/duck.wav","null","audio-keyboard-response","88","59597","0.0-1.0-87.0","",""
"null","sound/msl/cat.wav","null","audio-keyboard-response","89","60107","0.0-1.0-88.0","",""
"null","sound/msl/door.wav","null","audio-keyboard-response","90","60616","0.0-1.0-89.0","",""
"null","sound/msl/dog.wav","null","audio-keyboard-response","91","61127","0.0-1.0-90.0","",""
"null","sound/msl/door_bell.wav","null","audio-keyboard-response","92","61647","0.0-1.0-91.0","",""
"null","sound/msl/boing.wav","null","audio-keyboard-response","93","62157","0.0-1.0-92.0","",""
"null","sound/msl/cow.wav","null","audio-keyboard-response","94","62676","0.0-1.0-93.0","",""
"null","sound/msl/bird.wav","null","audio-keyboard-response","95","63196","0.0-1.0-94.0","",""
"null","sound/msl/frog.wav","null","audio-keyboard-response","96","63718","0.0-1.0-95.0","",""
"null","sound/msl/slide_whistle.wav","null","audio-keyboard-response","97","64227","0.0-1.0-96.0","",""
"null","sound/msl/goat.wav","null","audio-keyboard-response","98","64767","0.0-1.0-97.0","",""
"null","sound/msl/Water.wav","null","audio-keyboard-response","99","65287","0.0-1.0-98.0","",""
"null","sound/msl/duck.wav","null","audio-keyboard-response","100","65796","0.0-1.0-99.0","",""
"null","sound/msl/cat.wav","null","audio-keyboard-response","101","66307","0.0-1.0-100.0","",""
"null","sound/msl/door.wav","null","audio-keyboard-response","102","66817","0.0-1.0-101.0","",""
"null","sound/msl/dog.wav","null","audio-keyboard-response","103","67327","0.0-1.0-102.0","",""
"null","sound/msl/door_bell.wav","null","audio-keyboard-response","104","67847","0.0-1.0-103.0","",""
"null","sound/msl/boing.wav","null","audio-keyboard-response","105","68357","0.0-1.0-104.0","",""
"null","sound/msl/organ.wav","null","audio-keyboard-response","106","68867","0.0-1.0-105.0","",""
"null","sound/msl/ding.wav","null","audio-keyboard-response","107","69387","0.0-1.0-106.0","",""
"null","sound/msl/clock.wav","null","audio-keyboard-response","108","69947","0.0-1.0-107.0","",""
"null","sound/msl/duck.wav","null","audio-keyboard-response","109","70467","0.0-1.0-108.0","",""
"null","sound/msl/cat.wav","null","audio-keyboard-response","110","70977","0.0-1.0-109.0","",""
"null","sound/msl/door.wav","null","audio-keyboard-response","111","71486","0.0-1.0-110.0","",""
"null","sound/msl/cow.wav","null","audio-keyboard-response","112","71996","0.0-1.0-111.0","",""
"null","sound/msl/bird.wav","null","audio-keyboard-response","113","72516","0.0-1.0-112.0","",""
"null","sound/msl/frog.wav","null","audio-keyboard-response","114","73037","0.0-1.0-113.0","",""
"null","sound/msl/dog.wav","null","audio-keyboard-response","115","73548","0.0-1.0-114.0","",""
"null","sound/msl/door_bell.wav","null","audio-keyboard-response","116","74066","0.0-1.0-115.0","",""
"null","sound/msl/boing.wav","null","audio-keyboard-response","117","74577","0.0-1.0-116.0","",""
"null","sound/msl/slide_whistle.wav","null","audio-keyboard-response","118","75086","0.0-1.0-117.0","",""
"null","sound/msl/goat.wav","null","audio-keyboard-response","119","75637","0.0-1.0-118.0","",""
"null","sound/msl/Water.wav","null","audio-keyboard-response","120","76156","0.0-1.0-119.0","",""
"null","sound/msl/organ.wav","null","audio-keyboard-response","121","76667","0.0-1.0-120.0","",""
"null","sound/msl/ding.wav","null","audio-keyboard-response","122","77187","0.0-1.0-121.0","",""
"null","sound/msl/clock.wav","null","audio-keyboard-response","123","77756","0.0-1.0-122.0","",""
"null","sound/msl/duck.wav","null","audio-keyboard-response","124","78286","0.0-1.0-123.0","",""
"null","sound/msl/cat.wav","null","audio-keyboard-response","125","78796","0.0-1.0-124.0","",""
"null","sound/msl/door.wav","null","audio-keyboard-response","126","79306","0.0-1.0-125.0","",""
"null","sound/msl/dog.wav","null","audio-keyboard-response","127","79827","0.0-1.0-126.0","",""
"null","sound/msl/door_bell.wav","null","audio-keyboard-response","128","80346","0.0-1.0-127.0","",""
"null","sound/msl/boing.wav","null","audio-keyboard-response","129","80857","0.0-1.0-128.0","",""
"null","sound/msl/cow.wav","null","audio-keyboard-response","130","81377","0.0-1.0-129.0","",""
"null","sound/msl/bird.wav","null","audio-keyboard-response","131","81897","0.0-1.0-130.0","",""
"null","sound/msl/frog.wav","null","audio-keyboard-response","132","82417","0.0-1.0-131.0","",""
"null","sound/msl/duck.wav","null","audio-keyboard-response","133","82936","0.0-1.0-132.0","",""
"null","sound/msl/cat.wav","null","audio-keyboard-response","134","83447","0.0-1.0-133.0","",""
"null","sound/msl/door.wav","null","audio-keyboard-response","135","83957","0.0-1.0-134.0","",""
"null","sound/msl/slide_whistle.wav","null","audio-keyboard-response","136","84467","0.0-1.0-135.0","",""
"null","sound/msl/goat.wav","null","audio-keyboard-response","137","85007","0.0-1.0-136.0","",""
"null","sound/msl/Water.wav","null","audio-keyboard-response","138","85527","0.0-1.0-137.0","",""
"null","sound/msl/cow.wav","null","audio-keyboard-response","139","86046","0.0-1.0-138.0","",""
"null","sound/msl/bird.wav","null","audio-keyboard-response","140","86567","0.0-1.0-139.0","",""
"null","sound/msl/frog.wav","null","audio-keyboard-response","141","87086","0.0-1.0-140.0","",""
"null","sound/msl/organ.wav","null","audio-keyboard-response","142","87596","0.0-1.0-141.0","",""
"null","sound/msl/ding.wav","null","audio-keyboard-response","143","88116","0.0-1.0-142.0","",""
"null","sound/msl/clock.wav","null","audio-keyboard-response","144","88677","0.0-1.0-143.0","",""
"null","sound/msl/dog.wav","null","audio-keyboard-response","145","89197","0.0-1.0-144.0","",""
"null","sound/msl/door_bell.wav","null","audio-keyboard-response","146","89716","0.0-1.0-145.0","",""
"null","sound/msl/boing.wav","null","audio-keyboard-response","147","90226","0.0-1.0-146.0","",""
"null","sound/msl/slide_whistle.wav","null","audio-keyboard-response","148","90736","0.0-1.0-147.0","",""
"null","sound/msl/goat.wav","null","audio-keyboard-response","149","91286","0.0-1.0-148.0","",""
"null","sound/msl/Water.wav","null","audio-keyboard-response","150","91806","0.0-1.0-149.0","",""
"null","sound/msl/organ.wav","null","audio-keyboard-response","151","92316","0.0-1.0-150.0","",""
"null","sound/msl/ding.wav","null","audio-keyboard-response","152","92837","0.0-1.0-151.0","",""
"null","sound/msl/clock.wav","null","audio-keyboard-response","153","93397","0.0-1.0-152.0","",""
"null","sound/msl/duck.wav","null","audio-keyboard-response","154","93917","0.0-1.0-153.0","",""
"null","sound/msl/cat.wav","null","audio-keyboard-response","155","94426","0.0-1.0-154.0","",""
"null","sound/msl/door.wav","null","audio-keyboard-response","156","94936","0.0-1.0-155.0","",""
"null","sound/msl/cow.wav","null","audio-keyboard-response","157","95456","0.0-1.0-156.0","",""
"null","sound/msl/bird.wav","null","audio-keyboard-response","158","95977","0.0-1.0-157.0","",""
"null","sound/msl/frog.wav","null","audio-keyboard-response","159","96497","0.0-1.0-158.0","",""
"null","sound/msl/dog.wav","null","audio-keyboard-response","160","97016","0.0-1.0-159.0","",""
"null","sound/msl/door_bell.wav","null","audio-keyboard-response","161","97536","0.0-1.0-160.0","",""
"null","sound/msl/boing.wav","null","audio-keyboard-response","162","98046","0.0-1.0-161.0","",""
"null","sound/msl/duck.wav","null","audio-keyboard-response","163","98566","0.0-1.0-162.0","",""
"null","sound/msl/cat.wav","null","audio-keyboard-response","164","99077","0.0-1.0-163.0","",""
"null","sound/msl/door.wav","null","audio-keyboard-response","165","99586","0.0-1.0-164.0","",""
"null","sound/msl/cow.wav","null","audio-keyboard-response","166","100107","0.0-1.0-165.0","",""
"null","sound/msl/bird.wav","null","audio-keyboard-response","167","100626","0.0-1.0-166.0","",""
"null","sound/msl/frog.wav","null","audio-keyboard-response","168","101147","0.0-1.0-167.0","",""
"null","sound/msl/organ.wav","null","audio-keyboard-response","169","101656","0.0-1.0-168.0","",""
"null","sound/msl/ding.wav","null","audio-keyboard-response","170","102176","0.0-1.0-169.0","",""
"null","sound/msl/clock.wav","null","audio-keyboard-response","171","102737","0.0-1.0-170.0","",""
"null","sound/msl/slide_whistle.wav","null","audio-keyboard-response","172","103247","0.0-1.0-171.0","",""
"null","sound/msl/goat.wav","null","audio-keyboard-response","173","103797","0.0-1.0-172.0","",""
"null","sound/msl/Water.wav","null","audio-keyboard-response","174","104316","0.0-1.0-173.0","",""
"null","sound/msl/dog.wav","null","audio-keyboard-response","175","104826","0.0-1.0-174.0","",""
"null","sound/msl/door_bell.wav","null","audio-keyboard-response","176","105346","0.0-1.0-175.0","",""
"null","sound/msl/boing.wav","null","audio-keyboard-response","177","105857","0.0-1.0-176.0","",""
"null","sound/msl/duck.wav","null","audio-keyboard-response","178","106376","0.0-1.0-177.0","",""
"null","sound/msl/cat.wav","null","audio-keyboard-response","179","106887","0.0-1.0-178.0","",""
"null","sound/msl/door.wav","null","audio-keyboard-response","180","107396","0.0-1.0-179.0","",""
"null","sound/msl/slide_whistle.wav","null","audio-keyboard-response","181","107906","0.0-1.0-180.0","",""
"null","sound/msl/goat.wav","null","audio-keyboard-response","182","108446","0.0-1.0-181.0","",""
"null","sound/msl/Water.wav","null","audio-keyboard-response","183","108966","0.0-1.0-182.0","",""
"null","sound/msl/cow.wav","null","audio-keyboard-response","184","109477","0.0-1.0-183.0","",""
"null","sound/msl/bird.wav","null","audio-keyboard-response","185","109997","0.0-1.0-184.0","",""
"null","sound/msl/frog.wav","null","audio-keyboard-response","186","110507","0.0-1.0-185.0","",""
"null","sound/msl/organ.wav","null","audio-keyboard-response","187","111017","0.0-1.0-186.0","",""
"null","sound/msl/ding.wav","null","audio-keyboard-response","188","111537","0.0-1.0-187.0","",""
"null","sound/msl/clock.wav","null","audio-keyboard-response","189","112096","0.0-1.0-188.0","",""
"null","sound/msl/dog.wav","null","audio-keyboard-response","190","112616","0.0-1.0-189.0","",""
"null","sound/msl/door_bell.wav","null","audio-keyboard-response","191","113136","0.0-1.0-190.0","",""
"null","sound/msl/boing.wav","null","audio-keyboard-response","192","113646","0.0-1.0-191.0","",""
"null","sound/msl/duck.wav","null","audio-keyboard-response","193","114166","0.0-1.0-192.0","",""
"null","sound/msl/cat.wav","null","audio-keyboard-response","194","114676","0.0-1.0-193.0","",""
"null","sound/msl/door.wav","null","audio-keyboard-response","195","115187","0.0-1.0-194.0","",""
"null","sound/msl/slide_whistle.wav","null","audio-keyboard-response","196","115697","0.0-1.0-195.0","",""
"null","sound/msl/goat.wav","null","audio-keyboard-response","197","116236","0.0-1.0-196.0","",""
"null","sound/msl/Water.wav","null","audio-keyboard-response","198","116756","0.0-1.0-197.0","",""
"null","sound/msl/organ.wav","null","audio-keyboard-response","199","117267","0.0-1.0-198.0","",""
"null","sound/msl/ding.wav","null","audio-keyboard-response","200","117787","0.0-1.0-199.0","",""
"null","sound/msl/clock.wav","null","audio-keyboard-response","201","118347","0.0-1.0-200.0","",""
"null","sound/msl/cow.wav","null","audio-keyboard-response","202","118867","0.0-1.0-201.0","",""
"null","sound/msl/bird.wav","null","audio-keyboard-response","203","119376","0.0-1.0-202.0","",""
"null","sound/msl/frog.wav","null","audio-keyboard-response","204","119896","0.0-1.0-203.0","",""
"null","sound/msl/dog.wav","null","audio-keyboard-response","205","120417","0.0-1.0-204.0","",""
"null","sound/msl/door_bell.wav","null","audio-keyboard-response","206","120927","0.0-1.0-205.0","",""
"null","sound/msl/boing.wav","null","audio-keyboard-response","207","121437","0.0-1.0-206.0","",""
"null","sound/msl/duck.wav","null","audio-keyboard-response","208","121957","0.0-1.0-207.0","",""
"null","sound/msl/cat.wav","null","audio-keyboard-response","209","122467","0.0-1.0-208.0","",""
"null","sound/msl/door.wav","null","audio-keyboard-response","210","122976","0.0-1.0-209.0","",""
"null","sound/msl/organ.wav","null","audio-keyboard-response","211","123487","0.0-1.0-210.0","",""
"null","sound/msl/ding.wav","null","audio-keyboard-response","212","124007","0.0-1.0-211.0","",""
"null","sound/msl/clock.wav","null","audio-keyboard-response","213","124566","0.0-1.0-212.0","",""
"null","sound/msl/dog.wav","null","audio-keyboard-response","214","125087","0.0-1.0-213.0","",""
"null","sound/msl/door_bell.wav","null","audio-keyboard-response","215","125607","0.0-1.0-214.0","",""
"null","sound/msl/boing.wav","null","audio-keyboard-response","216","126116","0.0-1.0-215.0","",""
"null","sound/msl/slide_whistle.wav","null","audio-keyboard-response","217","126626","0.0-1.0-216.0","",""
"null","sound/msl/goat.wav","null","audio-keyboard-response","218","127176","0.0-1.0-217.0","",""
"null","sound/msl/Water.wav","null","audio-keyboard-response","219","127697","0.0-1.0-218.0","",""
"null","sound/msl/cow.wav","null","audio-keyboard-response","220","128208","0.0-1.0-219.0","",""
"null","sound/msl/bird.wav","null","audio-keyboard-response","221","128727","0.0-1.0-220.0","",""
"null","sound/msl/frog.wav","null","audio-keyboard-response","222","129237","0.0-1.0-221.0","",""
"null","sound/msl/duck.wav","null","audio-keyboard-response","223","129756","0.0-1.0-222.0","",""
"null","sound/msl/cat.wav","null","audio-keyboard-response","224","130266","0.0-1.0-223.0","",""
"null","sound/msl/door.wav","null","audio-keyboard-response","225","130776","0.0-1.0-224.0","",""
"null","sound/msl/slide_whistle.wav","null","audio-keyboard-response","226","131287","0.0-1.0-225.0","",""
"null","sound/msl/goat.wav","null","audio-keyboard-response","227","131826","0.0-1.0-226.0","",""
"null","sound/msl/Water.wav","null","audio-keyboard-response","228","132347","0.0-1.0-227.0","",""
"null","sound/msl/dog.wav","null","audio-keyboard-response","229","132868","0.0-1.0-228.0","",""
"null","sound/msl/door_bell.wav","null","audio-keyboard-response","230","133386","0.0-1.0-229.0","",""
"null","sound/msl/boing.wav","null","audio-keyboard-response","231","133896","0.0-1.0-230.0","",""
"null","sound/msl/slide_whistle.wav","null","audio-keyboard-response","232","134406","0.0-1.0-231.0","",""
"null","sound/msl/goat.wav","null","audio-keyboard-response","233","134946","0.0-1.0-232.0","",""
"null","sound/msl/Water.wav","null","audio-keyboard-response","234","135466","0.0-1.0-233.0","",""
"null","sound/msl/duck.wav","null","audio-keyboard-response","235","135976","0.0-1.0-234.0","",""
"null","sound/msl/cat.wav","null","audio-keyboard-response","236","136487","0.0-1.0-235.0","",""
"null","sound/msl/door.wav","null","audio-keyboard-response","237","136997","0.0-1.0-236.0","",""
"null","sound/msl/cow.wav","null","audio-keyboard-response","238","137517","0.0-1.0-237.0","",""
"null","sound/msl/bird.wav","null","audio-keyboard-response","239","138038","0.0-1.0-238.0","",""
"null","sound/msl/frog.wav","null","audio-keyboard-response","240","138556","0.0-1.0-239.0","",""
"null","sound/msl/organ.wav","null","audio-keyboard-response","241","139066","0.0-1.0-240.0","",""
"null","sound/msl/ding.wav","null","audio-keyboard-response","242","139586","0.0-1.0-241.0","",""
"null","sound/msl/clock.wav","null","audio-keyboard-response","243","140147","0.0-1.0-242.0","",""
"null","sound/msl/dog.wav","null","audio-keyboard-response","244","140667","0.0-1.0-243.0","",""
"null","sound/msl/door_bell.wav","null","audio-keyboard-response","245","141186","0.0-1.0-244.0","",""
"null","sound/msl/boing.wav","null","audio-keyboard-response","246","141697","0.0-1.0-245.0","",""
"null","sound/msl/duck.wav","null","audio-keyboard-response","247","142217","0.0-1.0-246.0","",""
"null","sound/msl/cat.wav","null","audio-keyboard-response","248","142726","0.0-1.0-247.0","",""
"null","sound/msl/door.wav","null","audio-keyboard-response","249","143236","0.0-1.0-248.0","",""
"null","sound/msl/cow.wav","null","audio-keyboard-response","250","143746","0.0-1.0-249.0","",""
"null","sound/msl/bird.wav","null","audio-keyboard-response","251","144266","0.0-1.0-250.0","",""
"null","sound/msl/frog.wav","null","audio-keyboard-response","252","144777","0.0-1.0-251.0","",""
"null","sound/msl/organ.wav","null","audio-keyboard-response","253","145286","0.0-1.0-252.0","",""
"null","sound/msl/ding.wav","null","audio-keyboard-response","254","145807","0.0-1.0-253.0","",""
"null","sound/msl/clock.wav","null","audio-keyboard-response","255","146366","0.0-1.0-254.0","",""
"null","sound/msl/slide_whistle.wav","null","audio-keyboard-response","256","146876","0.0-1.0-255.0","",""
"null","sound/msl/goat.wav","null","audio-keyboard-response","257","147426","0.0-1.0-256.0","",""
"null","sound/msl/Water.wav","null","audio-keyboard-response","258","147946","0.0-1.0-257.0","",""
"null","sound/msl/dog.wav","null","audio-keyboard-response","259","148466","0.0-1.0-258.0","",""
"null","sound/msl/door_bell.wav","null","audio-keyboard-response","260","148977","0.0-1.0-259.0","",""
"null","sound/msl/boing.wav","null","audio-keyboard-response","261","149486","0.0-1.0-260.0","",""
"null","sound/msl/organ.wav","null","audio-keyboard-response","262","149996","0.0-1.0-261.0","",""
"null","sound/msl/ding.wav","null","audio-keyboard-response","263","150506","0.0-1.0-262.0","",""
"null","sound/msl/clock.wav","null","audio-keyboard-response","264","151067","0.0-1.0-263.0","",""
"null","sound/msl/cow.wav","null","audio-keyboard-response","265","151586","0.0-1.0-264.0","",""
"null","sound/msl/bird.wav","null","audio-keyboard-response","266","152096","0.0-1.0-265.0","",""
"null","sound/msl/frog.wav","null","audio-keyboard-response","267","152616","0.0-1.0-266.0","",""
"null","sound/msl/slide_whistle.wav","null","audio-keyboard-response","268","153126","0.0-1.0-267.0","",""
"null","sound/msl/goat.wav","null","audio-keyboard-response","269","153677","0.0-1.0-268.0","",""
"null","sound/msl/Water.wav","null","audio-keyboard-response","270","154196","0.0-1.0-269.0","",""
"null","sound/msl/duck.wav","null","audio-keyboard-response","271","154717","0.0-1.0-270.0","",""
"null","sound/msl/cat.wav","null","audio-keyboard-response","272","155226","0.0-1.0-271.0","",""
"null","sound/msl/door.wav","null","audio-keyboard-response","273","155737","0.0-1.0-272.0","",""
"null","sound/msl/dog.wav","null","audio-keyboard-response","274","156257","0.0-1.0-273.0","",""
"null","sound/msl/door_bell.wav","null","audio-keyboard-response","275","156766","0.0-1.0-274.0","",""
"null","sound/msl/boing.wav","null","audio-keyboard-response","276","157276","0.0-1.0-275.0","",""
"null","sound/msl/organ.wav","null","audio-keyboard-response","277","157787","0.0-1.0-276.0","",""
"null","sound/msl/ding.wav","null","audio-keyboard-response","278","158296","0.0-1.0-277.0","",""
"null","sound/msl/clock.wav","null","audio-keyboard-response","279","158856","0.0-1.0-278.0","",""
"null","sound/msl/cow.wav","null","audio-keyboard-response","280","159376","0.0-1.0-279.0","",""
"null","sound/msl/bird.wav","null","audio-keyboard-response","281","159897","0.0-1.0-280.0","",""
"null","sound/msl/frog.wav","null","audio-keyboard-response","282","160407","0.0-1.0-281.0","",""
"null","sound/msl/duck.wav","null","audio-keyboard-response","283","160926","0.0-1.0-282.0","",""
"null","sound/msl/cat.wav","null","audio-keyboard-response","284","161437","0.0-1.0-283.0","",""
"null","sound/msl/door.wav","null","audio-keyboard-response","285","161946","0.0-1.0-284.0","",""
"null","sound/msl/slide_whistle.wav","null","audio-keyboard-response","286","162456","0.0-1.0-285.0","",""
"null","sound/msl/goat.wav","null","audio-keyboard-response","287","162996","0.0-1.0-286.0","",""
"null","sound/msl/Water.wav","null","audio-keyboard-response","288","163517","0.0-1.0-287.0","",""
"null","sound/msl/dog.wav","null","audio-keyboard-response","289","164037","0.0-1.0-288.0","",""
"null","sound/msl/door_bell.wav","null","audio-keyboard-response","290","164557","0.0-1.0-289.0","",""
"null","sound/msl/boing.wav","null","audio-keyboard-response","291","165066","0.0-1.0-290.0","",""
"null","sound/msl/cow.wav","null","audio-keyboard-response","292","165587","0.0-1.0-291.0","",""
"null","sound/msl/bird.wav","null","audio-keyboard-response","293","166106","0.0-1.0-292.0","",""
"null","sound/msl/frog.wav","null","audio-keyboard-response","294","166626","0.0-1.0-293.0","",""
"null","sound/msl/organ.wav","null","audio-keyboard-response","295","167136","0.0-1.0-294.0","",""
"null","sound/msl/ding.wav","null","audio-keyboard-response","296","167656","0.0-1.0-295.0","",""
"null","sound/msl/clock.wav","null","audio-keyboard-response","297","168216","0.0-1.0-296.0","",""
"null","sound/msl/dog.wav","null","audio-keyboard-response","298","168736","0.0-1.0-297.0","",""
"null","sound/msl/door_bell.wav","null","audio-keyboard-response","299","169257","0.0-1.0-298.0","",""
"null","sound/msl/boing.wav","null","audio-keyboard-response","300","169766","0.0-1.0-299.0","",""
"null","sound/msl/duck.wav","null","audio-keyboard-response","301","170286","0.0-1.0-300.0","",""
"null","sound/msl/cat.wav","null","audio-keyboard-response","302","170797","0.0-1.0-301.0","",""
"null","sound/msl/door.wav","null","audio-keyboard-response","303","171306","0.0-1.0-302.0","",""
"null","sound/msl/cow.wav","null","audio-keyboard-response","304","171816","0.0-1.0-303.0","",""
"null","sound/msl/bird.wav","null","audio-keyboard-response","305","172336","0.0-1.0-304.0","",""
"null","sound/msl/frog.wav","null","audio-keyboard-response","306","172847","0.0-1.0-305.0","",""
"null","sound/msl/slide_whistle.wav","null","audio-keyboard-response","307","173356","0.0-1.0-306.0","",""
"null","sound/msl/goat.wav","null","audio-keyboard-response","308","173907","0.0-1.0-307.0","",""
"null","sound/msl/Water.wav","null","audio-keyboard-response","309","174427","0.0-1.0-308.0","",""
"null","sound/msl/organ.wav","null","audio-keyboard-response","310","174936","0.0-1.0-309.0","",""
"null","sound/msl/ding.wav","null","audio-keyboard-response","311","175457","0.0-1.0-310.0","",""
"null","sound/msl/clock.wav","null","audio-keyboard-response","312","176017","0.0-1.0-311.0","",""
"null","sound/msl/dog.wav","null","audio-keyboard-response","313","176536","0.0-1.0-312.0","",""
"null","sound/msl/door_bell.wav","null","audio-keyboard-response","314","177046","0.0-1.0-313.0","",""
"null","sound/msl/boing.wav","null","audio-keyboard-response","315","177557","0.0-1.0-314.0","",""
"null","sound/msl/duck.wav","null","audio-keyboard-response","316","178076","0.0-1.0-315.0","",""
"null","sound/msl/cat.wav","null","audio-keyboard-response","317","178587","0.0-1.0-316.0","",""
"null","sound/msl/door.wav","null","audio-keyboard-response","318","179096","0.0-1.0-317.0","",""
"null","sound/msl/cow.wav","null","audio-keyboard-response","319","179606","0.0-1.0-318.0","",""
"null","sound/msl/bird.wav","null","audio-keyboard-response","320","180126","0.0-1.0-319.0","",""
"null","sound/msl/frog.wav","null","audio-keyboard-response","321","180647","0.0-1.0-320.0","",""
"null","sound/msl/organ.wav","null","audio-keyboard-response","322","181157","0.0-1.0-321.0","",""
"null","sound/msl/ding.wav","null","audio-keyboard-response","323","181676","0.0-1.0-322.0","",""
"null","sound/msl/clock.wav","null","audio-keyboard-response","324","182236","0.0-1.0-323.0","",""
"null","sound/msl/duck.wav","null","audio-keyboard-response","325","182757","0.0-1.0-324.0","",""
"null","sound/msl/cat.wav","null","audio-keyboard-response","326","183266","0.0-1.0-325.0","",""
"null","sound/msl/door.wav","null","audio-keyboard-response","327","183776","0.0-1.0-326.0","",""
"null","sound/msl/slide_whistle.wav","null","audio-keyboard-response","328","184287","0.0-1.0-327.0","",""
"null","sound/msl/goat.wav","null","audio-keyboard-response","329","184826","0.0-1.0-328.0","",""
"null","sound/msl/Water.wav","null","audio-keyboard-response","330","185347","0.0-1.0-329.0","",""
"null","sound/msl/dog.wav","null","audio-keyboard-response","331","185971","0.0-1.0-330.0","",""
"null","sound/msl/door_bell.wav","null","audio-keyboard-response","332","186495","0.0-1.0-331.0","",""
"null","sound/msl/boing.wav","null","audio-keyboard-response","333","186996","0.0-1.0-332.0","",""
"null","sound/msl/cow.wav","null","audio-keyboard-response","334","187516","0.0-1.0-333.0","",""
"null","sound/msl/bird.wav","null","audio-keyboard-response","335","188025","0.0-1.0-334.0","",""
"null","sound/msl/frog.wav","null","audio-keyboard-response","336","188546","0.0-1.0-335.0","",""
"null","sound/msl/slide_whistle.wav","null","audio-keyboard-response","337","189056","0.0-1.0-336.0","",""
"null","sound/msl/goat.wav","null","audio-keyboard-response","338","189605","0.0-1.0-337.0","",""
"null","sound/msl/Water.wav","null","audio-keyboard-response","339","190126","0.0-1.0-338.0","",""
"null","sound/msl/organ.wav","null","audio-keyboard-response","340","190636","0.0-1.0-339.0","",""
"null","sound/msl/ding.wav","null","audio-keyboard-response","341","191146","0.0-1.0-340.0","",""
"null","sound/msl/clock.wav","null","audio-keyboard-response","342","191706","0.0-1.0-341.0","",""
"null","sound/msl/cow.wav","null","audio-keyboard-response","343","192227","0.0-1.0-342.0","",""
"null","sound/msl/bird.wav","null","audio-keyboard-response","344","192748","0.0-1.0-343.0","",""
"null","sound/msl/frog.wav","null","audio-keyboard-response","345","193267","0.0-1.0-344.0","",""
"null","sound/msl/organ.wav","null","audio-keyboard-response","346","193776","0.0-1.0-345.0","",""
"null","sound/msl/ding.wav","null","audio-keyboard-response","347","194296","0.0-1.0-346.0","",""
"null","sound/msl/clock.wav","null","audio-keyboard-response","348","194856","0.0-1.0-347.0","",""
"null","sound/msl/slide_whistle.wav","null","audio-keyboard-response","349","195366","0.0-1.0-348.0","",""
"null","sound/msl/goat.wav","null","audio-keyboard-response","350","195917","0.0-1.0-349.0","",""
"null","sound/msl/Water.wav","null","audio-keyboard-response","351","196438","0.0-1.0-350.0","",""
"null","sound/msl/dog.wav","null","audio-keyboard-response","352","196956","0.0-1.0-351.0","",""
"null","sound/msl/door_bell.wav","null","audio-keyboard-response","353","197478","0.0-1.0-352.0","",""
"null","sound/msl/boing.wav","null","audio-keyboard-response","354","197986","0.0-1.0-353.0","",""
"null","sound/msl/cow.wav","null","audio-keyboard-response","355","198507","0.0-1.0-354.0","",""
"null","sound/msl/bird.wav","null","audio-keyboard-response","356","199026","0.0-1.0-355.0","",""
"null","sound/msl/frog.wav","null","audio-keyboard-response","357","199547","0.0-1.0-356.0","",""
"null","sound/msl/organ.wav","null","audio-keyboard-response","358","200056","0.0-1.0-357.0","",""
"null","sound/msl/ding.wav","null","audio-keyboard-response","359","200576","0.0-1.0-358.0","",""
"null","sound/msl/clock.wav","null","audio-keyboard-response","360","201141","0.0-1.0-359.0","",""
"2317","Instructions2-eng.png","49","image-keyboard-response","361","203461","0.0-2.0","",""
"null","sound/msl/duck.wav","null","audio-keyboard-response","362","203977","0.0-3.0-0.0","",""
"null","sound/msl/goat.wav","null","audio-keyboard-response","363","204517","0.0-3.0-1.0","",""
"null","sound/msl/frog.wav","null","audio-keyboard-response","364","205026","0.0-3.0-2.0","",""
"258","sound/asl/silence.wav","182","audio-keyboard-response","365","205293","0.0-3.0-3.0","",""
"null","sound/msl/slide_whistle.wav","null","audio-keyboard-response","366","205797","0.0-3.0-4.0","",""
"null","sound/msl/goat.wav","null","audio-keyboard-response","367","206336","0.0-3.0-5.0","",""
"null","sound/msl/Water.wav","null","audio-keyboard-response","368","206857","0.0-3.0-6.0","",""
"1370","sound/asl/silence.wav","50","audio-keyboard-response","369","208233","0.0-3.0-7.0","true",""
"null","sound/msl/slide_whistle.wav","null","audio-keyboard-response","370","208736","0.0-4.0-0.0","",""
"null","sound/msl/goat.wav","null","audio-keyboard-response","371","209276","0.0-4.0-1.0","",""
"null","sound/msl/Water.wav","null","audio-keyboard-response","372","209796","0.0-4.0-2.0","",""
"null","sound/asl/silence.wav","null","audio-keyboard-response","373","210298","0.0-4.0-3.0","",""
"null","sound/msl/organ.wav","null","audio-keyboard-response","374","210807","0.0-4.0-4.0","",""
"null","sound/msl/cat.wav","null","audio-keyboard-response","375","211317","0.0-4.0-5.0","",""
"null","sound/msl/Water.wav","null","audio-keyboard-response","376","211836","0.0-4.0-6.0","",""
"430","sound/asl/silence.wav","50","audio-keyboard-response","377","212267","0.0-4.0-7.0","false",""
"null","sound/msl/dog.wav","null","audio-keyboard-response","378","212776","0.0-5.0-0.0","",""
"null","sound/msl/door_bell.wav","null","audio-keyboard-response","379","213296","0.0-5.0-1.0","",""
"null","sound/msl/boing.wav","null","audio-keyboard-response","380","213807","0.0-5.0-2.0","",""
"null","sound/asl/silence.wav","null","audio-keyboard-response","381","214308","0.0-5.0-3.0","",""
"null","sound/msl/dog.wav","null","audio-keyboard-response","382","214816","0.0-5.0-4.0","",""
"null","sound/msl/ding.wav","null","audio-keyboard-response","383","215337","0.0-5.0-5.0","",""
"null","sound/msl/door.wav","null","audio-keyboard-response","384","215846","0.0-5.0-6.0","",""
"601","sound/asl/silence.wav","49","audio-keyboard-response","385","216447","0.0-5.0-7.0","true",""
"null","sound/msl/organ.wav","null","audio-keyboard-response","386","216957","0.0-6.0-0.0","",""
"null","sound/msl/ding.wav","null","audio-keyboard-response","387","217466","0.0-6.0-1.0","",""
"null","sound/msl/clock.wav","null","audio-keyboard-response","388","218026","0.0-6.0-2.0","",""
"198","sound/asl/silence.wav","183","audio-keyboard-response","389","218228","0.0-6.0-3.0","",""
"null","sound/msl/dog.wav","null","audio-keyboard-response","390","218746","0.0-6.0-4.0","",""
"null","sound/msl/ding.wav","null","audio-keyboard-response","391","219266","0.0-6.0-5.0","",""
"null","sound/msl/door.wav","null","audio-keyboard-response","392","219776","0.0-6.0-6.0","",""
"462","sound/asl/silence.wav","49","audio-keyboard-response","393","220240","0.0-6.0-7.0","true",""
"null","sound/msl/dog.wav","null","audio-keyboard-response","394","220746","0.0-7.0-0.0","",""
"null","sound/msl/door_bell.wav","null","audio-keyboard-response","395","221266","0.0-7.0-1.0","",""
"null","sound/msl/boing.wav","null","audio-keyboard-response","396","221776","0.0-7.0-2.0","",""
"null","sound/asl/silence.wav","null","audio-keyboard-response","397","222277","0.0-7.0-3.0","",""
"null","sound/msl/duck.wav","null","audio-keyboard-response","398","222797","0.0-7.0-4.0","",""
"null","sound/msl/goat.wav","null","audio-keyboard-response","399","223336","0.0-7.0-5.0","",""
"null","sound/msl/frog.wav","null","audio-keyboard-response","400","223847","0.0-7.0-6.0","",""
"589","sound/asl/silence.wav","50","audio-keyboard-response","401","224437","0.0-7.0-7.0","false",""
"null","sound/msl/cow.wav","null","audio-keyboard-response","402","224946","0.0-8.0-0.0","",""
"null","sound/msl/door_bell.wav","null","audio-keyboard-response","403","225467","0.0-8.0-1.0","",""
"null","sound/msl/clock.wav","null","audio-keyboard-response","404","226027","0.0-8.0-2.0","",""
"null","sound/asl/silence.wav","null","audio-keyboard-response","405","226528","0.0-8.0-3.0","",""
"null","sound/msl/slide_whistle.wav","null","audio-keyboard-response","406","227037","0.0-8.0-4.0","",""
"null","sound/msl/goat.wav","null","audio-keyboard-response","407","227576","0.0-8.0-5.0","",""
"null","sound/msl/Water.wav","null","audio-keyboard-response","408","228097","0.0-8.0-6.0","",""
"860","sound/asl/silence.wav","49","audio-keyboard-response","409","228959","0.0-8.0-7.0","false",""
"null","sound/msl/dog.wav","null","audio-keyboard-response","410","229476","0.0-9.0-0.0","",""
"null","sound/msl/ding.wav","null","audio-keyboard-response","411","229996","0.0-9.0-1.0","",""
"null","sound/msl/door.wav","null","audio-keyboard-response","412","230507","0.0-9.0-2.0","",""
"null","sound/asl/silence.wav","null","audio-keyboard-response","413","231007","0.0-9.0-3.0","",""
"null","sound/msl/duck.wav","null","audio-keyboard-response","414","231527","0.0-9.0-4.0","",""
"null","sound/msl/cat.wav","null","audio-keyboard-response","415","232036","0.0-9.0-5.0","",""
"null","sound/msl/door.wav","null","audio-keyboard-response","416","232546","0.0-9.0-6.0","",""
"658","sound/asl/silence.wav","50","audio-keyboard-response","417","233207","0.0-9.0-7.0","true",""
"null","sound/msl/organ.wav","null","audio-keyboard-response","418","233716","0.0-10.0-0.0","",""
"null","sound/msl/cat.wav","null","audio-keyboard-response","419","234226","0.0-10.0-1.0","",""
"null","sound/msl/Water.wav","null","audio-keyboard-response","420","234746","0.0-10.0-2.0","",""
"null","sound/asl/silence.wav","null","audio-keyboard-response","421","235247","0.0-10.0-3.0","",""
"null","sound/msl/organ.wav","null","audio-keyboard-response","422","235756","0.0-10.0-4.0","",""
"null","sound/msl/ding.wav","null","audio-keyboard-response","423","236266","0.0-10.0-5.0","",""
"null","sound/msl/clock.wav","null","audio-keyboard-response","424","236826","0.0-10.0-6.0","",""
"700","sound/asl/silence.wav","50","audio-keyboard-response","425","237535","0.0-10.0-7.0","true",""
"null","sound/msl/organ.wav","null","audio-keyboard-response","426","238046","0.0-11.0-0.0","",""
"null","sound/msl/ding.wav","null","audio-keyboard-response","427","238556","0.0-11.0-1.0","",""
"null","sound/msl/clock.wav","null","audio-keyboard-response","428","239116","0.0-11.0-2.0","",""
"null","sound/asl/silence.wav","null","audio-keyboard-response","429","239618","0.0-11.0-3.0","",""
"null","sound/msl/cow.wav","null","audio-keyboard-response","430","240127","0.0-11.0-4.0","",""
"null","sound/msl/door_bell.wav","null","audio-keyboard-response","431","240646","0.0-11.0-5.0","",""
"null","sound/msl/clock.wav","null","audio-keyboard-response","432","241206","0.0-11.0-6.0","",""
"478","sound/asl/silence.wav","49","audio-keyboard-response","433","241690","0.0-11.0-7.0","true",""
"null","sound/msl/slide_whistle.wav","null","audio-keyboard-response","434","242196","0.0-12.0-0.0","",""
"null","sound/msl/bird.wav","null","audio-keyboard-response","435","242706","0.0-12.0-1.0","",""
"null","sound/msl/boing.wav","null","audio-keyboard-response","436","243216","0.0-12.0-2.0","",""
"null","sound/asl/silence.wav","null","audio-keyboard-response","437","243719","0.0-12.0-3.0","",""
"null","sound/msl/slide_whistle.wav","null","audio-keyboard-response","438","244227","0.0-12.0-4.0","",""
"null","sound/msl/goat.wav","null","audio-keyboard-response","439","244777","0.0-12.0-5.0","",""
"null","sound/msl/Water.wav","null","audio-keyboard-response","440","245296","0.0-12.0-6.0","",""
"750","sound/asl/silence.wav","49","audio-keyboard-response","441","246054","0.0-12.0-7.0","false",""
"null","sound/msl/cow.wav","null","audio-keyboard-response","442","246566","0.0-13.0-0.0","",""
"null","sound/msl/bird.wav","null","audio-keyboard-response","443","247087","0.0-13.0-1.0","",""
"null","sound/msl/frog.wav","null","audio-keyboard-response","444","247607","0.0-13.0-2.0","",""
"null","sound/asl/silence.wav","null","audio-keyboard-response","445","248108","0.0-13.0-3.0","",""
"null","sound/msl/cow.wav","null","audio-keyboard-response","446","248617","0.0-13.0-4.0","",""
"null","sound/msl/door_bell.wav","null","audio-keyboard-response","447","249136","0.0-13.0-5.0","",""
"null","sound/msl/clock.wav","null","audio-keyboard-response","448","249696","0.0-13.0-6.0","",""
"561","sound/asl/silence.wav","50","audio-keyboard-response","449","250262","0.0-13.0-7.0","false",""
"null","sound/msl/duck.wav","null","audio-keyboard-response","450","250777","0.0-14.0-0.0","",""
"null","sound/msl/cat.wav","null","audio-keyboard-response","451","251287","0.0-14.0-1.0","",""
"null","sound/msl/door.wav","null","audio-keyboard-response","452","251796","0.0-14.0-2.0","",""
"null","sound/asl/silence.wav","null","audio-keyboard-response","453","252298","0.0-14.0-3.0","",""
"null","sound/msl/slide_whistle.wav","null","audio-keyboard-response","454","252806","0.0-14.0-4.0","",""
"null","sound/msl/bird.wav","null","audio-keyboard-response","455","253326","0.0-14.0-5.0","",""
"null","sound/msl/boing.wav","null","audio-keyboard-response","456","253836","0.0-14.0-6.0","",""
"899","sound/asl/silence.wav","50","audio-keyboard-response","457","254745","0.0-14.0-7.0","false",""
"null","sound/msl/duck.wav","null","audio-keyboard-response","458","255267","0.0-15.0-0.0","",""
"null","sound/msl/cat.wav","null","audio-keyboard-response","459","255777","0.0-15.0-1.0","",""
"null","sound/msl/door.wav","null","audio-keyboard-response","460","256286","0.0-15.0-2.0","",""
"null","sound/asl/silence.wav","null","audio-keyboard-response","461","256788","0.0-15.0-3.0","",""
"null","sound/msl/organ.wav","null","audio-keyboard-response","462","257298","0.0-15.0-4.0","",""
"null","sound/msl/cat.wav","null","audio-keyboard-response","463","257807","0.0-15.0-5.0","",""
"null","sound/msl/Water.wav","null","audio-keyboard-response","464","258326","0.0-15.0-6.0","",""
"440","sound/asl/silence.wav","49","audio-keyboard-response","465","258775","0.0-15.0-7.0","true",""
"null","sound/msl/slide_whistle.wav","null","audio-keyboard-response","466","259288","0.0-16.0-0.0","",""
"null","sound/msl/bird.wav","null","audio-keyboard-response","467","259797","0.0-16.0-1.0","",""
"null","sound/msl/boing.wav","null","audio-keyboard-response","468","260306","0.0-16.0-2.0","",""
"null","sound/asl/silence.wav","null","audio-keyboard-response","469","260808","0.0-16.0-3.0","",""
"null","sound/msl/organ.wav","null","audio-keyboard-response","470","261317","0.0-16.0-4.0","",""
"null","sound/msl/ding.wav","null","audio-keyboard-response","471","261839","0.0-16.0-5.0","",""
"null","sound/msl/clock.wav","null","audio-keyboard-response","472","262397","0.0-16.0-6.0","",""
"1051","sound/asl/silence.wav","50","audio-keyboard-response","473","263448","0.0-16.0-7.0","true",""
"null","sound/msl/duck.wav","null","audio-keyboard-response","474","263966","0.0-17.0-0.0","",""
"null","sound/msl/cat.wav","null","audio-keyboard-response","475","264477","0.0-17.0-1.0","",""
"null","sound/msl/door.wav","null","audio-keyboard-response","476","264987","0.0-17.0-2.0","",""
"null","sound/asl/silence.wav","null","audio-keyboard-response","477","265489","0.0-17.0-3.0","",""
"null","sound/msl/duck.wav","null","audio-keyboard-response","478","265997","0.0-17.0-4.0","",""
"null","sound/msl/goat.wav","null","audio-keyboard-response","479","266536","0.0-17.0-5.0","",""
"null","sound/msl/frog.wav","null","audio-keyboard-response","480","267056","0.0-17.0-6.0","",""
"510","sound/asl/silence.wav","49","audio-keyboard-response","481","267577","0.0-17.0-7.0","true",""
"null","sound/msl/cow.wav","null","audio-keyboard-response","482","268086","0.0-18.0-0.0","",""
"null","sound/msl/door_bell.wav","null","audio-keyboard-response","483","268607","0.0-18.0-1.0","",""
"null","sound/msl/clock.wav","null","audio-keyboard-response","484","269167","0.0-18.0-2.0","",""
"null","sound/asl/silence.wav","null","audio-keyboard-response","485","269668","0.0-18.0-3.0","",""
"null","sound/msl/duck.wav","null","audio-keyboard-response","486","270186","0.0-18.0-4.0","",""
"null","sound/msl/cat.wav","null","audio-keyboard-response","487","270697","0.0-18.0-5.0","",""
"null","sound/msl/door.wav","null","audio-keyboard-response","488","271207","0.0-18.0-6.0","",""
"2761","sound/asl/silence.wav","49","audio-keyboard-response","489","273969","0.0-18.0-7.0","false",""
"null","sound/msl/dog.wav","null","audio-keyboard-response","490","274487","0.0-19.0-0.0","",""
"null","sound/msl/door_bell.wav","null","audio-keyboard-response","491","275007","0.0-19.0-1.0","",""
"null","sound/msl/boing.wav","null","audio-keyboard-response","492","275517","0.0-19.0-2.0","",""
"null","sound/asl/silence.wav","null","audio-keyboard-response","493","276018","0.0-19.0-3.0","",""
"null","sound/msl/cow.wav","null","audio-keyboard-response","494","276526","0.0-19.0-4.0","",""
"null","sound/msl/door_bell.wav","null","audio-keyboard-response","495","277047","0.0-19.0-5.0","",""
"null","sound/msl/clock.wav","null","audio-keyboard-response","496","277607","0.0-19.0-6.0","",""
"680","sound/asl/silence.wav","50","audio-keyboard-response","497","278293","0.0-19.0-7.0","false",""
"null","sound/msl/slide_whistle.wav","null","audio-keyboard-response","498","278807","0.0-20.0-0.0","",""
"null","sound/msl/bird.wav","null","audio-keyboard-response","499","279327","0.0-20.0-1.0","",""
"null","sound/msl/boing.wav","null","audio-keyboard-response","500","279836","0.0-20.0-2.0","",""
"null","sound/asl/silence.wav","null","audio-keyboard-response","501","280338","0.0-20.0-3.0","",""
"null","sound/msl/dog.wav","null","audio-keyboard-response","502","280857","0.0-20.0-4.0","",""
"null","sound/msl/door_bell.wav","null","audio-keyboard-response","503","281376","0.0-20.0-5.0","",""
"null","sound/msl/boing.wav","null","audio-keyboard-response","504","281887","0.0-20.0-6.0","",""
"539","sound/asl/silence.wav","49","audio-keyboard-response","505","282434","0.0-20.0-7.0","false",""
"null","sound/msl/organ.wav","null","audio-keyboard-response","506","282946","0.0-21.0-0.0","",""
"null","sound/msl/cat.wav","null","audio-keyboard-response","507","283456","0.0-21.0-1.0","",""
"null","sound/msl/Water.wav","null","audio-keyboard-response","508","283976","0.0-21.0-2.0","",""
"null","sound/asl/silence.wav","null","audio-keyboard-response","509","284479","0.0-21.0-3.0","",""
"null","sound/msl/cow.wav","null","audio-keyboard-response","510","284997","0.0-21.0-4.0","",""
"null","sound/msl/bird.wav","null","audio-keyboard-response","511","285517","0.0-21.0-5.0","",""
"null","sound/msl/frog.wav","null","audio-keyboard-response","512","286026","0.0-21.0-6.0","",""
"548","sound/asl/silence.wav","49","audio-keyboard-response","513","286578","0.0-21.0-7.0","false",""
"null","sound/msl/slide_whistle.wav","null","audio-keyboard-response","514","287087","0.0-22.0-0.0","",""
"null","sound/msl/bird.wav","null","audio-keyboard-response","515","287596","0.0-22.0-1.0","",""
"null","sound/msl/boing.wav","null","audio-keyboard-response","516","288106","0.0-22.0-2.0","",""
"null","sound/asl/silence.wav","null","audio-keyboard-response","517","288608","0.0-22.0-3.0","",""
"null","sound/msl/cow.wav","null","audio-keyboard-response","518","289126","0.0-22.0-4.0","",""
"null","sound/msl/bird.wav","null","audio-keyboard-response","519","289646","0.0-22.0-5.0","",""
"null","sound/msl/frog.wav","null","audio-keyboard-response","520","290156","0.0-22.0-6.0","",""
"3558","sound/asl/silence.wav","50","audio-keyboard-response","521","293723","0.0-22.0-7.0","true",""
"null","sound/msl/slide_whistle.wav","null","audio-keyboard-response","522","294227","0.0-23.0-0.0","",""
"null","sound/msl/goat.wav","null","audio-keyboard-response","523","294766","0.0-23.0-1.0","",""
"null","sound/msl/Water.wav","null","audio-keyboard-response","524","295287","0.0-23.0-2.0","",""
"null","sound/asl/silence.wav","null","audio-keyboard-response","525","295787","0.0-23.0-3.0","",""
"null","sound/msl/dog.wav","null","audio-keyboard-response","526","296307","0.0-23.0-4.0","",""
"null","sound/msl/ding.wav","null","audio-keyboard-response","527","296826","0.0-23.0-5.0","",""
"null","sound/msl/door.wav","null","audio-keyboard-response","528","297336","0.0-23.0-6.0","",""
"843","sound/asl/silence.wav","49","audio-keyboard-response","529","298183","0.0-23.0-7.0","true",""
"null","sound/msl/organ.wav","null","audio-keyboard-response","530","298686","0.0-24.0-0.0","",""
"null","sound/msl/cat.wav","null","audio-keyboard-response","531","299196","0.0-24.0-1.0","",""
"null","sound/msl/Water.wav","null","audio-keyboard-response","532","299717","0.0-24.0-2.0","",""
"null","sound/asl/silence.wav","null","audio-keyboard-response","533","300218","0.0-24.0-3.0","",""
"null","sound/msl/dog.wav","null","audio-keyboard-response","534","300736","0.0-24.0-4.0","",""
"null","sound/msl/door_bell.wav","null","audio-keyboard-response","535","301257","0.0-24.0-5.0","",""
"null","sound/msl/boing.wav","null","audio-keyboard-response","536","301767","0.0-24.0-6.0","",""
"597","sound/asl/silence.wav","49","audio-keyboard-response","537","302372","0.0-24.0-7.0","false",""
"null","sound/msl/duck.wav","null","audio-keyboard-response","538","302887","0.0-25.0-0.0","",""
"null","sound/msl/goat.wav","null","audio-keyboard-response","539","303437","0.0-25.0-1.0","",""
"null","sound/msl/frog.wav","null","audio-keyboard-response","540","303947","0.0-25.0-2.0","",""
"null","sound/asl/silence.wav","null","audio-keyboard-response","541","304447","0.0-25.0-3.0","",""
"null","sound/msl/cow.wav","null","audio-keyboard-response","542","304957","0.0-25.0-4.0","",""
"null","sound/msl/bird.wav","null","audio-keyboard-response","543","305476","0.0-25.0-5.0","",""
"null","sound/msl/frog.wav","null","audio-keyboard-response","544","305997","0.0-25.0-6.0","",""
"690","sound/asl/silence.wav","50","audio-keyboard-response","545","306691","0.0-25.0-7.0","true",""
"null","sound/msl/cow.wav","null","audio-keyboard-response","546","307207","0.0-26.0-0.0","",""
"null","sound/msl/bird.wav","null","audio-keyboard-response","547","307717","0.0-26.0-1.0","",""
"null","sound/msl/frog.wav","null","audio-keyboard-response","548","308236","0.0-26.0-2.0","",""
"null","sound/asl/silence.wav","null","audio-keyboard-response","549","308738","0.0-26.0-3.0","",""
"null","sound/msl/dog.wav","null","audio-keyboard-response","550","309246","0.0-26.0-4.0","",""
"null","sound/msl/ding.wav","null","audio-keyboard-response","551","309766","0.0-26.0-5.0","",""
"null","sound/msl/door.wav","null","audio-keyboard-response","552","310277","0.0-26.0-6.0","",""
"589","sound/asl/silence.wav","49","audio-keyboard-response","553","310873","0.0-26.0-7.0","true",""
"null","sound/msl/duck.wav","null","audio-keyboard-response","554","311376","0.0-27.0-0.0","",""
"null","sound/msl/goat.wav","null","audio-keyboard-response","555","311916","0.0-27.0-1.0","",""
"null","sound/msl/frog.wav","null","audio-keyboard-response","556","312436","0.0-27.0-2.0","",""
"null","sound/asl/silence.wav","null","audio-keyboard-response","557","312938","0.0-27.0-3.0","",""
"null","sound/msl/organ.wav","null","audio-keyboard-response","558","313447","0.0-27.0-4.0","",""
"null","sound/msl/ding.wav","null","audio-keyboard-response","559","313967","0.0-27.0-5.0","",""
"null","sound/msl/clock.wav","null","audio-keyboard-response","560","314527","0.0-27.0-6.0","",""
"549","sound/asl/silence.wav","50","audio-keyboard-response","561","315079","0.0-27.0-7.0","true",""
"2971","","","instructions","562","318050","0.0-28.0","","[{""page_index"":0,""viewing_time"":2970}]"
