"rt","stimulus","key_press","trial_type","trial_index","time_elapsed","internal_node_id","correct","view_history"
"5879","alien.jpg","49","image-keyboard-response","0","5879","0.0-0.0","",""
"null","sound/msl/dog.wav","null","audio-keyboard-response","1","6382","0.0-1.0-0.0","",""
"null","sound/msl/organ.wav","null","audio-keyboard-response","2","6882","0.0-1.0-1.0","",""
"null","sound/msl/clock.wav","null","audio-keyboard-response","3","7433","0.0-1.0-2.0","",""
"null","sound/msl/slide_whistle.wav","null","audio-keyboard-response","4","7932","0.0-1.0-3.0","",""
"null","sound/msl/cow.wav","null","audio-keyboard-response","5","8437","0.0-1.0-4.0","",""
"null","sound/msl/cat.wav","null","audio-keyboard-response","6","8930","0.0-1.0-5.0","",""
"null","sound/msl/frog.wav","null","audio-keyboard-response","7","9436","0.0-1.0-6.0","",""
"null","sound/msl/goat.wav","null","audio-keyboard-response","8","9969","0.0-1.0-7.0","",""
"null","sound/msl/door.wav","null","audio-keyboard-response","9","10468","0.0-1.0-8.0","",""
"null","sound/msl/Water.wav","null","audio-keyboard-response","10","10980","0.0-1.0-9.0","",""
"null","sound/msl/ding.wav","null","audio-keyboard-response","11","11484","0.0-1.0-10.0","",""
"null","sound/msl/door_bell.wav","null","audio-keyboard-response","12","11990","0.0-1.0-11.0","",""
"null","sound/msl/slide_whistle.wav","null","audio-keyboard-response","13","12488","0.0-1.0-12.0","",""
"null","sound/msl/cow.wav","null","audio-keyboard-response","14","12994","0.0-1.0-13.0","",""
"null","sound/msl/cat.wav","null","audio-keyboard-response","15","13487","0.0-1.0-14.0","",""
"null","sound/msl/dog.wav","null","audio-keyboard-response","16","13992","0.0-1.0-15.0","",""
"null","sound/msl/organ.wav","null","audio-keyboard-response","17","14491","0.0-1.0-16.0","",""
"null","sound/msl/clock.wav","null","audio-keyboard-response","18","15043","0.0-1.0-17.0","",""
"null","sound/msl/boing.wav","null","audio-keyboard-response","19","15543","0.0-1.0-18.0","",""
"null","sound/msl/bird.wav","null","audio-keyboard-response","20","16047","0.0-1.0-19.0","",""
"null","sound/msl/duck.wav","null","audio-keyboard-response","21","16553","0.0-1.0-20.0","",""
"null","sound/msl/Water.wav","null","audio-keyboard-response","22","17063","0.0-1.0-21.0","",""
"null","sound/msl/ding.wav","null","audio-keyboard-response","23","17568","0.0-1.0-22.0","",""
"null","sound/msl/door_bell.wav","null","audio-keyboard-response","24","18074","0.0-1.0-23.0","",""
"null","sound/msl/frog.wav","null","audio-keyboard-response","25","18579","0.0-1.0-24.0","",""
"null","sound/msl/goat.wav","null","audio-keyboard-response","26","19113","0.0-1.0-25.0","",""
"null","sound/msl/door.wav","null","audio-keyboard-response","27","19612","0.0-1.0-26.0","",""
"null","sound/msl/dog.wav","null","audio-keyboard-response","28","20117","0.0-1.0-27.0","",""
"null","sound/msl/organ.wav","null","audio-keyboard-response","29","20616","0.0-1.0-28.0","",""
"null","sound/msl/clock.wav","null","audio-keyboard-response","30","21168","0.0-1.0-29.0","",""
"null","sound/msl/slide_whistle.wav","null","audio-keyboard-response","31","21666","0.0-1.0-30.0","",""
"null","sound/msl/cow.wav","null","audio-keyboard-response","32","22172","0.0-1.0-31.0","",""
"null","sound/msl/cat.wav","null","audio-keyboard-response","33","22666","0.0-1.0-32.0","",""
"null","sound/msl/boing.wav","null","audio-keyboard-response","34","23165","0.0-1.0-33.0","",""
"null","sound/msl/bird.wav","null","audio-keyboard-response","35","23669","0.0-1.0-34.0","",""
"null","sound/msl/duck.wav","null","audio-keyboard-response","36","24175","0.0-1.0-35.0","",""
"null","sound/msl/frog.wav","null","audio-keyboard-response","37","24680","0.0-1.0-36.0","",""
"null","sound/msl/goat.wav","null","audio-keyboard-response","38","25213","0.0-1.0-37.0","",""
"null","sound/msl/door.wav","null","audio-keyboard-response","39","25713","0.0-1.0-38.0","",""
"null","sound/msl/Water.wav","null","audio-keyboard-response","40","26224","0.0-1.0-39.0","",""
"null","sound/msl/ding.wav","null","audio-keyboard-response","41","26728","0.0-1.0-40.0","",""
"null","sound/msl/door_bell.wav","null","audio-keyboard-response","42","27234","0.0-1.0-41.0","",""
"null","sound/msl/boing.wav","null","audio-keyboard-response","43","27733","0.0-1.0-42.0","",""
"null","sound/msl/bird.wav","null","audio-keyboard-response","44","28238","0.0-1.0-43.0","",""
"null","sound/msl/duck.wav","null","audio-keyboard-response","45","28744","0.0-1.0-44.0","",""
"null","sound/msl/slide_whistle.wav","null","audio-keyboard-response","46","29242","0.0-1.0-45.0","",""
"null","sound/msl/cow.wav","null","audio-keyboard-response","47","29747","0.0-1.0-46.0","",""
"null","sound/msl/cat.wav","null","audio-keyboard-response","48","30241","0.0-1.0-47.0","",""
"null","sound/msl/frog.wav","null","audio-keyboard-response","49","30746","0.0-1.0-48.0","",""
"null","sound/msl/goat.wav","null","audio-keyboard-response","50","31280","0.0-1.0-49.0","",""
"null","sound/msl/door.wav","null","audio-keyboard-response","51","31779","0.0-1.0-50.0","",""
"null","sound/msl/dog.wav","null","audio-keyboard-response","52","32285","0.0-1.0-51.0","",""
"null","sound/msl/organ.wav","null","audio-keyboard-response","53","32784","0.0-1.0-52.0","",""
"null","sound/msl/clock.wav","null","audio-keyboard-response","54","33335","0.0-1.0-53.0","",""
"null","sound/msl/slide_whistle.wav","null","audio-keyboard-response","55","33834","0.0-1.0-54.0","",""
"null","sound/msl/cow.wav","null","audio-keyboard-response","56","34340","0.0-1.0-55.0","",""
"null","sound/msl/cat.wav","null","audio-keyboard-response","57","34833","0.0-1.0-56.0","",""
"null","sound/msl/frog.wav","null","audio-keyboard-response","58","35339","0.0-1.0-57.0","",""
"null","sound/msl/goat.wav","null","audio-keyboard-response","59","35872","0.0-1.0-58.0","",""
"null","sound/msl/door.wav","null","audio-keyboard-response","60","36372","0.0-1.0-59.0","",""
"null","sound/msl/Water.wav","null","audio-keyboard-response","61","36882","0.0-1.0-60.0","",""
"null","sound/msl/ding.wav","null","audio-keyboard-response","62","37388","0.0-1.0-61.0","",""
"null","sound/msl/door_bell.wav","null","audio-keyboard-response","63","37892","0.0-1.0-62.0","",""
"null","sound/msl/boing.wav","null","audio-keyboard-response","64","38391","0.0-1.0-63.0","",""
"null","sound/msl/bird.wav","null","audio-keyboard-response","65","38897","0.0-1.0-64.0","",""
"null","sound/msl/duck.wav","null","audio-keyboard-response","66","39402","0.0-1.0-65.0","",""
"null","sound/msl/slide_whistle.wav","null","audio-keyboard-response","67","39900","0.0-1.0-66.0","",""
"null","sound/msl/cow.wav","null","audio-keyboard-response","68","40406","0.0-1.0-67.0","",""
"null","sound/msl/cat.wav","null","audio-keyboard-response","69","40899","0.0-1.0-68.0","",""
"null","sound/msl/dog.wav","null","audio-keyboard-response","70","41405","0.0-1.0-69.0","",""
"null","sound/msl/organ.wav","null","audio-keyboard-response","71","41904","0.0-1.0-70.0","",""
"null","sound/msl/clock.wav","null","audio-keyboard-response","72","42455","0.0-1.0-71.0","",""
"null","sound/msl/frog.wav","null","audio-keyboard-response","73","42960","0.0-1.0-72.0","",""
"null","sound/msl/goat.wav","null","audio-keyboard-response","74","43494","0.0-1.0-73.0","",""
"null","sound/msl/door.wav","null","audio-keyboard-response","75","43994","0.0-1.0-74.0","",""
"null","sound/msl/Water.wav","null","audio-keyboard-response","76","44504","0.0-1.0-75.0","",""
"null","sound/msl/ding.wav","null","audio-keyboard-response","77","45009","0.0-1.0-76.0","",""
"null","sound/msl/door_bell.wav","null","audio-keyboard-response","78","45515","0.0-1.0-77.0","",""
"null","sound/msl/frog.wav","null","audio-keyboard-response","79","46019","0.0-1.0-78.0","",""
"null","sound/msl/goat.wav","null","audio-keyboard-response","80","46553","0.0-1.0-79.0","",""
"null","sound/msl/door.wav","null","audio-keyboard-response","81","47053","0.0-1.0-80.0","",""
"null","sound/msl/boing.wav","null","audio-keyboard-response","82","47552","0.0-1.0-81.0","",""
"null","sound/msl/bird.wav","null","audio-keyboard-response","83","48057","0.0-1.0-82.0","",""
"null","sound/msl/duck.wav","null","audio-keyboard-response","84","48562","0.0-1.0-83.0","",""
"null","sound/msl/dog.wav","null","audio-keyboard-response","85","49067","0.0-1.0-84.0","",""
"null","sound/msl/organ.wav","null","audio-keyboard-response","86","49566","0.0-1.0-85.0","",""
"null","sound/msl/clock.wav","null","audio-keyboard-response","87","50118","0.0-1.0-86.0","",""
"null","sound/msl/slide_whistle.wav","null","audio-keyboard-response","88","50617","0.0-1.0-87.0","",""
"null","sound/msl/cow.wav","null","audio-keyboard-response","89","51122","0.0-1.0-88.0","",""
"null","sound/msl/cat.wav","null","audio-keyboard-response","90","51615","0.0-1.0-89.0","",""
"null","sound/msl/boing.wav","null","audio-keyboard-response","91","52115","0.0-1.0-90.0","",""
"null","sound/msl/bird.wav","null","audio-keyboard-response","92","52620","0.0-1.0-91.0","",""
"null","sound/msl/duck.wav","null","audio-keyboard-response","93","53125","0.0-1.0-92.0","",""
"null","sound/msl/Water.wav","null","audio-keyboard-response","94","53636","0.0-1.0-93.0","",""
"null","sound/msl/ding.wav","null","audio-keyboard-response","95","54140","0.0-1.0-94.0","",""
"null","sound/msl/door_bell.wav","null","audio-keyboard-response","96","54646","0.0-1.0-95.0","",""
"null","sound/msl/frog.wav","null","audio-keyboard-response","97","55151","0.0-1.0-96.0","",""
"null","sound/msl/goat.wav","null","audio-keyboard-response","98","55685","0.0-1.0-97.0","",""
"null","sound/msl/door.wav","null","audio-keyboard-response","99","56184","0.0-1.0-98.0","",""
"null","sound/msl/slide_whistle.wav","null","audio-keyboard-response","100","56683","0.0-1.0-99.0","",""
"null","sound/msl/cow.wav","null","audio-keyboard-response","101","57188","0.0-1.0-100.0","",""
"null","sound/msl/cat.wav","null","audio-keyboard-response","102","57682","0.0-1.0-101.0","",""
"null","sound/msl/boing.wav","null","audio-keyboard-response","103","58182","0.0-1.0-102.0","",""
"null","sound/msl/bird.wav","null","audio-keyboard-response","104","58687","0.0-1.0-103.0","",""
"null","sound/msl/duck.wav","null","audio-keyboard-response","105","59191","0.0-1.0-104.0","",""
"null","sound/msl/dog.wav","null","audio-keyboard-response","106","59696","0.0-1.0-105.0","",""
"null","sound/msl/organ.wav","null","audio-keyboard-response","107","60195","0.0-1.0-106.0","",""
"null","sound/msl/clock.wav","null","audio-keyboard-response","108","60747","0.0-1.0-107.0","",""
"null","sound/msl/slide_whistle.wav","null","audio-keyboard-response","109","61246","0.0-1.0-108.0","",""
"null","sound/msl/cow.wav","null","audio-keyboard-response","110","61752","0.0-1.0-109.0","",""
"null","sound/msl/cat.wav","null","audio-keyboard-response","111","62245","0.0-1.0-110.0","",""
"null","sound/msl/Water.wav","null","audio-keyboard-response","112","62756","0.0-1.0-111.0","",""
"null","sound/msl/ding.wav","null","audio-keyboard-response","113","63261","0.0-1.0-112.0","",""
"null","sound/msl/door_bell.wav","null","audio-keyboard-response","114","63766","0.0-1.0-113.0","",""
"null","sound/msl/boing.wav","null","audio-keyboard-response","115","64265","0.0-1.0-114.0","",""
"null","sound/msl/bird.wav","null","audio-keyboard-response","116","64770","0.0-1.0-115.0","",""
"null","sound/msl/duck.wav","null","audio-keyboard-response","117","65275","0.0-1.0-116.0","",""
"null","sound/msl/frog.wav","null","audio-keyboard-response","118","65780","0.0-1.0-117.0","",""
"null","sound/msl/goat.wav","null","audio-keyboard-response","119","66314","0.0-1.0-118.0","",""
"null","sound/msl/door.wav","null","audio-keyboard-response","120","66813","0.0-1.0-119.0","",""
"null","sound/msl/dog.wav","null","audio-keyboard-response","121","67319","0.0-1.0-120.0","",""
"null","sound/msl/organ.wav","null","audio-keyboard-response","122","67818","0.0-1.0-121.0","",""
"null","sound/msl/clock.wav","null","audio-keyboard-response","123","68370","0.0-1.0-122.0","",""
"null","sound/msl/slide_whistle.wav","null","audio-keyboard-response","124","68868","0.0-1.0-123.0","",""
"null","sound/msl/cow.wav","null","audio-keyboard-response","125","69374","0.0-1.0-124.0","",""
"null","sound/msl/cat.wav","null","audio-keyboard-response","126","69867","0.0-1.0-125.0","",""
"null","sound/msl/boing.wav","null","audio-keyboard-response","127","70366","0.0-1.0-126.0","",""
"null","sound/msl/bird.wav","null","audio-keyboard-response","128","70871","0.0-1.0-127.0","",""
"null","sound/msl/duck.wav","null","audio-keyboard-response","129","71377","0.0-1.0-128.0","",""
"null","sound/msl/Water.wav","null","audio-keyboard-response","130","71887","0.0-1.0-129.0","",""
"null","sound/msl/ding.wav","null","audio-keyboard-response","131","72392","0.0-1.0-130.0","",""
"null","sound/msl/door_bell.wav","null","audio-keyboard-response","132","72898","0.0-1.0-131.0","",""
"null","sound/msl/slide_whistle.wav","null","audio-keyboard-response","133","73396","0.0-1.0-132.0","",""
"null","sound/msl/cow.wav","null","audio-keyboard-response","134","73901","0.0-1.0-133.0","",""
"null","sound/msl/cat.wav","null","audio-keyboard-response","135","74395","0.0-1.0-134.0","",""
"null","sound/msl/frog.wav","null","audio-keyboard-response","136","74900","0.0-1.0-135.0","",""
"null","sound/msl/goat.wav","null","audio-keyboard-response","137","75434","0.0-1.0-136.0","",""
"null","sound/msl/door.wav","null","audio-keyboard-response","138","75933","0.0-1.0-137.0","",""
"null","sound/msl/Water.wav","null","audio-keyboard-response","139","76444","0.0-1.0-138.0","",""
"null","sound/msl/ding.wav","null","audio-keyboard-response","140","76949","0.0-1.0-139.0","",""
"null","sound/msl/door_bell.wav","null","audio-keyboard-response","141","77455","0.0-1.0-140.0","",""
"null","sound/msl/dog.wav","null","audio-keyboard-response","142","77959","0.0-1.0-141.0","",""
"null","sound/msl/organ.wav","null","audio-keyboard-response","143","78459","0.0-1.0-142.0","",""
"null","sound/msl/clock.wav","null","audio-keyboard-response","144","79010","0.0-1.0-143.0","",""
"null","sound/msl/boing.wav","null","audio-keyboard-response","145","79509","0.0-1.0-144.0","",""
"null","sound/msl/bird.wav","null","audio-keyboard-response","146","80015","0.0-1.0-145.0","",""
"null","sound/msl/duck.wav","null","audio-keyboard-response","147","80519","0.0-1.0-146.0","",""
"null","sound/msl/frog.wav","null","audio-keyboard-response","148","81024","0.0-1.0-147.0","",""
"null","sound/msl/goat.wav","null","audio-keyboard-response","149","81558","0.0-1.0-148.0","",""
"null","sound/msl/door.wav","null","audio-keyboard-response","150","82058","0.0-1.0-149.0","",""
"null","sound/msl/dog.wav","null","audio-keyboard-response","151","82563","0.0-1.0-150.0","",""
"null","sound/msl/organ.wav","null","audio-keyboard-response","152","83062","0.0-1.0-151.0","",""
"null","sound/msl/clock.wav","null","audio-keyboard-response","153","83613","0.0-1.0-152.0","",""
"null","sound/msl/slide_whistle.wav","null","audio-keyboard-response","154","84113","0.0-1.0-153.0","",""
"null","sound/msl/cow.wav","null","audio-keyboard-response","155","84618","0.0-1.0-154.0","",""
"null","sound/msl/cat.wav","null","audio-keyboard-response","156","85111","0.0-1.0-155.0","",""
"null","sound/msl/Water.wav","null","audio-keyboard-response","157","85622","0.0-1.0-156.0","",""
"null","sound/msl/ding.wav","null","audio-keyboard-response","158","86127","0.0-1.0-157.0","",""
"null","sound/msl/door_bell.wav","null","audio-keyboard-response","159","86632","0.0-1.0-158.0","",""
"null","sound/msl/boing.wav","null","audio-keyboard-response","160","87132","0.0-1.0-159.0","",""
"null","sound/msl/bird.wav","null","audio-keyboard-response","161","87637","0.0-1.0-160.0","",""
"null","sound/msl/duck.wav","null","audio-keyboard-response","162","88142","0.0-1.0-161.0","",""
"null","sound/msl/slide_whistle.wav","null","audio-keyboard-response","163","88641","0.0-1.0-162.0","",""
"null","sound/msl/cow.wav","null","audio-keyboard-response","164","89146","0.0-1.0-163.0","",""
"null","sound/msl/cat.wav","null","audio-keyboard-response","165","89639","0.0-1.0-164.0","",""
"null","sound/msl/Water.wav","null","audio-keyboard-response","166","90150","0.0-1.0-165.0","",""
"null","sound/msl/ding.wav","null","audio-keyboard-response","167","90656","0.0-1.0-166.0","",""
"null","sound/msl/door_bell.wav","null","audio-keyboard-response","168","91160","0.0-1.0-167.0","",""
"null","sound/msl/dog.wav","null","audio-keyboard-response","169","91666","0.0-1.0-168.0","",""
"null","sound/msl/organ.wav","null","audio-keyboard-response","170","92165","0.0-1.0-169.0","",""
"null","sound/msl/clock.wav","null","audio-keyboard-response","171","92716","0.0-1.0-170.0","",""
"null","sound/msl/frog.wav","null","audio-keyboard-response","172","93222","0.0-1.0-171.0","",""
"null","sound/msl/goat.wav","null","audio-keyboard-response","173","93756","0.0-1.0-172.0","",""
"null","sound/msl/door.wav","null","audio-keyboard-response","174","94255","0.0-1.0-173.0","",""
"null","sound/msl/boing.wav","null","audio-keyboard-response","175","94754","0.0-1.0-174.0","",""
"null","sound/msl/bird.wav","null","audio-keyboard-response","176","95258","0.0-1.0-175.0","",""
"null","sound/msl/duck.wav","null","audio-keyboard-response","177","95764","0.0-1.0-176.0","",""
"null","sound/msl/slide_whistle.wav","null","audio-keyboard-response","178","96263","0.0-1.0-177.0","",""
"null","sound/msl/cow.wav","null","audio-keyboard-response","179","96768","0.0-1.0-178.0","",""
"null","sound/msl/cat.wav","null","audio-keyboard-response","180","97262","0.0-1.0-179.0","",""
"null","sound/msl/frog.wav","null","audio-keyboard-response","181","97766","0.0-1.0-180.0","",""
"null","sound/msl/goat.wav","null","audio-keyboard-response","182","98301","0.0-1.0-181.0","",""
"null","sound/msl/door.wav","null","audio-keyboard-response","183","98800","0.0-1.0-182.0","",""
"null","sound/msl/Water.wav","null","audio-keyboard-response","184","99310","0.0-1.0-183.0","",""
"null","sound/msl/ding.wav","null","audio-keyboard-response","185","99816","0.0-1.0-184.0","",""
"null","sound/msl/door_bell.wav","null","audio-keyboard-response","186","100321","0.0-1.0-185.0","",""
"null","sound/msl/dog.wav","null","audio-keyboard-response","187","100826","0.0-1.0-186.0","",""
"null","sound/msl/organ.wav","null","audio-keyboard-response","188","101325","0.0-1.0-187.0","",""
"null","sound/msl/clock.wav","null","audio-keyboard-response","189","101877","0.0-1.0-188.0","",""
"null","sound/msl/boing.wav","null","audio-keyboard-response","190","102376","0.0-1.0-189.0","",""
"null","sound/msl/bird.wav","null","audio-keyboard-response","191","102881","0.0-1.0-190.0","",""
"null","sound/msl/duck.wav","null","audio-keyboard-response","192","103386","0.0-1.0-191.0","",""
"null","sound/msl/slide_whistle.wav","null","audio-keyboard-response","193","103886","0.0-1.0-192.0","",""
"null","sound/msl/cow.wav","null","audio-keyboard-response","194","104390","0.0-1.0-193.0","",""
"null","sound/msl/cat.wav","null","audio-keyboard-response","195","104884","0.0-1.0-194.0","",""
"null","sound/msl/frog.wav","null","audio-keyboard-response","196","105389","0.0-1.0-195.0","",""
"null","sound/msl/goat.wav","null","audio-keyboard-response","197","105922","0.0-1.0-196.0","",""
"null","sound/msl/door.wav","null","audio-keyboard-response","198","106422","0.0-1.0-197.0","",""
"null","sound/msl/dog.wav","null","audio-keyboard-response","199","106927","0.0-1.0-198.0","",""
"null","sound/msl/organ.wav","null","audio-keyboard-response","200","107427","0.0-1.0-199.0","",""
"null","sound/msl/clock.wav","null","audio-keyboard-response","201","107978","0.0-1.0-200.0","",""
"null","sound/msl/Water.wav","null","audio-keyboard-response","202","108489","0.0-1.0-201.0","",""
"null","sound/msl/ding.wav","null","audio-keyboard-response","203","108995","0.0-1.0-202.0","",""
"null","sound/msl/door_bell.wav","null","audio-keyboard-response","204","109499","0.0-1.0-203.0","",""
"null","sound/msl/boing.wav","null","audio-keyboard-response","205","109998","0.0-1.0-204.0","",""
"null","sound/msl/bird.wav","null","audio-keyboard-response","206","110503","0.0-1.0-205.0","",""
"null","sound/msl/duck.wav","null","audio-keyboard-response","207","111009","0.0-1.0-206.0","",""
"null","sound/msl/slide_whistle.wav","null","audio-keyboard-response","208","111507","0.0-1.0-207.0","",""
"null","sound/msl/cow.wav","null","audio-keyboard-response","209","112012","0.0-1.0-208.0","",""
"null","sound/msl/cat.wav","null","audio-keyboard-response","210","112506","0.0-1.0-209.0","",""
"null","sound/msl/dog.wav","null","audio-keyboard-response","211","113011","0.0-1.0-210.0","",""
"null","sound/msl/organ.wav","null","audio-keyboard-response","212","113510","0.0-1.0-211.0","",""
"null","sound/msl/clock.wav","null","audio-keyboard-response","213","114062","0.0-1.0-212.0","",""
"null","sound/msl/boing.wav","null","audio-keyboard-response","214","114562","0.0-1.0-213.0","",""
"null","sound/msl/bird.wav","null","audio-keyboard-response","215","115066","0.0-1.0-214.0","",""
"null","sound/msl/duck.wav","null","audio-keyboard-response","216","115571","0.0-1.0-215.0","",""
"null","sound/msl/frog.wav","null","audio-keyboard-response","217","116076","0.0-1.0-216.0","",""
"null","sound/msl/goat.wav","null","audio-keyboard-response","218","116610","0.0-1.0-217.0","",""
"null","sound/msl/door.wav","null","audio-keyboard-response","219","117110","0.0-1.0-218.0","",""
"null","sound/msl/Water.wav","null","audio-keyboard-response","220","117621","0.0-1.0-219.0","",""
"null","sound/msl/ding.wav","null","audio-keyboard-response","221","118125","0.0-1.0-220.0","",""
"null","sound/msl/door_bell.wav","null","audio-keyboard-response","222","118630","0.0-1.0-221.0","",""
"null","sound/msl/slide_whistle.wav","null","audio-keyboard-response","223","119130","0.0-1.0-222.0","",""
"null","sound/msl/cow.wav","null","audio-keyboard-response","224","119635","0.0-1.0-223.0","",""
"null","sound/msl/cat.wav","null","audio-keyboard-response","225","120128","0.0-1.0-224.0","",""
"null","sound/msl/frog.wav","null","audio-keyboard-response","226","120633","0.0-1.0-225.0","",""
"null","sound/msl/goat.wav","null","audio-keyboard-response","227","121168","0.0-1.0-226.0","",""
"null","sound/msl/door.wav","null","audio-keyboard-response","228","121667","0.0-1.0-227.0","",""
"null","sound/msl/boing.wav","null","audio-keyboard-response","229","122166","0.0-1.0-228.0","",""
"null","sound/msl/bird.wav","null","audio-keyboard-response","230","122670","0.0-1.0-229.0","",""
"null","sound/msl/duck.wav","null","audio-keyboard-response","231","123175","0.0-1.0-230.0","",""
"null","sound/msl/frog.wav","null","audio-keyboard-response","232","123681","0.0-1.0-231.0","",""
"null","sound/msl/goat.wav","null","audio-keyboard-response","233","124215","0.0-1.0-232.0","",""
"null","sound/msl/door.wav","null","audio-keyboard-response","234","124714","0.0-1.0-233.0","",""
"null","sound/msl/slide_whistle.wav","null","audio-keyboard-response","235","125214","0.0-1.0-234.0","",""
"null","sound/msl/cow.wav","null","audio-keyboard-response","236","125718","0.0-1.0-235.0","",""
"null","sound/msl/cat.wav","null","audio-keyboard-response","237","126212","0.0-1.0-236.0","",""
"null","sound/msl/Water.wav","null","audio-keyboard-response","238","126722","0.0-1.0-237.0","",""
"null","sound/msl/ding.wav","null","audio-keyboard-response","239","127228","0.0-1.0-238.0","",""
"null","sound/msl/door_bell.wav","null","audio-keyboard-response","240","127733","0.0-1.0-239.0","",""
"null","sound/msl/dog.wav","null","audio-keyboard-response","241","128238","0.0-1.0-240.0","",""
"null","sound/msl/organ.wav","null","audio-keyboard-response","242","128737","0.0-1.0-241.0","",""
"null","sound/msl/clock.wav","null","audio-keyboard-response","243","129289","0.0-1.0-242.0","",""
"null","sound/msl/boing.wav","null","audio-keyboard-response","244","129788","0.0-1.0-243.0","",""
"null","sound/msl/bird.wav","null","audio-keyboard-response","245","130293","0.0-1.0-244.0","",""
"null","sound/msl/duck.wav","null","audio-keyboard-response","246","130798","0.0-1.0-245.0","",""
"null","sound/msl/slide_whistle.wav","null","audio-keyboard-response","247","131298","0.0-1.0-246.0","",""
"null","sound/msl/cow.wav","null","audio-keyboard-response","248","131802","0.0-1.0-247.0","",""
"null","sound/msl/cat.wav","null","audio-keyboard-response","249","132296","0.0-1.0-248.0","",""
"null","sound/msl/Water.wav","null","audio-keyboard-response","250","132806","0.0-1.0-249.0","",""
"null","sound/msl/ding.wav","null","audio-keyboard-response","251","133311","0.0-1.0-250.0","",""
"null","sound/msl/door_bell.wav","null","audio-keyboard-response","252","133817","0.0-1.0-251.0","",""
"null","sound/msl/dog.wav","null","audio-keyboard-response","253","134322","0.0-1.0-252.0","",""
"null","sound/msl/organ.wav","null","audio-keyboard-response","254","134821","0.0-1.0-253.0","",""
"null","sound/msl/clock.wav","null","audio-keyboard-response","255","135373","0.0-1.0-254.0","",""
"null","sound/msl/frog.wav","null","audio-keyboard-response","256","135878","0.0-1.0-255.0","",""
"null","sound/msl/goat.wav","null","audio-keyboard-response","257","136412","0.0-1.0-256.0","",""
"null","sound/msl/door.wav","null","audio-keyboard-response","258","136911","0.0-1.0-257.0","",""
"null","sound/msl/boing.wav","null","audio-keyboard-response","259","137410","0.0-1.0-258.0","",""
"null","sound/msl/bird.wav","null","audio-keyboard-response","260","137915","0.0-1.0-259.0","",""
"null","sound/msl/duck.wav","null","audio-keyboard-response","261","138420","0.0-1.0-260.0","",""
"null","sound/msl/dog.wav","null","audio-keyboard-response","262","138925","0.0-1.0-261.0","",""
"null","sound/msl/organ.wav","null","audio-keyboard-response","263","139425","0.0-1.0-262.0","",""
"null","sound/msl/clock.wav","null","audio-keyboard-response","264","139976","0.0-1.0-263.0","",""
"null","sound/msl/Water.wav","null","audio-keyboard-response","265","140487","0.0-1.0-264.0","",""
"null","sound/msl/ding.wav","null","audio-keyboard-response","266","140992","0.0-1.0-265.0","",""
"null","sound/msl/door_bell.wav","null","audio-keyboard-response","267","141497","0.0-1.0-266.0","",""
"null","sound/msl/frog.wav","null","audio-keyboard-response","268","142002","0.0-1.0-267.0","",""
"null","sound/msl/goat.wav","null","audio-keyboard-response","269","142536","0.0-1.0-268.0","",""
"null","sound/msl/door.wav","null","audio-keyboard-response","270","143035","0.0-1.0-269.0","",""
"null","sound/msl/slide_whistle.wav","null","audio-keyboard-response","271","143535","0.0-1.0-270.0","",""
"null","sound/msl/cow.wav","null","audio-keyboard-response","272","144040","0.0-1.0-271.0","",""
"null","sound/msl/cat.wav","null","audio-keyboard-response","273","144533","0.0-1.0-272.0","",""
"null","sound/msl/boing.wav","null","audio-keyboard-response","274","145032","0.0-1.0-273.0","",""
"null","sound/msl/bird.wav","null","audio-keyboard-response","275","145537","0.0-1.0-274.0","",""
"null","sound/msl/duck.wav","null","audio-keyboard-response","276","146042","0.0-1.0-275.0","",""
"null","sound/msl/dog.wav","null","audio-keyboard-response","277","146548","0.0-1.0-276.0","",""
"null","sound/msl/organ.wav","null","audio-keyboard-response","278","147047","0.0-1.0-277.0","",""
"null","sound/msl/clock.wav","null","audio-keyboard-response","279","147598","0.0-1.0-278.0","",""
"null","sound/msl/Water.wav","null","audio-keyboard-response","280","148109","0.0-1.0-279.0","",""
"null","sound/msl/ding.wav","null","audio-keyboard-response","281","148614","0.0-1.0-280.0","",""
"null","sound/msl/door_bell.wav","null","audio-keyboard-response","282","149119","0.0-1.0-281.0","",""
"null","sound/msl/slide_whistle.wav","null","audio-keyboard-response","283","149619","0.0-1.0-282.0","",""
"null","sound/msl/cow.wav","null","audio-keyboard-response","284","150124","0.0-1.0-283.0","",""
"null","sound/msl/cat.wav","null","audio-keyboard-response","285","150617","0.0-1.0-284.0","",""
"null","sound/msl/frog.wav","null","audio-keyboard-response","286","151122","0.0-1.0-285.0","",""
"null","sound/msl/goat.wav","null","audio-keyboard-response","287","151656","0.0-1.0-286.0","",""
"null","sound/msl/door.wav","null","audio-keyboard-response","288","152155","0.0-1.0-287.0","",""
"null","sound/msl/boing.wav","null","audio-keyboard-response","289","152654","0.0-1.0-288.0","",""
"null","sound/msl/bird.wav","null","audio-keyboard-response","290","153159","0.0-1.0-289.0","",""
"null","sound/msl/duck.wav","null","audio-keyboard-response","291","153665","0.0-1.0-290.0","",""
"null","sound/msl/Water.wav","null","audio-keyboard-response","292","154175","0.0-1.0-291.0","",""
"null","sound/msl/ding.wav","null","audio-keyboard-response","293","154680","0.0-1.0-292.0","",""
"null","sound/msl/door_bell.wav","null","audio-keyboard-response","294","155186","0.0-1.0-293.0","",""
"null","sound/msl/dog.wav","null","audio-keyboard-response","295","155690","0.0-1.0-294.0","",""
"null","sound/msl/organ.wav","null","audio-keyboard-response","296","156190","0.0-1.0-295.0","",""
"null","sound/msl/clock.wav","null","audio-keyboard-response","297","156741","0.0-1.0-296.0","",""
"null","sound/msl/boing.wav","null","audio-keyboard-response","298","157240","0.0-1.0-297.0","",""
"null","sound/msl/bird.wav","null","audio-keyboard-response","299","157746","0.0-1.0-298.0","",""
"null","sound/msl/duck.wav","null","audio-keyboard-response","300","158250","0.0-1.0-299.0","",""
"null","sound/msl/slide_whistle.wav","null","audio-keyboard-response","301","158750","0.0-1.0-300.0","",""
"null","sound/msl/cow.wav","null","audio-keyboard-response","302","159255","0.0-1.0-301.0","",""
"null","sound/msl/cat.wav","null","audio-keyboard-response","303","159748","0.0-1.0-302.0","",""
"null","sound/msl/Water.wav","null","audio-keyboard-response","304","160260","0.0-1.0-303.0","",""
"null","sound/msl/ding.wav","null","audio-keyboard-response","305","160764","0.0-1.0-304.0","",""
"null","sound/msl/door_bell.wav","null","audio-keyboard-response","306","161269","0.0-1.0-305.0","",""
"null","sound/msl/frog.wav","null","audio-keyboard-response","307","161775","0.0-1.0-306.0","",""
"null","sound/msl/goat.wav","null","audio-keyboard-response","308","162308","0.0-1.0-307.0","",""
"null","sound/msl/door.wav","null","audio-keyboard-response","309","162808","0.0-1.0-308.0","",""
"null","sound/msl/dog.wav","null","audio-keyboard-response","310","163312","0.0-1.0-309.0","",""
"null","sound/msl/organ.wav","null","audio-keyboard-response","311","163812","0.0-1.0-310.0","",""
"null","sound/msl/clock.wav","null","audio-keyboard-response","312","164364","0.0-1.0-311.0","",""
"null","sound/msl/boing.wav","null","audio-keyboard-response","313","164863","0.0-1.0-312.0","",""
"null","sound/msl/bird.wav","null","audio-keyboard-response","314","165368","0.0-1.0-313.0","",""
"null","sound/msl/duck.wav","null","audio-keyboard-response","315","165873","0.0-1.0-314.0","",""
"null","sound/msl/slide_whistle.wav","null","audio-keyboard-response","316","166372","0.0-1.0-315.0","",""
"null","sound/msl/cow.wav","null","audio-keyboard-response","317","166877","0.0-1.0-316.0","",""
"null","sound/msl/cat.wav","null","audio-keyboard-response","318","167370","0.0-1.0-317.0","",""
"null","sound/msl/Water.wav","null","audio-keyboard-response","319","167881","0.0-1.0-318.0","",""
"null","sound/msl/ding.wav","null","audio-keyboard-response","320","168387","0.0-1.0-319.0","",""
"null","sound/msl/door_bell.wav","null","audio-keyboard-response","321","168892","0.0-1.0-320.0","",""
"null","sound/msl/dog.wav","null","audio-keyboard-response","322","169397","0.0-1.0-321.0","",""
"null","sound/msl/organ.wav","null","audio-keyboard-response","323","169895","0.0-1.0-322.0","",""
"null","sound/msl/clock.wav","null","audio-keyboard-response","324","170447","0.0-1.0-323.0","",""
"null","sound/msl/slide_whistle.wav","null","audio-keyboard-response","325","170947","0.0-1.0-324.0","",""
"null","sound/msl/cow.wav","null","audio-keyboard-response","326","171451","0.0-1.0-325.0","",""
"null","sound/msl/cat.wav","null","audio-keyboard-response","327","171945","0.0-1.0-326.0","",""
"null","sound/msl/frog.wav","null","audio-keyboard-response","328","172450","0.0-1.0-327.0","",""
"null","sound/msl/goat.wav","null","audio-keyboard-response","329","172984","0.0-1.0-328.0","",""
"null","sound/msl/door.wav","null","audio-keyboard-response","330","173483","0.0-1.0-329.0","",""
"null","sound/msl/boing.wav","null","audio-keyboard-response","331","173982","0.0-1.0-330.0","",""
"null","sound/msl/bird.wav","null","audio-keyboard-response","332","174487","0.0-1.0-331.0","",""
"null","sound/msl/duck.wav","null","audio-keyboard-response","333","174992","0.0-1.0-332.0","",""
"null","sound/msl/Water.wav","null","audio-keyboard-response","334","175504","0.0-1.0-333.0","",""
"null","sound/msl/ding.wav","null","audio-keyboard-response","335","176009","0.0-1.0-334.0","",""
"null","sound/msl/door_bell.wav","null","audio-keyboard-response","336","176514","0.0-1.0-335.0","",""
"null","sound/msl/frog.wav","null","audio-keyboard-response","337","177018","0.0-1.0-336.0","",""
"null","sound/msl/goat.wav","null","audio-keyboard-response","338","177553","0.0-1.0-337.0","",""
"null","sound/msl/door.wav","null","audio-keyboard-response","339","178052","0.0-1.0-338.0","",""
"null","sound/msl/dog.wav","null","audio-keyboard-response","340","178557","0.0-1.0-339.0","",""
"null","sound/msl/organ.wav","null","audio-keyboard-response","341","179056","0.0-1.0-340.0","",""
"null","sound/msl/clock.wav","null","audio-keyboard-response","342","179608","0.0-1.0-341.0","",""
"null","sound/msl/Water.wav","null","audio-keyboard-response","343","180119","0.0-1.0-342.0","",""
"null","sound/msl/ding.wav","null","audio-keyboard-response","344","180623","0.0-1.0-343.0","",""
"null","sound/msl/door_bell.wav","null","audio-keyboard-response","345","181129","0.0-1.0-344.0","",""
"null","sound/msl/dog.wav","null","audio-keyboard-response","346","181634","0.0-1.0-345.0","",""
"null","sound/msl/organ.wav","null","audio-keyboard-response","347","182133","0.0-1.0-346.0","",""
"null","sound/msl/clock.wav","null","audio-keyboard-response","348","182685","0.0-1.0-347.0","",""
"null","sound/msl/frog.wav","null","audio-keyboard-response","349","183189","0.0-1.0-348.0","",""
"null","sound/msl/goat.wav","null","audio-keyboard-response","350","183723","0.0-1.0-349.0","",""
"null","sound/msl/door.wav","null","audio-keyboard-response","351","184223","0.0-1.0-350.0","",""
"null","sound/msl/boing.wav","null","audio-keyboard-response","352","184722","0.0-1.0-351.0","",""
"null","sound/msl/bird.wav","null","audio-keyboard-response","353","185227","0.0-1.0-352.0","",""
"null","sound/msl/duck.wav","null","audio-keyboard-response","354","185733","0.0-1.0-353.0","",""
"null","sound/msl/Water.wav","null","audio-keyboard-response","355","186244","0.0-1.0-354.0","",""
"null","sound/msl/ding.wav","null","audio-keyboard-response","356","186748","0.0-1.0-355.0","",""
"null","sound/msl/door_bell.wav","null","audio-keyboard-response","357","187253","0.0-1.0-356.0","",""
"null","sound/msl/dog.wav","null","audio-keyboard-response","358","187758","0.0-1.0-357.0","",""
"null","sound/msl/organ.wav","null","audio-keyboard-response","359","188258","0.0-1.0-358.0","",""
"null","sound/msl/clock.wav","null","audio-keyboard-response","360","188809","0.0-1.0-359.0","",""
"17771","Instructions2-eng.png","49","image-keyboard-response","361","206580","0.0-2.0","",""
"null","sound/msl/frog.wav","null","audio-keyboard-response","362","207084","0.0-3.0-0.0","",""
"null","sound/msl/goat.wav","null","audio-keyboard-response","363","207618","0.0-3.0-1.0","",""
"null","sound/msl/door.wav","null","audio-keyboard-response","364","208117","0.0-3.0-2.0","",""
"null","sound/asl/silence.wav","null","audio-keyboard-response","365","208622","0.0-3.0-3.0","",""
"null","sound/msl/dog.wav","null","audio-keyboard-response","366","209127","0.0-3.0-4.0","",""
"null","sound/msl/cow.wav","null","audio-keyboard-response","367","209632","0.0-3.0-5.0","",""
"null","sound/msl/door.wav","null","audio-keyboard-response","368","210131","0.0-3.0-6.0","",""
"511","sound/asl/silence.wav","49","audio-keyboard-response","369","210644","0.0-3.0-7.0","true",""
"null","sound/msl/frog.wav","null","audio-keyboard-response","370","211148","0.0-4.0-0.0","",""
"null","sound/msl/ding.wav","null","audio-keyboard-response","371","211652","0.0-4.0-1.0","",""
"null","sound/msl/duck.wav","null","audio-keyboard-response","372","212158","0.0-4.0-2.0","",""
"null","sound/asl/silence.wav","null","audio-keyboard-response","373","212662","0.0-4.0-3.0","",""
"null","sound/msl/Water.wav","null","audio-keyboard-response","374","213173","0.0-4.0-4.0","",""
"null","sound/msl/ding.wav","null","audio-keyboard-response","375","213679","0.0-4.0-5.0","",""
"null","sound/msl/door_bell.wav","null","audio-keyboard-response","376","214183","0.0-4.0-6.0","",""
"551","sound/asl/silence.wav","49","audio-keyboard-response","377","214736","0.0-4.0-7.0","false",""
"null","sound/msl/dog.wav","null","audio-keyboard-response","378","215240","0.0-5.0-0.0","",""
"null","sound/msl/cow.wav","null","audio-keyboard-response","379","215745","0.0-5.0-1.0","",""
"null","sound/msl/door.wav","null","audio-keyboard-response","380","216245","0.0-5.0-2.0","",""
"null","sound/asl/silence.wav","null","audio-keyboard-response","381","216749","0.0-5.0-3.0","",""
"null","sound/msl/boing.wav","null","audio-keyboard-response","382","217249","0.0-5.0-4.0","",""
"null","sound/msl/bird.wav","null","audio-keyboard-response","383","217753","0.0-5.0-5.0","",""
"null","sound/msl/duck.wav","null","audio-keyboard-response","384","218259","0.0-5.0-6.0","",""
"360","sound/asl/silence.wav","50","audio-keyboard-response","385","218622","0.0-5.0-7.0","true",""
"null","sound/msl/slide_whistle.wav","null","audio-keyboard-response","386","219118","0.0-6.0-0.0","",""
"null","sound/msl/goat.wav","null","audio-keyboard-response","387","219652","0.0-6.0-1.0","",""
"null","sound/msl/door_bell.wav","null","audio-keyboard-response","388","220156","0.0-6.0-2.0","",""
"null","sound/asl/silence.wav","null","audio-keyboard-response","389","220662","0.0-6.0-3.0","",""
"null","sound/msl/dog.wav","null","audio-keyboard-response","390","221167","0.0-6.0-4.0","",""
"null","sound/msl/organ.wav","null","audio-keyboard-response","391","221666","0.0-6.0-5.0","",""
"null","sound/msl/clock.wav","null","audio-keyboard-response","392","222218","0.0-6.0-6.0","",""
"981","sound/asl/silence.wav","49","audio-keyboard-response","393","223200","0.0-6.0-7.0","false",""
"null","sound/msl/dog.wav","null","audio-keyboard-response","394","223704","0.0-7.0-0.0","",""
"null","sound/msl/organ.wav","null","audio-keyboard-response","395","224203","0.0-7.0-1.0","",""
"null","sound/msl/clock.wav","null","audio-keyboard-response","396","224755","0.0-7.0-2.0","",""
"null","sound/asl/silence.wav","null","audio-keyboard-response","397","225260","0.0-7.0-3.0","",""
"null","sound/msl/boing.wav","null","audio-keyboard-response","398","225759","0.0-7.0-4.0","",""
"null","sound/msl/organ.wav","null","audio-keyboard-response","399","226258","0.0-7.0-5.0","",""
"null","sound/msl/cat.wav","null","audio-keyboard-response","400","226752","0.0-7.0-6.0","",""
"267","sound/asl/silence.wav","49","audio-keyboard-response","401","227021","0.0-7.0-7.0","true",""
"null","sound/msl/frog.wav","null","audio-keyboard-response","402","227524","0.0-8.0-0.0","",""
"null","sound/msl/ding.wav","null","audio-keyboard-response","403","228029","0.0-8.0-1.0","",""
"null","sound/msl/duck.wav","null","audio-keyboard-response","404","228533","0.0-8.0-2.0","",""
"null","sound/asl/silence.wav","null","audio-keyboard-response","405","229039","0.0-8.0-3.0","",""
"null","sound/msl/dog.wav","null","audio-keyboard-response","406","229544","0.0-8.0-4.0","",""
"null","sound/msl/organ.wav","null","audio-keyboard-response","407","230043","0.0-8.0-5.0","",""
"null","sound/msl/clock.wav","null","audio-keyboard-response","408","230594","0.0-8.0-6.0","",""
"511","sound/asl/silence.wav","49","audio-keyboard-response","409","231106","0.0-8.0-7.0","false",""
"null","sound/msl/frog.wav","null","audio-keyboard-response","410","231611","0.0-9.0-0.0","",""
"null","sound/msl/ding.wav","null","audio-keyboard-response","411","232115","0.0-9.0-1.0","",""
"null","sound/msl/duck.wav","null","audio-keyboard-response","412","232620","0.0-9.0-2.0","",""
"null","sound/asl/silence.wav","null","audio-keyboard-response","413","233125","0.0-9.0-3.0","",""
"null","sound/msl/boing.wav","null","audio-keyboard-response","414","233624","0.0-9.0-4.0","",""
"null","sound/msl/bird.wav","null","audio-keyboard-response","415","234130","0.0-9.0-5.0","",""
"null","sound/msl/duck.wav","null","audio-keyboard-response","416","234635","0.0-9.0-6.0","",""
"1509","sound/asl/silence.wav","49","audio-keyboard-response","417","236144","0.0-9.0-7.0","false",""
"null","sound/msl/slide_whistle.wav","null","audio-keyboard-response","418","236643","0.0-10.0-0.0","",""
"null","sound/msl/goat.wav","null","audio-keyboard-response","419","237177","0.0-10.0-1.0","",""
"null","sound/msl/door_bell.wav","null","audio-keyboard-response","420","237682","0.0-10.0-2.0","",""
"null","sound/asl/silence.wav","null","audio-keyboard-response","421","238188","0.0-10.0-3.0","",""
"null","sound/msl/frog.wav","null","audio-keyboard-response","422","238693","0.0-10.0-4.0","",""
"null","sound/msl/goat.wav","null","audio-keyboard-response","423","239227","0.0-10.0-5.0","",""
"null","sound/msl/door.wav","null","audio-keyboard-response","424","239726","0.0-10.0-6.0","",""
"1492","sound/asl/silence.wav","50","audio-keyboard-response","425","241220","0.0-10.0-7.0","true",""
"null","sound/msl/boing.wav","null","audio-keyboard-response","426","241717","0.0-11.0-0.0","",""
"null","sound/msl/organ.wav","null","audio-keyboard-response","427","242217","0.0-11.0-1.0","",""
"null","sound/msl/cat.wav","null","audio-keyboard-response","428","242710","0.0-11.0-2.0","",""
"null","sound/asl/silence.wav","null","audio-keyboard-response","429","243214","0.0-11.0-3.0","",""
"null","sound/msl/slide_whistle.wav","null","audio-keyboard-response","430","243714","0.0-11.0-4.0","",""
"null","sound/msl/cow.wav","null","audio-keyboard-response","431","244219","0.0-11.0-5.0","",""
"null","sound/msl/cat.wav","null","audio-keyboard-response","432","244713","0.0-11.0-6.0","",""
"1364","sound/asl/silence.wav","50","audio-keyboard-response","433","246078","0.0-11.0-7.0","true",""
"null","sound/msl/frog.wav","null","audio-keyboard-response","434","246582","0.0-12.0-0.0","",""
"null","sound/msl/goat.wav","null","audio-keyboard-response","435","247116","0.0-12.0-1.0","",""
"null","sound/msl/door.wav","null","audio-keyboard-response","436","247616","0.0-12.0-2.0","",""
"null","sound/asl/silence.wav","null","audio-keyboard-response","437","248120","0.0-12.0-3.0","",""
"null","sound/msl/boing.wav","null","audio-keyboard-response","438","248620","0.0-12.0-4.0","",""
"null","sound/msl/organ.wav","null","audio-keyboard-response","439","249119","0.0-12.0-5.0","",""
"null","sound/msl/cat.wav","null","audio-keyboard-response","440","249612","0.0-12.0-6.0","",""
"464","sound/asl/silence.wav","49","audio-keyboard-response","441","250077","0.0-12.0-7.0","true",""
"null","sound/msl/boing.wav","null","audio-keyboard-response","442","250576","0.0-13.0-0.0","",""
"null","sound/msl/bird.wav","null","audio-keyboard-response","443","251081","0.0-13.0-1.0","",""
"null","sound/msl/duck.wav","null","audio-keyboard-response","444","251586","0.0-13.0-2.0","",""
"null","sound/asl/silence.wav","null","audio-keyboard-response","445","252091","0.0-13.0-3.0","",""
"null","sound/msl/Water.wav","null","audio-keyboard-response","446","252602","0.0-13.0-4.0","",""
"null","sound/msl/bird.wav","null","audio-keyboard-response","447","253107","0.0-13.0-5.0","",""
"null","sound/msl/clock.wav","null","audio-keyboard-response","448","253659","0.0-13.0-6.0","",""
"87","sound/asl/silence.wav","49","audio-keyboard-response","449","253748","0.0-13.0-7.0","true",""
"null","sound/msl/slide_whistle.wav","null","audio-keyboard-response","450","254245","0.0-14.0-0.0","",""
"null","sound/msl/cow.wav","null","audio-keyboard-response","451","254750","0.0-14.0-1.0","",""
"null","sound/msl/cat.wav","null","audio-keyboard-response","452","255243","0.0-14.0-2.0","",""
"null","sound/asl/silence.wav","null","audio-keyboard-response","453","255749","0.0-14.0-3.0","",""
"null","sound/msl/dog.wav","null","audio-keyboard-response","454","256254","0.0-14.0-4.0","",""
"null","sound/msl/cow.wav","null","audio-keyboard-response","455","256758","0.0-14.0-5.0","",""
"null","sound/msl/door.wav","null","audio-keyboard-response","456","257258","0.0-14.0-6.0","",""
"342","sound/asl/silence.wav","49","audio-keyboard-response","457","257602","0.0-14.0-7.0","true",""
"null","sound/msl/dog.wav","null","audio-keyboard-response","458","258106","0.0-15.0-0.0","",""
"null","sound/msl/organ.wav","null","audio-keyboard-response","459","258604","0.0-15.0-1.0","",""
"null","sound/msl/clock.wav","null","audio-keyboard-response","460","259156","0.0-15.0-2.0","",""
"null","sound/asl/silence.wav","null","audio-keyboard-response","461","259661","0.0-15.0-3.0","",""
"null","sound/msl/Water.wav","null","audio-keyboard-response","462","260172","0.0-15.0-4.0","",""
"null","sound/msl/bird.wav","null","audio-keyboard-response","463","260677","0.0-15.0-5.0","",""
"null","sound/msl/clock.wav","null","audio-keyboard-response","464","261228","0.0-15.0-6.0","",""
"406","sound/asl/silence.wav","50","audio-keyboard-response","465","261640","0.0-15.0-7.0","false",""
"null","sound/msl/Water.wav","null","audio-keyboard-response","466","262151","0.0-16.0-0.0","",""
"null","sound/msl/ding.wav","null","audio-keyboard-response","467","262656","0.0-16.0-1.0","",""
"null","sound/msl/door_bell.wav","null","audio-keyboard-response","468","263162","0.0-16.0-2.0","",""
"null","sound/asl/silence.wav","null","audio-keyboard-response","469","263666","0.0-16.0-3.0","",""
"null","sound/msl/Water.wav","null","audio-keyboard-response","470","264177","0.0-16.0-4.0","",""
"null","sound/msl/bird.wav","null","audio-keyboard-response","471","264683","0.0-16.0-5.0","",""
"null","sound/msl/clock.wav","null","audio-keyboard-response","472","265234","0.0-16.0-6.0","",""
"1521","sound/asl/silence.wav","49","audio-keyboard-response","473","266758","0.0-16.0-7.0","true",""
"null","sound/msl/slide_whistle.wav","null","audio-keyboard-response","474","267254","0.0-17.0-0.0","",""
"null","sound/msl/goat.wav","null","audio-keyboard-response","475","267788","0.0-17.0-1.0","",""
"null","sound/msl/door_bell.wav","null","audio-keyboard-response","476","268294","0.0-17.0-2.0","",""
"null","sound/asl/silence.wav","null","audio-keyboard-response","477","268798","0.0-17.0-3.0","",""
"null","sound/msl/Water.wav","null","audio-keyboard-response","478","269309","0.0-17.0-4.0","",""
"null","sound/msl/ding.wav","null","audio-keyboard-response","479","269814","0.0-17.0-5.0","",""
"null","sound/msl/door_bell.wav","null","audio-keyboard-response","480","270319","0.0-17.0-6.0","",""
"1608","sound/asl/silence.wav","49","audio-keyboard-response","481","271930","0.0-17.0-7.0","false",""
"null","sound/msl/slide_whistle.wav","null","audio-keyboard-response","482","272426","0.0-18.0-0.0","",""
"null","sound/msl/cow.wav","null","audio-keyboard-response","483","272931","0.0-18.0-1.0","",""
"null","sound/msl/cat.wav","null","audio-keyboard-response","484","273425","0.0-18.0-2.0","",""
"null","sound/asl/silence.wav","null","audio-keyboard-response","485","273930","0.0-18.0-3.0","",""
"null","sound/msl/frog.wav","null","audio-keyboard-response","486","274435","0.0-18.0-4.0","",""
"null","sound/msl/ding.wav","null","audio-keyboard-response","487","274940","0.0-18.0-5.0","",""
"null","sound/msl/duck.wav","null","audio-keyboard-response","488","275445","0.0-18.0-6.0","",""
"760","sound/asl/silence.wav","50","audio-keyboard-response","489","276210","0.0-18.0-7.0","false",""
"null","sound/msl/Water.wav","null","audio-keyboard-response","490","276723","0.0-19.0-0.0","",""
"null","sound/msl/bird.wav","null","audio-keyboard-response","491","277227","0.0-19.0-1.0","",""
"null","sound/msl/clock.wav","null","audio-keyboard-response","492","277779","0.0-19.0-2.0","",""
"null","sound/asl/silence.wav","null","audio-keyboard-response","493","278284","0.0-19.0-3.0","",""
"null","sound/msl/slide_whistle.wav","null","audio-keyboard-response","494","278783","0.0-19.0-4.0","",""
"null","sound/msl/cow.wav","null","audio-keyboard-response","495","279288","0.0-19.0-5.0","",""
"null","sound/msl/cat.wav","null","audio-keyboard-response","496","279781","0.0-19.0-6.0","",""
"81","sound/asl/silence.wav","49","audio-keyboard-response","497","279863","0.0-19.0-7.0","false",""
"null","sound/msl/dog.wav","null","audio-keyboard-response","498","280368","0.0-20.0-0.0","",""
"null","sound/msl/cow.wav","null","audio-keyboard-response","499","280874","0.0-20.0-1.0","",""
"null","sound/msl/door.wav","null","audio-keyboard-response","500","281372","0.0-20.0-2.0","",""
"null","sound/asl/silence.wav","null","audio-keyboard-response","501","281877","0.0-20.0-3.0","",""
"null","sound/msl/Water.wav","null","audio-keyboard-response","502","282389","0.0-20.0-4.0","",""
"null","sound/msl/ding.wav","null","audio-keyboard-response","503","282893","0.0-20.0-5.0","",""
"null","sound/msl/door_bell.wav","null","audio-keyboard-response","504","283398","0.0-20.0-6.0","",""
"877","sound/asl/silence.wav","50","audio-keyboard-response","505","284277","0.0-20.0-7.0","true",""
"null","sound/msl/Water.wav","null","audio-keyboard-response","506","284785","0.0-21.0-0.0","",""
"null","sound/msl/ding.wav","null","audio-keyboard-response","507","285291","0.0-21.0-1.0","",""
"null","sound/msl/door_bell.wav","null","audio-keyboard-response","508","285796","0.0-21.0-2.0","",""
"null","sound/asl/silence.wav","null","audio-keyboard-response","509","286301","0.0-21.0-3.0","",""
"null","sound/msl/boing.wav","null","audio-keyboard-response","510","286800","0.0-21.0-4.0","",""
"null","sound/msl/organ.wav","null","audio-keyboard-response","511","287299","0.0-21.0-5.0","",""
"null","sound/msl/cat.wav","null","audio-keyboard-response","512","287793","0.0-21.0-6.0","",""
"366","sound/asl/silence.wav","50","audio-keyboard-response","513","288159","0.0-21.0-7.0","false",""
"null","sound/msl/frog.wav","null","audio-keyboard-response","514","288663","0.0-22.0-0.0","",""
"null","sound/msl/ding.wav","null","audio-keyboard-response","515","289168","0.0-22.0-1.0","",""
"null","sound/msl/duck.wav","null","audio-keyboard-response","516","289674","0.0-22.0-2.0","",""
"null","sound/asl/silence.wav","null","audio-keyboard-response","517","290175","0.0-22.0-3.0","",""
"null","sound/msl/frog.wav","null","audio-keyboard-response","518","290678","0.0-22.0-4.0","",""
"null","sound/msl/goat.wav","null","audio-keyboard-response","519","291212","0.0-22.0-5.0","",""
"null","sound/msl/door.wav","null","audio-keyboard-response","520","291712","0.0-22.0-6.0","",""
"35","sound/asl/silence.wav","49","audio-keyboard-response","521","291748","0.0-22.0-7.0","false",""
"null","sound/msl/slide_whistle.wav","null","audio-keyboard-response","522","292246","0.0-23.0-0.0","",""
"null","sound/msl/cow.wav","null","audio-keyboard-response","523","292751","0.0-23.0-1.0","",""
"null","sound/msl/cat.wav","null","audio-keyboard-response","524","293244","0.0-23.0-2.0","",""
"null","sound/asl/silence.wav","null","audio-keyboard-response","525","293749","0.0-23.0-3.0","",""
"null","sound/msl/slide_whistle.wav","null","audio-keyboard-response","526","294248","0.0-23.0-4.0","",""
"null","sound/msl/goat.wav","null","audio-keyboard-response","527","294782","0.0-23.0-5.0","",""
"null","sound/msl/door_bell.wav","null","audio-keyboard-response","528","295287","0.0-23.0-6.0","",""
"87","sound/asl/silence.wav","49","audio-keyboard-response","529","295376","0.0-23.0-7.0","true",""
"null","sound/msl/Water.wav","null","audio-keyboard-response","530","295885","0.0-24.0-0.0","",""
"null","sound/msl/bird.wav","null","audio-keyboard-response","531","296390","0.0-24.0-1.0","",""
"null","sound/msl/clock.wav","null","audio-keyboard-response","532","296941","0.0-24.0-2.0","",""
"null","sound/asl/silence.wav","null","audio-keyboard-response","533","297447","0.0-24.0-3.0","",""
"null","sound/msl/frog.wav","null","audio-keyboard-response","534","297952","0.0-24.0-4.0","",""
"null","sound/msl/goat.wav","null","audio-keyboard-response","535","298486","0.0-24.0-5.0","",""
"null","sound/msl/door.wav","null","audio-keyboard-response","536","298985","0.0-24.0-6.0","",""
"447","sound/asl/silence.wav","50","audio-keyboard-response","537","299434","0.0-24.0-7.0","true",""
"null","sound/msl/boing.wav","null","audio-keyboard-response","538","299932","0.0-25.0-0.0","",""
"null","sound/msl/bird.wav","null","audio-keyboard-response","539","300436","0.0-25.0-1.0","",""
"null","sound/msl/duck.wav","null","audio-keyboard-response","540","300941","0.0-25.0-2.0","",""
"null","sound/asl/silence.wav","null","audio-keyboard-response","541","301446","0.0-25.0-3.0","",""
"null","sound/msl/boing.wav","null","audio-keyboard-response","542","301946","0.0-25.0-4.0","",""
"null","sound/msl/organ.wav","null","audio-keyboard-response","543","302445","0.0-25.0-5.0","",""
"null","sound/msl/cat.wav","null","audio-keyboard-response","544","302938","0.0-25.0-6.0","",""
"453","sound/asl/silence.wav","49","audio-keyboard-response","545","303392","0.0-25.0-7.0","true",""
"null","sound/msl/boing.wav","null","audio-keyboard-response","546","303891","0.0-26.0-0.0","",""
"null","sound/msl/bird.wav","null","audio-keyboard-response","547","304396","0.0-26.0-1.0","",""
"null","sound/msl/duck.wav","null","audio-keyboard-response","548","304901","0.0-26.0-2.0","",""
"null","sound/asl/silence.wav","null","audio-keyboard-response","549","305406","0.0-26.0-3.0","",""
"null","sound/msl/slide_whistle.wav","null","audio-keyboard-response","550","305905","0.0-26.0-4.0","",""
"null","sound/msl/goat.wav","null","audio-keyboard-response","551","306439","0.0-26.0-5.0","",""
"null","sound/msl/door_bell.wav","null","audio-keyboard-response","552","306944","0.0-26.0-6.0","",""
"319","sound/asl/silence.wav","50","audio-keyboard-response","553","307265","0.0-26.0-7.0","false",""
"null","sound/msl/dog.wav","null","audio-keyboard-response","554","307768","0.0-27.0-0.0","",""
"null","sound/msl/cow.wav","null","audio-keyboard-response","555","308273","0.0-27.0-1.0","",""
"null","sound/msl/door.wav","null","audio-keyboard-response","556","308772","0.0-27.0-2.0","",""
"null","sound/asl/silence.wav","null","audio-keyboard-response","557","309278","0.0-27.0-3.0","",""
"null","sound/msl/dog.wav","null","audio-keyboard-response","558","309783","0.0-27.0-4.0","",""
"null","sound/msl/organ.wav","null","audio-keyboard-response","559","310282","0.0-27.0-5.0","",""
"null","sound/msl/clock.wav","null","audio-keyboard-response","560","310833","0.0-27.0-6.0","",""
"255","sound/asl/silence.wav","50","audio-keyboard-response","561","311091","0.0-27.0-7.0","true",""
"4132","","","instructions","562","315223","0.0-28.0","","[{""page_index"":0,""viewing_time"":4132}]"
