"rt","stimulus","key_press","trial_type","trial_index","time_elapsed","internal_node_id","correct","view_history","responses"
"5728","backround.jpg","49","image-keyboard-response","0","5731","0.0-0.0","","",""
"113099","sound/asl/5words_lanaguage.mp3","32","audio-keyboard-response","1","141292","0.0-1.0","","",""
"20825","Instructions2-eng.png","49","image-keyboard-response","2","162117","0.0-2.0","","",""
"null","sound/asl/dukame.wav","null","audio-keyboard-response","3","163323","0.0-3.0-0.0","","",""
"null","sound/asl/gekalu.wav","null","audio-keyboard-response","4","164239","0.0-3.0-1.0","","",""
"2392","sound/asl/silence.wav","49","audio-keyboard-response","5","166633","0.0-3.0-2.0","true","",""
"null","sound/asl/duloga.wav","null","audio-keyboard-response","6","167839","0.0-4.0-0.0","","",""
"null","sound/asl/gedino.wav","null","audio-keyboard-response","7","168704","0.0-4.0-1.0","","",""
"2746","sound/asl/silence.wav","49","audio-keyboard-response","8","171450","0.0-4.0-2.0","false","",""
"null","sound/asl/nalobi.wav","null","audio-keyboard-response","9","172651","0.0-5.0-0.0","","",""
"null","sound/asl/nadime.wav","null","audio-keyboard-response","10","173464","0.0-5.0-1.0","","",""
"493","sound/asl/silence.wav","50","audio-keyboard-response","11","173959","0.0-5.0-2.0","false","",""
"null","sound/asl/nalobi.wav","null","audio-keyboard-response","12","175165","0.0-6.0-0.0","","",""
"null","sound/asl/gekalu.wav","null","audio-keyboard-response","13","176082","0.0-6.0-1.0","","",""
"1521","sound/asl/silence.wav","50","audio-keyboard-response","14","177604","0.0-6.0-2.0","false","",""
"null","sound/asl/kimuga.wav","null","audio-keyboard-response","15","178811","0.0-7.0-0.0","","",""
"null","sound/asl/kibeno.wav","null","audio-keyboard-response","16","179669","0.0-7.0-1.0","","",""
"935","sound/asl/silence.wav","49","audio-keyboard-response","17","180608","0.0-7.0-2.0","true","",""
"null","sound/asl/tobelu.wav","null","audio-keyboard-response","18","181812","0.0-8.0-0.0","","",""
"null","sound/asl/kibeno.wav","null","audio-keyboard-response","19","182671","0.0-8.0-1.0","","",""
"586","sound/asl/silence.wav","50","audio-keyboard-response","20","183260","0.0-8.0-2.0","false","",""
"null","sound/asl/tomubi.wav","null","audio-keyboard-response","21","184465","0.0-9.0-0.0","","",""
"null","sound/asl/kimuga.wav","null","audio-keyboard-response","22","185307","0.0-9.0-1.0","","",""
"244","sound/asl/silence.wav","49","audio-keyboard-response","23","185557","0.0-9.0-2.0","false","",""
"null","sound/asl/duloga.wav","null","audio-keyboard-response","24","186758","0.0-10.0-0.0","","",""
"null","sound/asl/kimuga.wav","null","audio-keyboard-response","25","187600","0.0-10.0-1.0","","",""
"2171","sound/asl/silence.wav","50","audio-keyboard-response","26","189773","0.0-10.0-2.0","true","",""
"null","sound/asl/tomubi.wav","null","audio-keyboard-response","27","190978","0.0-11.0-0.0","","",""
"null","sound/asl/nalobi.wav","null","audio-keyboard-response","28","191809","0.0-11.0-1.0","","",""
"348","sound/asl/silence.wav","49","audio-keyboard-response","29","192161","0.0-11.0-2.0","false","",""
"null","sound/asl/tomubi.wav","null","audio-keyboard-response","30","193367","0.0-12.0-0.0","","",""
"null","sound/asl/gedino.wav","null","audio-keyboard-response","31","194229","0.0-12.0-1.0","","",""
"1643","sound/asl/silence.wav","49","audio-keyboard-response","32","195873","0.0-12.0-2.0","false","",""
"null","sound/asl/nadime.wav","null","audio-keyboard-response","33","197074","0.0-13.0-0.0","","",""
"null","sound/asl/dukame.wav","null","audio-keyboard-response","34","197921","0.0-13.0-1.0","","",""
"3855","sound/asl/silence.wav","49","audio-keyboard-response","35","201778","0.0-13.0-2.0","false","",""
"null","sound/asl/nalobi.wav","null","audio-keyboard-response","36","202984","0.0-14.0-0.0","","",""
"null","sound/asl/duloga.wav","null","audio-keyboard-response","37","203819","0.0-14.0-1.0","","",""
"447","sound/asl/silence.wav","49","audio-keyboard-response","38","204268","0.0-14.0-2.0","true","",""
"null","sound/asl/nalobi.wav","null","audio-keyboard-response","39","205470","0.0-15.0-0.0","","",""
"null","sound/asl/kibeno.wav","null","audio-keyboard-response","40","206327","0.0-15.0-1.0","","",""
"279","sound/asl/silence.wav","49","audio-keyboard-response","41","206609","0.0-15.0-2.0","true","",""
"null","sound/asl/dukame.wav","null","audio-keyboard-response","42","207810","0.0-16.0-0.0","","",""
"null","sound/asl/duloga.wav","null","audio-keyboard-response","43","208643","0.0-16.0-1.0","","",""
"424","sound/asl/silence.wav","49","audio-keyboard-response","44","209070","0.0-16.0-2.0","true","",""
"null","sound/asl/gedino.wav","null","audio-keyboard-response","45","210274","0.0-17.0-0.0","","",""
"null","sound/asl/gekalu.wav","null","audio-keyboard-response","46","211191","0.0-17.0-1.0","","",""
"2270","sound/asl/silence.wav","50","audio-keyboard-response","47","213463","0.0-17.0-2.0","false","",""
"null","sound/asl/nadime.wav","null","audio-keyboard-response","48","214669","0.0-18.0-0.0","","",""
"null","sound/asl/kimuga.wav","null","audio-keyboard-response","49","215510","0.0-18.0-1.0","","",""
"81","sound/asl/silence.wav","49","audio-keyboard-response","50","215595","0.0-18.0-2.0","false","",""
"null","sound/asl/nadime.wav","null","audio-keyboard-response","51","216800","0.0-19.0-0.0","","",""
"null","sound/asl/gedino.wav","null","audio-keyboard-response","52","217665","0.0-19.0-1.0","","",""
"598","sound/asl/silence.wav","49","audio-keyboard-response","53","218263","0.0-19.0-2.0","false","",""
"null","sound/asl/tomubi.wav","null","audio-keyboard-response","54","219464","0.0-20.0-0.0","","",""
"null","sound/asl/dukame.wav","null","audio-keyboard-response","55","220312","0.0-20.0-1.0","","",""
"1196","sound/asl/silence.wav","50","audio-keyboard-response","56","221513","0.0-20.0-2.0","true","",""
"null","sound/asl/nadime.wav","null","audio-keyboard-response","57","222715","0.0-21.0-0.0","","",""
"null","sound/asl/tobelu.wav","null","audio-keyboard-response","58","223580","0.0-21.0-1.0","","",""
"244","sound/asl/silence.wav","49","audio-keyboard-response","59","223826","0.0-21.0-2.0","false","",""
"null","sound/asl/duloga.wav","null","audio-keyboard-response","60","225031","0.0-22.0-0.0","","",""
"null","sound/asl/tobelu.wav","null","audio-keyboard-response","61","225896","0.0-22.0-1.0","","",""
"197","sound/asl/silence.wav","50","audio-keyboard-response","62","226094","0.0-22.0-2.0","true","",""
"null","sound/asl/tobelu.wav","null","audio-keyboard-response","63","227295","0.0-23.0-0.0","","",""
"null","sound/asl/gekalu.wav","null","audio-keyboard-response","64","228212","0.0-23.0-1.0","","",""
"128","sound/asl/silence.wav","49","audio-keyboard-response","65","228345","0.0-23.0-2.0","true","",""
"null","sound/asl/kimuga.wav","null","audio-keyboard-response","66","229547","0.0-24.0-0.0","","",""
"null","sound/asl/gekalu.wav","null","audio-keyboard-response","67","230465","0.0-24.0-1.0","","",""
"110","sound/asl/silence.wav","49","audio-keyboard-response","68","230580","0.0-24.0-2.0","true","",""
"null","sound/asl/tomubi.wav","null","audio-keyboard-response","69","231783","0.0-25.0-0.0","","",""
"null","sound/asl/tobelu.wav","null","audio-keyboard-response","70","232648","0.0-25.0-1.0","","",""
"279","sound/asl/silence.wav","49","audio-keyboard-response","71","232930","0.0-25.0-2.0","false","",""
"null","sound/asl/dukame.wav","null","audio-keyboard-response","72","234133","0.0-26.0-0.0","","",""
"null","sound/asl/kibeno.wav","null","audio-keyboard-response","73","234993","0.0-26.0-1.0","","",""
"8139","sound/asl/silence.wav","49","audio-keyboard-response","74","243137","0.0-26.0-2.0","true","",""
"null","sound/asl/gedino.wav","null","audio-keyboard-response","75","244340","0.0-27.0-0.0","","",""
"null","sound/asl/kibeno.wav","null","audio-keyboard-response","76","245198","0.0-27.0-1.0","","",""
"871","sound/asl/silence.wav","49","audio-keyboard-response","77","246072","0.0-27.0-2.0","true","",""
"3709","","","instructions","78","249782","0.0-28.0","","[{""page_index"":0,""viewing_time"":3709}]",""
"11497","","","survey-likert","79","261281","0.0-29.0","","","{""Q0"":2}"
"14103","","","survey-likert","80","275386","0.0-30.0","","","{""Q0"":2}"
"5999","","","survey-likert","81","281385","0.0-31.0","","","{""Q0"":4}"
"4411","","","survey-likert","82","285797","0.0-32.0","","","{""Q0"":1}"
"6113","","","survey-likert","83","291912","0.0-33.0","","","{""Q0"":0}"
"4915","","","survey-likert","84","296828","0.0-34.0","","","{""Q0"":1}"
"1547","","","instructions","85","298375","0.0-35.0","","[{""page_index"":0,""viewing_time"":1546}]",""
