"rt","stimulus","key_press","trial_type","trial_index","time_elapsed","internal_node_id","correct","view_history"
"7109","alien.jpg","49","image-keyboard-response","0","7113","0.0-0.0","",""
"null","sound/msl/cat.wav","null","audio-keyboard-response","1","7608","0.0-1.0-0.0","",""
"null","sound/msl/boing.wav","null","audio-keyboard-response","2","8108","0.0-1.0-1.0","",""
"null","sound/msl/door.wav","null","audio-keyboard-response","3","8608","0.0-1.0-2.0","",""
"null","sound/msl/dog.wav","null","audio-keyboard-response","4","9112","0.0-1.0-3.0","",""
"null","sound/msl/bird.wav","null","audio-keyboard-response","5","9617","0.0-1.0-4.0","",""
"null","sound/msl/duck.wav","null","audio-keyboard-response","6","10128","0.0-1.0-5.0","",""
"null","sound/msl/cow.wav","null","audio-keyboard-response","7","10627","0.0-1.0-6.0","",""
"null","sound/msl/Water.wav","null","audio-keyboard-response","8","11138","0.0-1.0-7.0","",""
"null","sound/msl/frog.wav","null","audio-keyboard-response","9","11647","0.0-1.0-8.0","",""
"null","sound/msl/door_bell.wav","null","audio-keyboard-response","10","12147","0.0-1.0-9.0","",""
"null","sound/msl/ding.wav","null","audio-keyboard-response","11","12658","0.0-1.0-10.0","",""
"null","sound/msl/slide_whistle.wav","null","audio-keyboard-response","12","13157","0.0-1.0-11.0","",""
"null","sound/msl/dog.wav","null","audio-keyboard-response","13","13658","0.0-1.0-12.0","",""
"null","sound/msl/bird.wav","null","audio-keyboard-response","14","14167","0.0-1.0-13.0","",""
"null","sound/msl/duck.wav","null","audio-keyboard-response","15","14668","0.0-1.0-14.0","",""
"null","sound/msl/cat.wav","null","audio-keyboard-response","16","15168","0.0-1.0-15.0","",""
"null","sound/msl/boing.wav","null","audio-keyboard-response","17","15668","0.0-1.0-16.0","",""
"null","sound/msl/door.wav","null","audio-keyboard-response","18","16168","0.0-1.0-17.0","",""
"null","sound/msl/goat.wav","null","audio-keyboard-response","19","16708","0.0-1.0-18.0","",""
"null","sound/msl/organ.wav","null","audio-keyboard-response","20","17207","0.0-1.0-19.0","",""
"null","sound/msl/clock.wav","null","audio-keyboard-response","21","17757","0.0-1.0-20.0","",""
"null","sound/msl/door_bell.wav","null","audio-keyboard-response","22","18257","0.0-1.0-21.0","",""
"null","sound/msl/ding.wav","null","audio-keyboard-response","23","18767","0.0-1.0-22.0","",""
"null","sound/msl/slide_whistle.wav","null","audio-keyboard-response","24","19268","0.0-1.0-23.0","",""
"null","sound/msl/cow.wav","null","audio-keyboard-response","25","19778","0.0-1.0-24.0","",""
"null","sound/msl/Water.wav","null","audio-keyboard-response","26","20288","0.0-1.0-25.0","",""
"null","sound/msl/frog.wav","null","audio-keyboard-response","27","20788","0.0-1.0-26.0","",""
"null","sound/msl/cat.wav","null","audio-keyboard-response","28","21288","0.0-1.0-27.0","",""
"null","sound/msl/boing.wav","null","audio-keyboard-response","29","21787","0.0-1.0-28.0","",""
"null","sound/msl/door.wav","null","audio-keyboard-response","30","22288","0.0-1.0-29.0","",""
"null","sound/msl/dog.wav","null","audio-keyboard-response","31","22788","0.0-1.0-30.0","",""
"null","sound/msl/bird.wav","null","audio-keyboard-response","32","23297","0.0-1.0-31.0","",""
"null","sound/msl/duck.wav","null","audio-keyboard-response","33","23808","0.0-1.0-32.0","",""
"null","sound/msl/goat.wav","null","audio-keyboard-response","34","24348","0.0-1.0-33.0","",""
"null","sound/msl/organ.wav","null","audio-keyboard-response","35","24848","0.0-1.0-34.0","",""
"null","sound/msl/clock.wav","null","audio-keyboard-response","36","25397","0.0-1.0-35.0","",""
"null","sound/msl/cow.wav","null","audio-keyboard-response","37","25898","0.0-1.0-36.0","",""
"null","sound/msl/Water.wav","null","audio-keyboard-response","38","26408","0.0-1.0-37.0","",""
"null","sound/msl/frog.wav","null","audio-keyboard-response","39","26907","0.0-1.0-38.0","",""
"null","sound/msl/door_bell.wav","null","audio-keyboard-response","40","27418","0.0-1.0-39.0","",""
"null","sound/msl/ding.wav","null","audio-keyboard-response","41","27928","0.0-1.0-40.0","",""
"null","sound/msl/slide_whistle.wav","null","audio-keyboard-response","42","28428","0.0-1.0-41.0","",""
"null","sound/msl/goat.wav","null","audio-keyboard-response","43","28967","0.0-1.0-42.0","",""
"null","sound/msl/organ.wav","null","audio-keyboard-response","44","29468","0.0-1.0-43.0","",""
"null","sound/msl/clock.wav","null","audio-keyboard-response","45","30017","0.0-1.0-44.0","",""
"null","sound/msl/dog.wav","null","audio-keyboard-response","46","30528","0.0-1.0-45.0","",""
"null","sound/msl/bird.wav","null","audio-keyboard-response","47","31028","0.0-1.0-46.0","",""
"null","sound/msl/duck.wav","null","audio-keyboard-response","48","31537","0.0-1.0-47.0","",""
"null","sound/msl/cow.wav","null","audio-keyboard-response","49","32047","0.0-1.0-48.0","",""
"null","sound/msl/Water.wav","null","audio-keyboard-response","50","32557","0.0-1.0-49.0","",""
"null","sound/msl/frog.wav","null","audio-keyboard-response","51","33058","0.0-1.0-50.0","",""
"null","sound/msl/cat.wav","null","audio-keyboard-response","52","33558","0.0-1.0-51.0","",""
"null","sound/msl/boing.wav","null","audio-keyboard-response","53","34058","0.0-1.0-52.0","",""
"null","sound/msl/door.wav","null","audio-keyboard-response","54","34558","0.0-1.0-53.0","",""
"null","sound/msl/dog.wav","null","audio-keyboard-response","55","35058","0.0-1.0-54.0","",""
"null","sound/msl/bird.wav","null","audio-keyboard-response","56","35567","0.0-1.0-55.0","",""
"null","sound/msl/duck.wav","null","audio-keyboard-response","57","36068","0.0-1.0-56.0","",""
"null","sound/msl/cow.wav","null","audio-keyboard-response","58","36578","0.0-1.0-57.0","",""
"null","sound/msl/Water.wav","null","audio-keyboard-response","59","37087","0.0-1.0-58.0","",""
"null","sound/msl/frog.wav","null","audio-keyboard-response","60","37588","0.0-1.0-59.0","",""
"null","sound/msl/door_bell.wav","null","audio-keyboard-response","61","38098","0.0-1.0-60.0","",""
"null","sound/msl/ding.wav","null","audio-keyboard-response","62","38607","0.0-1.0-61.0","",""
"null","sound/msl/slide_whistle.wav","null","audio-keyboard-response","63","39108","0.0-1.0-62.0","",""
"null","sound/msl/goat.wav","null","audio-keyboard-response","64","39648","0.0-1.0-63.0","",""
"null","sound/msl/organ.wav","null","audio-keyboard-response","65","40148","0.0-1.0-64.0","",""
"null","sound/msl/clock.wav","null","audio-keyboard-response","66","40697","0.0-1.0-65.0","",""
"null","sound/msl/dog.wav","null","audio-keyboard-response","67","41207","0.0-1.0-66.0","",""
"null","sound/msl/bird.wav","null","audio-keyboard-response","68","41707","0.0-1.0-67.0","",""
"null","sound/msl/duck.wav","null","audio-keyboard-response","69","42218","0.0-1.0-68.0","",""
"null","sound/msl/cat.wav","null","audio-keyboard-response","70","42718","0.0-1.0-69.0","",""
"null","sound/msl/boing.wav","null","audio-keyboard-response","71","43217","0.0-1.0-70.0","",""
"null","sound/msl/door.wav","null","audio-keyboard-response","72","43718","0.0-1.0-71.0","",""
"null","sound/msl/cow.wav","null","audio-keyboard-response","73","44217","0.0-1.0-72.0","",""
"null","sound/msl/Water.wav","null","audio-keyboard-response","74","44728","0.0-1.0-73.0","",""
"null","sound/msl/frog.wav","null","audio-keyboard-response","75","45227","0.0-1.0-74.0","",""
"null","sound/msl/door_bell.wav","null","audio-keyboard-response","76","45738","0.0-1.0-75.0","",""
"null","sound/msl/ding.wav","null","audio-keyboard-response","77","46247","0.0-1.0-76.0","",""
"null","sound/msl/slide_whistle.wav","null","audio-keyboard-response","78","46748","0.0-1.0-77.0","",""
"null","sound/msl/cow.wav","null","audio-keyboard-response","79","47258","0.0-1.0-78.0","",""
"null","sound/msl/Water.wav","null","audio-keyboard-response","80","47768","0.0-1.0-79.0","",""
"null","sound/msl/frog.wav","null","audio-keyboard-response","81","48268","0.0-1.0-80.0","",""
"null","sound/msl/goat.wav","null","audio-keyboard-response","82","48807","0.0-1.0-81.0","",""
"null","sound/msl/organ.wav","null","audio-keyboard-response","83","49308","0.0-1.0-82.0","",""
"null","sound/msl/clock.wav","null","audio-keyboard-response","84","49857","0.0-1.0-83.0","",""
"null","sound/msl/cat.wav","null","audio-keyboard-response","85","50358","0.0-1.0-84.0","",""
"null","sound/msl/boing.wav","null","audio-keyboard-response","86","50858","0.0-1.0-85.0","",""
"null","sound/msl/door.wav","null","audio-keyboard-response","87","51357","0.0-1.0-86.0","",""
"null","sound/msl/dog.wav","null","audio-keyboard-response","88","51857","0.0-1.0-87.0","",""
"null","sound/msl/bird.wav","null","audio-keyboard-response","89","52368","0.0-1.0-88.0","",""
"null","sound/msl/duck.wav","null","audio-keyboard-response","90","52868","0.0-1.0-89.0","",""
"null","sound/msl/goat.wav","null","audio-keyboard-response","91","53408","0.0-1.0-90.0","",""
"null","sound/msl/organ.wav","null","audio-keyboard-response","92","53908","0.0-1.0-91.0","",""
"null","sound/msl/clock.wav","null","audio-keyboard-response","93","54458","0.0-1.0-92.0","",""
"null","sound/msl/door_bell.wav","null","audio-keyboard-response","94","54968","0.0-1.0-93.0","",""
"null","sound/msl/ding.wav","null","audio-keyboard-response","95","55468","0.0-1.0-94.0","",""
"null","sound/msl/slide_whistle.wav","null","audio-keyboard-response","96","55968","0.0-1.0-95.0","",""
"null","sound/msl/cow.wav","null","audio-keyboard-response","97","56468","0.0-1.0-96.0","",""
"null","sound/msl/Water.wav","null","audio-keyboard-response","98","56978","0.0-1.0-97.0","",""
"null","sound/msl/frog.wav","null","audio-keyboard-response","99","57488","0.0-1.0-98.0","",""
"null","sound/msl/dog.wav","null","audio-keyboard-response","100","57988","0.0-1.0-99.0","",""
"null","sound/msl/bird.wav","null","audio-keyboard-response","101","58498","0.0-1.0-100.0","",""
"null","sound/msl/duck.wav","null","audio-keyboard-response","102","59007","0.0-1.0-101.0","",""
"null","sound/msl/goat.wav","null","audio-keyboard-response","103","59547","0.0-1.0-102.0","",""
"null","sound/msl/organ.wav","null","audio-keyboard-response","104","60048","0.0-1.0-103.0","",""
"null","sound/msl/clock.wav","null","audio-keyboard-response","105","60598","0.0-1.0-104.0","",""
"null","sound/msl/cat.wav","null","audio-keyboard-response","106","61097","0.0-1.0-105.0","",""
"null","sound/msl/boing.wav","null","audio-keyboard-response","107","61598","0.0-1.0-106.0","",""
"null","sound/msl/door.wav","null","audio-keyboard-response","108","62098","0.0-1.0-107.0","",""
"null","sound/msl/dog.wav","null","audio-keyboard-response","109","62608","0.0-1.0-108.0","",""
"null","sound/msl/bird.wav","null","audio-keyboard-response","110","63107","0.0-1.0-109.0","",""
"null","sound/msl/duck.wav","null","audio-keyboard-response","111","63618","0.0-1.0-110.0","",""
"null","sound/msl/door_bell.wav","null","audio-keyboard-response","112","64128","0.0-1.0-111.0","",""
"null","sound/msl/ding.wav","null","audio-keyboard-response","113","64628","0.0-1.0-112.0","",""
"null","sound/msl/slide_whistle.wav","null","audio-keyboard-response","114","65128","0.0-1.0-113.0","",""
"null","sound/msl/goat.wav","null","audio-keyboard-response","115","65668","0.0-1.0-114.0","",""
"null","sound/msl/organ.wav","null","audio-keyboard-response","116","66167","0.0-1.0-115.0","",""
"null","sound/msl/clock.wav","null","audio-keyboard-response","117","66718","0.0-1.0-116.0","",""
"null","sound/msl/cow.wav","null","audio-keyboard-response","118","67218","0.0-1.0-117.0","",""
"null","sound/msl/Water.wav","null","audio-keyboard-response","119","67728","0.0-1.0-118.0","",""
"null","sound/msl/frog.wav","null","audio-keyboard-response","120","68227","0.0-1.0-119.0","",""
"null","sound/msl/cat.wav","null","audio-keyboard-response","121","68727","0.0-1.0-120.0","",""
"null","sound/msl/boing.wav","null","audio-keyboard-response","122","69228","0.0-1.0-121.0","",""
"null","sound/msl/door.wav","null","audio-keyboard-response","123","69728","0.0-1.0-122.0","",""
"null","sound/msl/dog.wav","null","audio-keyboard-response","124","70228","0.0-1.0-123.0","",""
"null","sound/msl/bird.wav","null","audio-keyboard-response","125","70737","0.0-1.0-124.0","",""
"null","sound/msl/duck.wav","null","audio-keyboard-response","126","71248","0.0-1.0-125.0","",""
"null","sound/msl/goat.wav","null","audio-keyboard-response","127","71787","0.0-1.0-126.0","",""
"null","sound/msl/organ.wav","null","audio-keyboard-response","128","72287","0.0-1.0-127.0","",""
"null","sound/msl/clock.wav","null","audio-keyboard-response","129","72837","0.0-1.0-128.0","",""
"null","sound/msl/door_bell.wav","null","audio-keyboard-response","130","73338","0.0-1.0-129.0","",""
"null","sound/msl/ding.wav","null","audio-keyboard-response","131","73848","0.0-1.0-130.0","",""
"null","sound/msl/slide_whistle.wav","null","audio-keyboard-response","132","74348","0.0-1.0-131.0","",""
"null","sound/msl/dog.wav","null","audio-keyboard-response","133","74858","0.0-1.0-132.0","",""
"null","sound/msl/bird.wav","null","audio-keyboard-response","134","75368","0.0-1.0-133.0","",""
"null","sound/msl/duck.wav","null","audio-keyboard-response","135","75868","0.0-1.0-134.0","",""
"null","sound/msl/cow.wav","null","audio-keyboard-response","136","76378","0.0-1.0-135.0","",""
"null","sound/msl/Water.wav","null","audio-keyboard-response","137","76888","0.0-1.0-136.0","",""
"null","sound/msl/frog.wav","null","audio-keyboard-response","138","77388","0.0-1.0-137.0","",""
"null","sound/msl/door_bell.wav","null","audio-keyboard-response","139","77898","0.0-1.0-138.0","",""
"null","sound/msl/ding.wav","null","audio-keyboard-response","140","78408","0.0-1.0-139.0","",""
"null","sound/msl/slide_whistle.wav","null","audio-keyboard-response","141","78908","0.0-1.0-140.0","",""
"null","sound/msl/cat.wav","null","audio-keyboard-response","142","79408","0.0-1.0-141.0","",""
"null","sound/msl/boing.wav","null","audio-keyboard-response","143","79908","0.0-1.0-142.0","",""
"null","sound/msl/door.wav","null","audio-keyboard-response","144","80407","0.0-1.0-143.0","",""
"null","sound/msl/goat.wav","null","audio-keyboard-response","145","80948","0.0-1.0-144.0","",""
"null","sound/msl/organ.wav","null","audio-keyboard-response","146","81448","0.0-1.0-145.0","",""
"null","sound/msl/clock.wav","null","audio-keyboard-response","147","81998","0.0-1.0-146.0","",""
"null","sound/msl/cow.wav","null","audio-keyboard-response","148","82498","0.0-1.0-147.0","",""
"null","sound/msl/Water.wav","null","audio-keyboard-response","149","83008","0.0-1.0-148.0","",""
"null","sound/msl/frog.wav","null","audio-keyboard-response","150","83507","0.0-1.0-149.0","",""
"null","sound/msl/cat.wav","null","audio-keyboard-response","151","84008","0.0-1.0-150.0","",""
"null","sound/msl/boing.wav","null","audio-keyboard-response","152","84508","0.0-1.0-151.0","",""
"null","sound/msl/door.wav","null","audio-keyboard-response","153","85008","0.0-1.0-152.0","",""
"null","sound/msl/dog.wav","null","audio-keyboard-response","154","85508","0.0-1.0-153.0","",""
"null","sound/msl/bird.wav","null","audio-keyboard-response","155","86018","0.0-1.0-154.0","",""
"null","sound/msl/duck.wav","null","audio-keyboard-response","156","86528","0.0-1.0-155.0","",""
"null","sound/msl/door_bell.wav","null","audio-keyboard-response","157","87028","0.0-1.0-156.0","",""
"null","sound/msl/ding.wav","null","audio-keyboard-response","158","87538","0.0-1.0-157.0","",""
"null","sound/msl/slide_whistle.wav","null","audio-keyboard-response","159","88038","0.0-1.0-158.0","",""
"null","sound/msl/goat.wav","null","audio-keyboard-response","160","88578","0.0-1.0-159.0","",""
"null","sound/msl/organ.wav","null","audio-keyboard-response","161","89077","0.0-1.0-160.0","",""
"null","sound/msl/clock.wav","null","audio-keyboard-response","162","89628","0.0-1.0-161.0","",""
"null","sound/msl/dog.wav","null","audio-keyboard-response","163","90138","0.0-1.0-162.0","",""
"null","sound/msl/bird.wav","null","audio-keyboard-response","164","90648","0.0-1.0-163.0","",""
"null","sound/msl/duck.wav","null","audio-keyboard-response","165","91148","0.0-1.0-164.0","",""
"null","sound/msl/door_bell.wav","null","audio-keyboard-response","166","91658","0.0-1.0-165.0","",""
"null","sound/msl/ding.wav","null","audio-keyboard-response","167","92168","0.0-1.0-166.0","",""
"null","sound/msl/slide_whistle.wav","null","audio-keyboard-response","168","92668","0.0-1.0-167.0","",""
"null","sound/msl/cat.wav","null","audio-keyboard-response","169","93168","0.0-1.0-168.0","",""
"null","sound/msl/boing.wav","null","audio-keyboard-response","170","93668","0.0-1.0-169.0","",""
"null","sound/msl/door.wav","null","audio-keyboard-response","171","94168","0.0-1.0-170.0","",""
"null","sound/msl/cow.wav","null","audio-keyboard-response","172","94668","0.0-1.0-171.0","",""
"null","sound/msl/Water.wav","null","audio-keyboard-response","173","95177","0.0-1.0-172.0","",""
"null","sound/msl/frog.wav","null","audio-keyboard-response","174","95688","0.0-1.0-173.0","",""
"null","sound/msl/goat.wav","null","audio-keyboard-response","175","96228","0.0-1.0-174.0","",""
"null","sound/msl/organ.wav","null","audio-keyboard-response","176","96728","0.0-1.0-175.0","",""
"null","sound/msl/clock.wav","null","audio-keyboard-response","177","97278","0.0-1.0-176.0","",""
"null","sound/msl/dog.wav","null","audio-keyboard-response","178","97778","0.0-1.0-177.0","",""
"null","sound/msl/bird.wav","null","audio-keyboard-response","179","98288","0.0-1.0-178.0","",""
"null","sound/msl/duck.wav","null","audio-keyboard-response","180","98787","0.0-1.0-179.0","",""
"null","sound/msl/cow.wav","null","audio-keyboard-response","181","99299","0.0-1.0-180.0","",""
"null","sound/msl/Water.wav","null","audio-keyboard-response","182","99808","0.0-1.0-181.0","",""
"null","sound/msl/frog.wav","null","audio-keyboard-response","183","100308","0.0-1.0-182.0","",""
"null","sound/msl/door_bell.wav","null","audio-keyboard-response","184","100817","0.0-1.0-183.0","",""
"null","sound/msl/ding.wav","null","audio-keyboard-response","185","101328","0.0-1.0-184.0","",""
"null","sound/msl/slide_whistle.wav","null","audio-keyboard-response","186","101828","0.0-1.0-185.0","",""
"null","sound/msl/cat.wav","null","audio-keyboard-response","187","102328","0.0-1.0-186.0","",""
"null","sound/msl/boing.wav","null","audio-keyboard-response","188","102828","0.0-1.0-187.0","",""
"null","sound/msl/door.wav","null","audio-keyboard-response","189","103328","0.0-1.0-188.0","",""
"null","sound/msl/goat.wav","null","audio-keyboard-response","190","103868","0.0-1.0-189.0","",""
"null","sound/msl/organ.wav","null","audio-keyboard-response","191","104367","0.0-1.0-190.0","",""
"null","sound/msl/clock.wav","null","audio-keyboard-response","192","104918","0.0-1.0-191.0","",""
"null","sound/msl/dog.wav","null","audio-keyboard-response","193","105417","0.0-1.0-192.0","",""
"null","sound/msl/bird.wav","null","audio-keyboard-response","194","105928","0.0-1.0-193.0","",""
"null","sound/msl/duck.wav","null","audio-keyboard-response","195","106428","0.0-1.0-194.0","",""
"null","sound/msl/cow.wav","null","audio-keyboard-response","196","106937","0.0-1.0-195.0","",""
"null","sound/msl/Water.wav","null","audio-keyboard-response","197","107448","0.0-1.0-196.0","",""
"null","sound/msl/frog.wav","null","audio-keyboard-response","198","107949","0.0-1.0-197.0","",""
"null","sound/msl/cat.wav","null","audio-keyboard-response","199","108448","0.0-1.0-198.0","",""
"null","sound/msl/boing.wav","null","audio-keyboard-response","200","108948","0.0-1.0-199.0","",""
"null","sound/msl/door.wav","null","audio-keyboard-response","201","109448","0.0-1.0-200.0","",""
"null","sound/msl/door_bell.wav","null","audio-keyboard-response","202","109948","0.0-1.0-201.0","",""
"null","sound/msl/ding.wav","null","audio-keyboard-response","203","110457","0.0-1.0-202.0","",""
"null","sound/msl/slide_whistle.wav","null","audio-keyboard-response","204","110958","0.0-1.0-203.0","",""
"null","sound/msl/goat.wav","null","audio-keyboard-response","205","111498","0.0-1.0-204.0","",""
"null","sound/msl/organ.wav","null","audio-keyboard-response","206","111997","0.0-1.0-205.0","",""
"null","sound/msl/clock.wav","null","audio-keyboard-response","207","112549","0.0-1.0-206.0","",""
"null","sound/msl/dog.wav","null","audio-keyboard-response","208","113057","0.0-1.0-207.0","",""
"null","sound/msl/bird.wav","null","audio-keyboard-response","209","113567","0.0-1.0-208.0","",""
"null","sound/msl/duck.wav","null","audio-keyboard-response","210","114067","0.0-1.0-209.0","",""
"null","sound/msl/cat.wav","null","audio-keyboard-response","211","114568","0.0-1.0-210.0","",""
"null","sound/msl/boing.wav","null","audio-keyboard-response","212","115068","0.0-1.0-211.0","",""
"null","sound/msl/door.wav","null","audio-keyboard-response","213","115568","0.0-1.0-212.0","",""
"null","sound/msl/goat.wav","null","audio-keyboard-response","214","116109","0.0-1.0-213.0","",""
"null","sound/msl/organ.wav","null","audio-keyboard-response","215","116609","0.0-1.0-214.0","",""
"null","sound/msl/clock.wav","null","audio-keyboard-response","216","117158","0.0-1.0-215.0","",""
"null","sound/msl/cow.wav","null","audio-keyboard-response","217","117659","0.0-1.0-216.0","",""
"null","sound/msl/Water.wav","null","audio-keyboard-response","218","118167","0.0-1.0-217.0","",""
"null","sound/msl/frog.wav","null","audio-keyboard-response","219","118668","0.0-1.0-218.0","",""
"null","sound/msl/door_bell.wav","null","audio-keyboard-response","220","119177","0.0-1.0-219.0","",""
"null","sound/msl/ding.wav","null","audio-keyboard-response","221","119689","0.0-1.0-220.0","",""
"null","sound/msl/slide_whistle.wav","null","audio-keyboard-response","222","120189","0.0-1.0-221.0","",""
"null","sound/msl/dog.wav","null","audio-keyboard-response","223","120698","0.0-1.0-222.0","",""
"null","sound/msl/bird.wav","null","audio-keyboard-response","224","121208","0.0-1.0-223.0","",""
"null","sound/msl/duck.wav","null","audio-keyboard-response","225","121708","0.0-1.0-224.0","",""
"null","sound/msl/cow.wav","null","audio-keyboard-response","226","122218","0.0-1.0-225.0","",""
"null","sound/msl/Water.wav","null","audio-keyboard-response","227","122728","0.0-1.0-226.0","",""
"null","sound/msl/frog.wav","null","audio-keyboard-response","228","123229","0.0-1.0-227.0","",""
"null","sound/msl/goat.wav","null","audio-keyboard-response","229","123769","0.0-1.0-228.0","",""
"null","sound/msl/organ.wav","null","audio-keyboard-response","230","124269","0.0-1.0-229.0","",""
"null","sound/msl/clock.wav","null","audio-keyboard-response","231","124818","0.0-1.0-230.0","",""
"null","sound/msl/cow.wav","null","audio-keyboard-response","232","125328","0.0-1.0-231.0","",""
"null","sound/msl/Water.wav","null","audio-keyboard-response","233","125838","0.0-1.0-232.0","",""
"null","sound/msl/frog.wav","null","audio-keyboard-response","234","126338","0.0-1.0-233.0","",""
"null","sound/msl/dog.wav","null","audio-keyboard-response","235","126848","0.0-1.0-234.0","",""
"null","sound/msl/bird.wav","null","audio-keyboard-response","236","127347","0.0-1.0-235.0","",""
"null","sound/msl/duck.wav","null","audio-keyboard-response","237","127858","0.0-1.0-236.0","",""
"null","sound/msl/door_bell.wav","null","audio-keyboard-response","238","128368","0.0-1.0-237.0","",""
"null","sound/msl/ding.wav","null","audio-keyboard-response","239","128869","0.0-1.0-238.0","",""
"null","sound/msl/slide_whistle.wav","null","audio-keyboard-response","240","129368","0.0-1.0-239.0","",""
"null","sound/msl/cat.wav","null","audio-keyboard-response","241","129868","0.0-1.0-240.0","",""
"null","sound/msl/boing.wav","null","audio-keyboard-response","242","130368","0.0-1.0-241.0","",""
"null","sound/msl/door.wav","null","audio-keyboard-response","243","130869","0.0-1.0-242.0","",""
"null","sound/msl/goat.wav","null","audio-keyboard-response","244","131408","0.0-1.0-243.0","",""
"null","sound/msl/organ.wav","null","audio-keyboard-response","245","131908","0.0-1.0-244.0","",""
"null","sound/msl/clock.wav","null","audio-keyboard-response","246","132458","0.0-1.0-245.0","",""
"null","sound/msl/dog.wav","null","audio-keyboard-response","247","132967","0.0-1.0-246.0","",""
"null","sound/msl/bird.wav","null","audio-keyboard-response","248","133468","0.0-1.0-247.0","",""
"null","sound/msl/duck.wav","null","audio-keyboard-response","249","133978","0.0-1.0-248.0","",""
"null","sound/msl/door_bell.wav","null","audio-keyboard-response","250","134488","0.0-1.0-249.0","",""
"null","sound/msl/ding.wav","null","audio-keyboard-response","251","134989","0.0-1.0-250.0","",""
"null","sound/msl/slide_whistle.wav","null","audio-keyboard-response","252","135488","0.0-1.0-251.0","",""
"null","sound/msl/cat.wav","null","audio-keyboard-response","253","135989","0.0-1.0-252.0","",""
"null","sound/msl/boing.wav","null","audio-keyboard-response","254","136488","0.0-1.0-253.0","",""
"null","sound/msl/door.wav","null","audio-keyboard-response","255","136988","0.0-1.0-254.0","",""
"null","sound/msl/cow.wav","null","audio-keyboard-response","256","137498","0.0-1.0-255.0","",""
"null","sound/msl/Water.wav","null","audio-keyboard-response","257","138009","0.0-1.0-256.0","",""
"null","sound/msl/frog.wav","null","audio-keyboard-response","258","138508","0.0-1.0-257.0","",""
"null","sound/msl/goat.wav","null","audio-keyboard-response","259","139047","0.0-1.0-258.0","",""
"null","sound/msl/organ.wav","null","audio-keyboard-response","260","139548","0.0-1.0-259.0","",""
"null","sound/msl/clock.wav","null","audio-keyboard-response","261","140098","0.0-1.0-260.0","",""
"null","sound/msl/cat.wav","null","audio-keyboard-response","262","140599","0.0-1.0-261.0","",""
"null","sound/msl/boing.wav","null","audio-keyboard-response","263","141098","0.0-1.0-262.0","",""
"null","sound/msl/door.wav","null","audio-keyboard-response","264","141598","0.0-1.0-263.0","",""
"null","sound/msl/door_bell.wav","null","audio-keyboard-response","265","142098","0.0-1.0-264.0","",""
"null","sound/msl/ding.wav","null","audio-keyboard-response","266","142608","0.0-1.0-265.0","",""
"null","sound/msl/slide_whistle.wav","null","audio-keyboard-response","267","143108","0.0-1.0-266.0","",""
"null","sound/msl/cow.wav","null","audio-keyboard-response","268","143618","0.0-1.0-267.0","",""
"null","sound/msl/Water.wav","null","audio-keyboard-response","269","144128","0.0-1.0-268.0","",""
"null","sound/msl/frog.wav","null","audio-keyboard-response","270","144628","0.0-1.0-269.0","",""
"null","sound/msl/dog.wav","null","audio-keyboard-response","271","145138","0.0-1.0-270.0","",""
"null","sound/msl/bird.wav","null","audio-keyboard-response","272","145648","0.0-1.0-271.0","",""
"null","sound/msl/duck.wav","null","audio-keyboard-response","273","146148","0.0-1.0-272.0","",""
"null","sound/msl/goat.wav","null","audio-keyboard-response","274","146689","0.0-1.0-273.0","",""
"null","sound/msl/organ.wav","null","audio-keyboard-response","275","147189","0.0-1.0-274.0","",""
"null","sound/msl/clock.wav","null","audio-keyboard-response","276","147738","0.0-1.0-275.0","",""
"null","sound/msl/cat.wav","null","audio-keyboard-response","277","148238","0.0-1.0-276.0","",""
"null","sound/msl/boing.wav","null","audio-keyboard-response","278","148739","0.0-1.0-277.0","",""
"null","sound/msl/door.wav","null","audio-keyboard-response","279","149238","0.0-1.0-278.0","",""
"null","sound/msl/door_bell.wav","null","audio-keyboard-response","280","149737","0.0-1.0-279.0","",""
"null","sound/msl/ding.wav","null","audio-keyboard-response","281","150248","0.0-1.0-280.0","",""
"null","sound/msl/slide_whistle.wav","null","audio-keyboard-response","282","150748","0.0-1.0-281.0","",""
"null","sound/msl/dog.wav","null","audio-keyboard-response","283","151258","0.0-1.0-282.0","",""
"null","sound/msl/bird.wav","null","audio-keyboard-response","284","151768","0.0-1.0-283.0","",""
"null","sound/msl/duck.wav","null","audio-keyboard-response","285","152268","0.0-1.0-284.0","",""
"null","sound/msl/cow.wav","null","audio-keyboard-response","286","152778","0.0-1.0-285.0","",""
"null","sound/msl/Water.wav","null","audio-keyboard-response","287","153288","0.0-1.0-286.0","",""
"null","sound/msl/frog.wav","null","audio-keyboard-response","288","153788","0.0-1.0-287.0","",""
"null","sound/msl/goat.wav","null","audio-keyboard-response","289","154329","0.0-1.0-288.0","",""
"null","sound/msl/organ.wav","null","audio-keyboard-response","290","154829","0.0-1.0-289.0","",""
"null","sound/msl/clock.wav","null","audio-keyboard-response","291","155378","0.0-1.0-290.0","",""
"null","sound/msl/door_bell.wav","null","audio-keyboard-response","292","155888","0.0-1.0-291.0","",""
"null","sound/msl/ding.wav","null","audio-keyboard-response","293","156389","0.0-1.0-292.0","",""
"null","sound/msl/slide_whistle.wav","null","audio-keyboard-response","294","156888","0.0-1.0-293.0","",""
"null","sound/msl/cat.wav","null","audio-keyboard-response","295","157389","0.0-1.0-294.0","",""
"null","sound/msl/boing.wav","null","audio-keyboard-response","296","157888","0.0-1.0-295.0","",""
"null","sound/msl/door.wav","null","audio-keyboard-response","297","158388","0.0-1.0-296.0","",""
"null","sound/msl/goat.wav","null","audio-keyboard-response","298","158927","0.0-1.0-297.0","",""
"null","sound/msl/organ.wav","null","audio-keyboard-response","299","159428","0.0-1.0-298.0","",""
"null","sound/msl/clock.wav","null","audio-keyboard-response","300","159978","0.0-1.0-299.0","",""
"null","sound/msl/dog.wav","null","audio-keyboard-response","301","160488","0.0-1.0-300.0","",""
"null","sound/msl/bird.wav","null","audio-keyboard-response","302","160988","0.0-1.0-301.0","",""
"null","sound/msl/duck.wav","null","audio-keyboard-response","303","161498","0.0-1.0-302.0","",""
"null","sound/msl/door_bell.wav","null","audio-keyboard-response","304","162007","0.0-1.0-303.0","",""
"null","sound/msl/ding.wav","null","audio-keyboard-response","305","162508","0.0-1.0-304.0","",""
"null","sound/msl/slide_whistle.wav","null","audio-keyboard-response","306","163008","0.0-1.0-305.0","",""
"null","sound/msl/cow.wav","null","audio-keyboard-response","307","163509","0.0-1.0-306.0","",""
"null","sound/msl/Water.wav","null","audio-keyboard-response","308","164019","0.0-1.0-307.0","",""
"null","sound/msl/frog.wav","null","audio-keyboard-response","309","164529","0.0-1.0-308.0","",""
"null","sound/msl/cat.wav","null","audio-keyboard-response","310","165028","0.0-1.0-309.0","",""
"null","sound/msl/boing.wav","null","audio-keyboard-response","311","165528","0.0-1.0-310.0","",""
"null","sound/msl/door.wav","null","audio-keyboard-response","312","166028","0.0-1.0-311.0","",""
"null","sound/msl/goat.wav","null","audio-keyboard-response","313","166569","0.0-1.0-312.0","",""
"null","sound/msl/organ.wav","null","audio-keyboard-response","314","167069","0.0-1.0-313.0","",""
"null","sound/msl/clock.wav","null","audio-keyboard-response","315","167618","0.0-1.0-314.0","",""
"null","sound/msl/dog.wav","null","audio-keyboard-response","316","168129","0.0-1.0-315.0","",""
"null","sound/msl/bird.wav","null","audio-keyboard-response","317","168628","0.0-1.0-316.0","",""
"null","sound/msl/duck.wav","null","audio-keyboard-response","318","169138","0.0-1.0-317.0","",""
"null","sound/msl/door_bell.wav","null","audio-keyboard-response","319","169648","0.0-1.0-318.0","",""
"null","sound/msl/ding.wav","null","audio-keyboard-response","320","170148","0.0-1.0-319.0","",""
"null","sound/msl/slide_whistle.wav","null","audio-keyboard-response","321","170648","0.0-1.0-320.0","",""
"null","sound/msl/cat.wav","null","audio-keyboard-response","322","171148","0.0-1.0-321.0","",""
"null","sound/msl/boing.wav","null","audio-keyboard-response","323","171648","0.0-1.0-322.0","",""
"null","sound/msl/door.wav","null","audio-keyboard-response","324","172148","0.0-1.0-323.0","",""
"null","sound/msl/dog.wav","null","audio-keyboard-response","325","172658","0.0-1.0-324.0","",""
"null","sound/msl/bird.wav","null","audio-keyboard-response","326","173168","0.0-1.0-325.0","",""
"null","sound/msl/duck.wav","null","audio-keyboard-response","327","173668","0.0-1.0-326.0","",""
"null","sound/msl/cow.wav","null","audio-keyboard-response","328","174178","0.0-1.0-327.0","",""
"null","sound/msl/Water.wav","null","audio-keyboard-response","329","174689","0.0-1.0-328.0","",""
"null","sound/msl/frog.wav","null","audio-keyboard-response","330","175188","0.0-1.0-329.0","",""
"null","sound/msl/goat.wav","null","audio-keyboard-response","331","175728","0.0-1.0-330.0","",""
"null","sound/msl/organ.wav","null","audio-keyboard-response","332","176229","0.0-1.0-331.0","",""
"null","sound/msl/clock.wav","null","audio-keyboard-response","333","176778","0.0-1.0-332.0","",""
"null","sound/msl/door_bell.wav","null","audio-keyboard-response","334","177288","0.0-1.0-333.0","",""
"null","sound/msl/ding.wav","null","audio-keyboard-response","335","177788","0.0-1.0-334.0","",""
"null","sound/msl/slide_whistle.wav","null","audio-keyboard-response","336","178288","0.0-1.0-335.0","",""
"null","sound/msl/cow.wav","null","audio-keyboard-response","337","178789","0.0-1.0-336.0","",""
"null","sound/msl/Water.wav","null","audio-keyboard-response","338","179298","0.0-1.0-337.0","",""
"null","sound/msl/frog.wav","null","audio-keyboard-response","339","179809","0.0-1.0-338.0","",""
"null","sound/msl/cat.wav","null","audio-keyboard-response","340","180308","0.0-1.0-339.0","",""
"null","sound/msl/boing.wav","null","audio-keyboard-response","341","180807","0.0-1.0-340.0","",""
"null","sound/msl/door.wav","null","audio-keyboard-response","342","181307","0.0-1.0-341.0","",""
"null","sound/msl/door_bell.wav","null","audio-keyboard-response","343","181818","0.0-1.0-342.0","",""
"null","sound/msl/ding.wav","null","audio-keyboard-response","344","182328","0.0-1.0-343.0","",""
"null","sound/msl/slide_whistle.wav","null","audio-keyboard-response","345","182828","0.0-1.0-344.0","",""
"null","sound/msl/cat.wav","null","audio-keyboard-response","346","183328","0.0-1.0-345.0","",""
"null","sound/msl/boing.wav","null","audio-keyboard-response","347","183828","0.0-1.0-346.0","",""
"null","sound/msl/door.wav","null","audio-keyboard-response","348","184329","0.0-1.0-347.0","",""
"null","sound/msl/cow.wav","null","audio-keyboard-response","349","184828","0.0-1.0-348.0","",""
"null","sound/msl/Water.wav","null","audio-keyboard-response","350","185338","0.0-1.0-349.0","",""
"null","sound/msl/frog.wav","null","audio-keyboard-response","351","185849","0.0-1.0-350.0","",""
"null","sound/msl/goat.wav","null","audio-keyboard-response","352","186388","0.0-1.0-351.0","",""
"null","sound/msl/organ.wav","null","audio-keyboard-response","353","186888","0.0-1.0-352.0","",""
"null","sound/msl/clock.wav","null","audio-keyboard-response","354","187438","0.0-1.0-353.0","",""
"null","sound/msl/door_bell.wav","null","audio-keyboard-response","355","187938","0.0-1.0-354.0","",""
"null","sound/msl/ding.wav","null","audio-keyboard-response","356","188448","0.0-1.0-355.0","",""
"null","sound/msl/slide_whistle.wav","null","audio-keyboard-response","357","188949","0.0-1.0-356.0","",""
"null","sound/msl/cat.wav","null","audio-keyboard-response","358","189448","0.0-1.0-357.0","",""
"null","sound/msl/boing.wav","null","audio-keyboard-response","359","189948","0.0-1.0-358.0","",""
"null","sound/msl/door.wav","null","audio-keyboard-response","360","190448","0.0-1.0-359.0","",""
"17196","Instructions2-eng.png","49","image-keyboard-response","361","207646","0.0-2.0","",""
"null","sound/msl/cow.wav","null","audio-keyboard-response","362","208138","0.0-3.0-0.0","",""
"null","sound/msl/ding.wav","null","audio-keyboard-response","363","208648","0.0-3.0-1.0","",""
"null","sound/msl/clock.wav","null","audio-keyboard-response","364","209198","0.0-3.0-2.0","",""
"null","sound/asl/silence.wav","null","audio-keyboard-response","365","209700","0.0-3.0-3.0","",""
"null","sound/msl/cow.wav","null","audio-keyboard-response","366","210207","0.0-3.0-4.0","",""
"null","sound/msl/Water.wav","null","audio-keyboard-response","367","210717","0.0-3.0-5.0","",""
"null","sound/msl/frog.wav","null","audio-keyboard-response","368","211218","0.0-3.0-6.0","",""
"259","sound/asl/silence.wav","49","audio-keyboard-response","369","211485","0.0-3.0-7.0","false",""
"null","sound/msl/cat.wav","null","audio-keyboard-response","370","211978","0.0-4.0-0.0","",""
"null","sound/msl/bird.wav","null","audio-keyboard-response","371","212488","0.0-4.0-1.0","",""
"null","sound/msl/frog.wav","null","audio-keyboard-response","372","212988","0.0-4.0-2.0","",""
"null","sound/asl/silence.wav","null","audio-keyboard-response","373","213490","0.0-4.0-3.0","",""
"null","sound/msl/goat.wav","null","audio-keyboard-response","374","214028","0.0-4.0-4.0","",""
"null","sound/msl/organ.wav","null","audio-keyboard-response","375","214529","0.0-4.0-5.0","",""
"null","sound/msl/clock.wav","null","audio-keyboard-response","376","215077","0.0-4.0-6.0","",""
"2552","sound/asl/silence.wav","50","audio-keyboard-response","377","217629","0.0-4.0-7.0","true",""
"null","sound/msl/goat.wav","null","audio-keyboard-response","378","218168","0.0-5.0-0.0","",""
"null","sound/msl/organ.wav","null","audio-keyboard-response","379","218668","0.0-5.0-1.0","",""
"null","sound/msl/clock.wav","null","audio-keyboard-response","380","219217","0.0-5.0-2.0","",""
"null","sound/asl/silence.wav","null","audio-keyboard-response","381","219719","0.0-5.0-3.0","",""
"null","sound/msl/dog.wav","null","audio-keyboard-response","382","220218","0.0-5.0-4.0","",""
"null","sound/msl/Water.wav","null","audio-keyboard-response","383","220729","0.0-5.0-5.0","",""
"null","sound/msl/slide_whistle.wav","null","audio-keyboard-response","384","221227","0.0-5.0-6.0","",""
"2269","sound/asl/silence.wav","50","audio-keyboard-response","385","223499","0.0-5.0-7.0","false",""
"null","sound/msl/door_bell.wav","null","audio-keyboard-response","386","224007","0.0-6.0-0.0","",""
"null","sound/msl/organ.wav","null","audio-keyboard-response","387","224509","0.0-6.0-1.0","",""
"null","sound/msl/door.wav","null","audio-keyboard-response","388","225008","0.0-6.0-2.0","",""
"null","sound/asl/silence.wav","null","audio-keyboard-response","389","225509","0.0-6.0-3.0","",""
"null","sound/msl/dog.wav","null","audio-keyboard-response","390","226018","0.0-6.0-4.0","",""
"null","sound/msl/bird.wav","null","audio-keyboard-response","391","226527","0.0-6.0-5.0","",""
"null","sound/msl/duck.wav","null","audio-keyboard-response","392","227028","0.0-6.0-6.0","",""
"2128","sound/asl/silence.wav","49","audio-keyboard-response","393","229159","0.0-6.0-7.0","false",""
"null","sound/msl/dog.wav","null","audio-keyboard-response","394","229659","0.0-7.0-0.0","",""
"null","sound/msl/Water.wav","null","audio-keyboard-response","395","230168","0.0-7.0-1.0","",""
"null","sound/msl/slide_whistle.wav","null","audio-keyboard-response","396","230668","0.0-7.0-2.0","",""
"null","sound/asl/silence.wav","null","audio-keyboard-response","397","231170","0.0-7.0-3.0","",""
"null","sound/msl/cow.wav","null","audio-keyboard-response","398","231668","0.0-7.0-4.0","",""
"null","sound/msl/Water.wav","null","audio-keyboard-response","399","232178","0.0-7.0-5.0","",""
"null","sound/msl/frog.wav","null","audio-keyboard-response","400","232688","0.0-7.0-6.0","",""
"1000","sound/asl/silence.wav","50","audio-keyboard-response","401","233690","0.0-7.0-7.0","true",""
"null","sound/msl/door_bell.wav","null","audio-keyboard-response","402","234188","0.0-8.0-0.0","",""
"null","sound/msl/ding.wav","null","audio-keyboard-response","403","234699","0.0-8.0-1.0","",""
"null","sound/msl/slide_whistle.wav","null","audio-keyboard-response","404","235198","0.0-8.0-2.0","",""
"null","sound/asl/silence.wav","null","audio-keyboard-response","405","235699","0.0-8.0-3.0","",""
"null","sound/msl/door_bell.wav","null","audio-keyboard-response","406","236208","0.0-8.0-4.0","",""
"null","sound/msl/organ.wav","null","audio-keyboard-response","407","236708","0.0-8.0-5.0","",""
"null","sound/msl/door.wav","null","audio-keyboard-response","408","237209","0.0-8.0-6.0","",""
"901","sound/asl/silence.wav","50","audio-keyboard-response","409","238118","0.0-8.0-7.0","false",""
"null","sound/msl/cat.wav","null","audio-keyboard-response","410","238618","0.0-9.0-0.0","",""
"null","sound/msl/boing.wav","null","audio-keyboard-response","411","239118","0.0-9.0-1.0","",""
"null","sound/msl/door.wav","null","audio-keyboard-response","412","239618","0.0-9.0-2.0","",""
"null","sound/asl/silence.wav","null","audio-keyboard-response","413","240120","0.0-9.0-3.0","",""
"null","sound/msl/goat.wav","null","audio-keyboard-response","414","240658","0.0-9.0-4.0","",""
"null","sound/msl/boing.wav","null","audio-keyboard-response","415","241159","0.0-9.0-5.0","",""
"null","sound/msl/duck.wav","null","audio-keyboard-response","416","241658","0.0-9.0-6.0","",""
"659","sound/asl/silence.wav","50","audio-keyboard-response","417","242327","0.0-9.0-7.0","false",""
"null","sound/msl/dog.wav","null","audio-keyboard-response","418","242828","0.0-10.0-0.0","",""
"null","sound/msl/Water.wav","null","audio-keyboard-response","419","243338","0.0-10.0-1.0","",""
"null","sound/msl/slide_whistle.wav","null","audio-keyboard-response","420","243838","0.0-10.0-2.0","",""
"null","sound/asl/silence.wav","null","audio-keyboard-response","421","244339","0.0-10.0-3.0","",""
"null","sound/msl/cat.wav","null","audio-keyboard-response","422","244838","0.0-10.0-4.0","",""
"null","sound/msl/boing.wav","null","audio-keyboard-response","423","245338","0.0-10.0-5.0","",""
"null","sound/msl/door.wav","null","audio-keyboard-response","424","245839","0.0-10.0-6.0","",""
"2832","sound/asl/silence.wav","50","audio-keyboard-response","425","248669","0.0-10.0-7.0","true",""
"null","sound/msl/dog.wav","null","audio-keyboard-response","426","249179","0.0-11.0-0.0","",""
"null","sound/msl/bird.wav","null","audio-keyboard-response","427","249688","0.0-11.0-1.0","",""
"null","sound/msl/duck.wav","null","audio-keyboard-response","428","250189","0.0-11.0-2.0","",""
"null","sound/asl/silence.wav","null","audio-keyboard-response","429","250690","0.0-11.0-3.0","",""
"null","sound/msl/cow.wav","null","audio-keyboard-response","430","251189","0.0-11.0-4.0","",""
"null","sound/msl/ding.wav","null","audio-keyboard-response","431","251698","0.0-11.0-5.0","",""
"null","sound/msl/clock.wav","null","audio-keyboard-response","432","252248","0.0-11.0-6.0","",""
"400","sound/asl/silence.wav","50","audio-keyboard-response","433","252654","0.0-11.0-7.0","false",""
"null","sound/msl/goat.wav","null","audio-keyboard-response","434","253188","0.0-12.0-0.0","",""
"null","sound/msl/organ.wav","null","audio-keyboard-response","435","253689","0.0-12.0-1.0","",""
"null","sound/msl/clock.wav","null","audio-keyboard-response","436","254238","0.0-12.0-2.0","",""
"null","sound/asl/silence.wav","null","audio-keyboard-response","437","254739","0.0-12.0-3.0","",""
"null","sound/msl/goat.wav","null","audio-keyboard-response","438","255278","0.0-12.0-4.0","",""
"null","sound/msl/boing.wav","null","audio-keyboard-response","439","255778","0.0-12.0-5.0","",""
"null","sound/msl/duck.wav","null","audio-keyboard-response","440","256288","0.0-12.0-6.0","",""
"901","sound/asl/silence.wav","49","audio-keyboard-response","441","257194","0.0-12.0-7.0","true",""
"null","sound/msl/cat.wav","null","audio-keyboard-response","442","257688","0.0-13.0-0.0","",""
"null","sound/msl/boing.wav","null","audio-keyboard-response","443","258188","0.0-13.0-1.0","",""
"null","sound/msl/door.wav","null","audio-keyboard-response","444","258688","0.0-13.0-2.0","",""
"null","sound/asl/silence.wav","null","audio-keyboard-response","445","259190","0.0-13.0-3.0","",""
"null","sound/msl/door_bell.wav","null","audio-keyboard-response","446","259698","0.0-13.0-4.0","",""
"null","sound/msl/organ.wav","null","audio-keyboard-response","447","260198","0.0-13.0-5.0","",""
"null","sound/msl/door.wav","null","audio-keyboard-response","448","260699","0.0-13.0-6.0","",""
"480","sound/asl/silence.wav","49","audio-keyboard-response","449","261181","0.0-13.0-7.0","true",""
"null","sound/msl/goat.wav","null","audio-keyboard-response","450","261718","0.0-14.0-0.0","",""
"null","sound/msl/organ.wav","null","audio-keyboard-response","451","262218","0.0-14.0-1.0","",""
"null","sound/msl/clock.wav","null","audio-keyboard-response","452","262768","0.0-14.0-2.0","",""
"null","sound/asl/silence.wav","null","audio-keyboard-response","453","263270","0.0-14.0-3.0","",""
"null","sound/msl/door_bell.wav","null","audio-keyboard-response","454","263778","0.0-14.0-4.0","",""
"null","sound/msl/organ.wav","null","audio-keyboard-response","455","264278","0.0-14.0-5.0","",""
"null","sound/msl/door.wav","null","audio-keyboard-response","456","264779","0.0-14.0-6.0","",""
"200","sound/asl/silence.wav","49","audio-keyboard-response","457","264980","0.0-14.0-7.0","true",""
"null","sound/msl/cow.wav","null","audio-keyboard-response","458","265488","0.0-15.0-0.0","",""
"null","sound/msl/ding.wav","null","audio-keyboard-response","459","265988","0.0-15.0-1.0","",""
"null","sound/msl/clock.wav","null","audio-keyboard-response","460","266538","0.0-15.0-2.0","",""
"null","sound/asl/silence.wav","null","audio-keyboard-response","461","267040","0.0-15.0-3.0","",""
"null","sound/msl/door_bell.wav","null","audio-keyboard-response","462","267538","0.0-15.0-4.0","",""
"null","sound/msl/ding.wav","null","audio-keyboard-response","463","268048","0.0-15.0-5.0","",""
"null","sound/msl/slide_whistle.wav","null","audio-keyboard-response","464","268548","0.0-15.0-6.0","",""
"1469","sound/asl/silence.wav","49","audio-keyboard-response","465","270020","0.0-15.0-7.0","false",""
"null","sound/msl/goat.wav","null","audio-keyboard-response","466","270558","0.0-16.0-0.0","",""
"null","sound/msl/boing.wav","null","audio-keyboard-response","467","271057","0.0-16.0-1.0","",""
"null","sound/msl/duck.wav","null","audio-keyboard-response","468","271568","0.0-16.0-2.0","",""
"null","sound/asl/silence.wav","null","audio-keyboard-response","469","272070","0.0-16.0-3.0","",""
"null","sound/msl/dog.wav","null","audio-keyboard-response","470","272577","0.0-16.0-4.0","",""
"null","sound/msl/bird.wav","null","audio-keyboard-response","471","273089","0.0-16.0-5.0","",""
"null","sound/msl/duck.wav","null","audio-keyboard-response","472","273588","0.0-16.0-6.0","",""
"1640","sound/asl/silence.wav","49","audio-keyboard-response","473","275235","0.0-16.0-7.0","false",""
"null","sound/msl/cat.wav","null","audio-keyboard-response","474","275728","0.0-17.0-0.0","",""
"null","sound/msl/bird.wav","null","audio-keyboard-response","475","276228","0.0-17.0-1.0","",""
"null","sound/msl/frog.wav","null","audio-keyboard-response","476","276739","0.0-17.0-2.0","",""
"null","sound/asl/silence.wav","null","audio-keyboard-response","477","277240","0.0-17.0-3.0","",""
"null","sound/msl/door_bell.wav","null","audio-keyboard-response","478","277738","0.0-17.0-4.0","",""
"null","sound/msl/ding.wav","null","audio-keyboard-response","479","278248","0.0-17.0-5.0","",""
"null","sound/msl/slide_whistle.wav","null","audio-keyboard-response","480","278748","0.0-17.0-6.0","",""
"429","sound/asl/silence.wav","49","audio-keyboard-response","481","279181","0.0-17.0-7.0","false",""
"null","sound/msl/cow.wav","null","audio-keyboard-response","482","279688","0.0-18.0-0.0","",""
"null","sound/msl/Water.wav","null","audio-keyboard-response","483","280197","0.0-18.0-1.0","",""
"null","sound/msl/frog.wav","null","audio-keyboard-response","484","280698","0.0-18.0-2.0","",""
"null","sound/asl/silence.wav","null","audio-keyboard-response","485","281198","0.0-18.0-3.0","",""
"null","sound/msl/goat.wav","null","audio-keyboard-response","486","281737","0.0-18.0-4.0","",""
"null","sound/msl/boing.wav","null","audio-keyboard-response","487","282238","0.0-18.0-5.0","",""
"null","sound/msl/duck.wav","null","audio-keyboard-response","488","282738","0.0-18.0-6.0","",""
"299","sound/asl/silence.wav","49","audio-keyboard-response","489","283040","0.0-18.0-7.0","true",""
"null","sound/msl/dog.wav","null","audio-keyboard-response","490","283538","0.0-19.0-0.0","",""
"null","sound/msl/bird.wav","null","audio-keyboard-response","491","284049","0.0-19.0-1.0","",""
"null","sound/msl/duck.wav","null","audio-keyboard-response","492","284548","0.0-19.0-2.0","",""
"null","sound/asl/silence.wav","null","audio-keyboard-response","493","285049","0.0-19.0-3.0","",""
"null","sound/msl/cat.wav","null","audio-keyboard-response","494","285548","0.0-19.0-4.0","",""
"null","sound/msl/bird.wav","null","audio-keyboard-response","495","286057","0.0-19.0-5.0","",""
"null","sound/msl/frog.wav","null","audio-keyboard-response","496","286568","0.0-19.0-6.0","",""
"789","sound/asl/silence.wav","50","audio-keyboard-response","497","287365","0.0-19.0-7.0","false",""
"null","sound/msl/dog.wav","null","audio-keyboard-response","498","287858","0.0-20.0-0.0","",""
"null","sound/msl/Water.wav","null","audio-keyboard-response","499","288368","0.0-20.0-1.0","",""
"null","sound/msl/slide_whistle.wav","null","audio-keyboard-response","500","288868","0.0-20.0-2.0","",""
"null","sound/asl/silence.wav","null","audio-keyboard-response","501","289368","0.0-20.0-3.0","",""
"null","sound/msl/door_bell.wav","null","audio-keyboard-response","502","289868","0.0-20.0-4.0","",""
"null","sound/msl/ding.wav","null","audio-keyboard-response","503","290378","0.0-20.0-5.0","",""
"null","sound/msl/slide_whistle.wav","null","audio-keyboard-response","504","290877","0.0-20.0-6.0","",""
"1552","sound/asl/silence.wav","49","audio-keyboard-response","505","292429","0.0-20.0-7.0","false",""
"null","sound/msl/cow.wav","null","audio-keyboard-response","506","292938","0.0-21.0-0.0","",""
"null","sound/msl/ding.wav","null","audio-keyboard-response","507","293448","0.0-21.0-1.0","",""
"null","sound/msl/clock.wav","null","audio-keyboard-response","508","293999","0.0-21.0-2.0","",""
"null","sound/asl/silence.wav","null","audio-keyboard-response","509","294500","0.0-21.0-3.0","",""
"null","sound/msl/cat.wav","null","audio-keyboard-response","510","294998","0.0-21.0-4.0","",""
"null","sound/msl/boing.wav","null","audio-keyboard-response","511","295498","0.0-21.0-5.0","",""
"null","sound/msl/door.wav","null","audio-keyboard-response","512","295998","0.0-21.0-6.0","",""
"1440","sound/asl/silence.wav","49","audio-keyboard-response","513","297445","0.0-21.0-7.0","false",""
"null","sound/msl/dog.wav","null","audio-keyboard-response","514","297938","0.0-22.0-0.0","",""
"null","sound/msl/bird.wav","null","audio-keyboard-response","515","298448","0.0-22.0-1.0","",""
"null","sound/msl/duck.wav","null","audio-keyboard-response","516","298948","0.0-22.0-2.0","",""
"null","sound/asl/silence.wav","null","audio-keyboard-response","517","299449","0.0-22.0-3.0","",""
"null","sound/msl/dog.wav","null","audio-keyboard-response","518","299948","0.0-22.0-4.0","",""
"null","sound/msl/Water.wav","null","audio-keyboard-response","519","300458","0.0-22.0-5.0","",""
"null","sound/msl/slide_whistle.wav","null","audio-keyboard-response","520","300958","0.0-22.0-6.0","",""
"1000","sound/asl/silence.wav","50","audio-keyboard-response","521","301963","0.0-22.0-7.0","false",""
"null","sound/msl/door_bell.wav","null","audio-keyboard-response","522","302457","0.0-23.0-0.0","",""
"null","sound/msl/ding.wav","null","audio-keyboard-response","523","302968","0.0-23.0-1.0","",""
"null","sound/msl/slide_whistle.wav","null","audio-keyboard-response","524","303468","0.0-23.0-2.0","",""
"null","sound/asl/silence.wav","null","audio-keyboard-response","525","303969","0.0-23.0-3.0","",""
"null","sound/msl/goat.wav","null","audio-keyboard-response","526","304508","0.0-23.0-4.0","",""
"null","sound/msl/boing.wav","null","audio-keyboard-response","527","305008","0.0-23.0-5.0","",""
"null","sound/msl/duck.wav","null","audio-keyboard-response","528","305507","0.0-23.0-6.0","",""
"2429","sound/asl/silence.wav","50","audio-keyboard-response","529","307939","0.0-23.0-7.0","false",""
"null","sound/msl/door_bell.wav","null","audio-keyboard-response","530","308448","0.0-24.0-0.0","",""
"null","sound/msl/organ.wav","null","audio-keyboard-response","531","308948","0.0-24.0-1.0","",""
"null","sound/msl/door.wav","null","audio-keyboard-response","532","309448","0.0-24.0-2.0","",""
"null","sound/asl/silence.wav","null","audio-keyboard-response","533","309950","0.0-24.0-3.0","",""
"null","sound/msl/cow.wav","null","audio-keyboard-response","534","310458","0.0-24.0-4.0","",""
"null","sound/msl/Water.wav","null","audio-keyboard-response","535","310968","0.0-24.0-5.0","",""
"null","sound/msl/frog.wav","null","audio-keyboard-response","536","311467","0.0-24.0-6.0","",""
"339","sound/asl/silence.wav","50","audio-keyboard-response","537","311815","0.0-24.0-7.0","true",""
"null","sound/msl/cow.wav","null","audio-keyboard-response","538","312307","0.0-25.0-0.0","",""
"null","sound/msl/Water.wav","null","audio-keyboard-response","539","312817","0.0-25.0-1.0","",""
"null","sound/msl/frog.wav","null","audio-keyboard-response","540","313327","0.0-25.0-2.0","",""
"null","sound/asl/silence.wav","null","audio-keyboard-response","541","313828","0.0-25.0-3.0","",""
"null","sound/msl/cat.wav","null","audio-keyboard-response","542","314328","0.0-25.0-4.0","",""
"null","sound/msl/bird.wav","null","audio-keyboard-response","543","314828","0.0-25.0-5.0","",""
"null","sound/msl/frog.wav","null","audio-keyboard-response","544","315338","0.0-25.0-6.0","",""
"269","sound/asl/silence.wav","49","audio-keyboard-response","545","315614","0.0-25.0-7.0","true",""
"null","sound/msl/cow.wav","null","audio-keyboard-response","546","316108","0.0-26.0-0.0","",""
"null","sound/msl/ding.wav","null","audio-keyboard-response","547","316619","0.0-26.0-1.0","",""
"null","sound/msl/clock.wav","null","audio-keyboard-response","548","317168","0.0-26.0-2.0","",""
"null","sound/asl/silence.wav","null","audio-keyboard-response","549","317670","0.0-26.0-3.0","",""
"null","sound/msl/goat.wav","null","audio-keyboard-response","550","318207","0.0-26.0-4.0","",""
"null","sound/msl/organ.wav","null","audio-keyboard-response","551","318708","0.0-26.0-5.0","",""
"null","sound/msl/clock.wav","null","audio-keyboard-response","552","319257","0.0-26.0-6.0","",""
"600","sound/asl/silence.wav","49","audio-keyboard-response","553","319859","0.0-26.0-7.0","false",""
"null","sound/msl/cat.wav","null","audio-keyboard-response","554","320358","0.0-27.0-0.0","",""
"null","sound/msl/bird.wav","null","audio-keyboard-response","555","320857","0.0-27.0-1.0","",""
"null","sound/msl/frog.wav","null","audio-keyboard-response","556","321368","0.0-27.0-2.0","",""
"null","sound/asl/silence.wav","null","audio-keyboard-response","557","321869","0.0-27.0-3.0","",""
"null","sound/msl/cat.wav","null","audio-keyboard-response","558","322369","0.0-27.0-4.0","",""
"null","sound/msl/boing.wav","null","audio-keyboard-response","559","322867","0.0-27.0-5.0","",""
"null","sound/msl/door.wav","null","audio-keyboard-response","560","323368","0.0-27.0-6.0","",""
"1280","sound/asl/silence.wav","50","audio-keyboard-response","561","324649","0.0-27.0-7.0","true",""
"3255","","","instructions","562","327905","0.0-28.0","","[{""page_index"":0,""viewing_time"":3255}]"
