"rt","stimulus","key_press","trial_type","trial_index","time_elapsed","internal_node_id","correct","view_history"
"6516","alien.jpg","49","image-keyboard-response","0","6519","0.0-0.0","",""
"null","sound/msl/goat.wav","null","audio-keyboard-response","1","7057","0.0-1.0-0.0","",""
"null","sound/msl/frog.wav","null","audio-keyboard-response","2","7567","0.0-1.0-1.0","",""
"null","sound/msl/ding.wav","null","audio-keyboard-response","3","8076","0.0-1.0-2.0","",""
"null","sound/msl/bird.wav","null","audio-keyboard-response","4","8588","0.0-1.0-3.0","",""
"null","sound/msl/boing.wav","null","audio-keyboard-response","5","9086","0.0-1.0-4.0","",""
"null","sound/msl/clock.wav","null","audio-keyboard-response","6","9636","0.0-1.0-5.0","",""
"null","sound/msl/slide_whistle.wav","null","audio-keyboard-response","7","10135","0.0-1.0-6.0","",""
"null","sound/msl/duck.wav","null","audio-keyboard-response","8","10647","0.0-1.0-7.0","",""
"null","sound/msl/cow.wav","null","audio-keyboard-response","9","11156","0.0-1.0-8.0","",""
"null","sound/msl/dog.wav","null","audio-keyboard-response","10","11656","0.0-1.0-9.0","",""
"null","sound/msl/door_bell.wav","null","audio-keyboard-response","11","12166","0.0-1.0-10.0","",""
"null","sound/msl/cat.wav","null","audio-keyboard-response","12","12666","0.0-1.0-11.0","",""
"null","sound/msl/bird.wav","null","audio-keyboard-response","13","13176","0.0-1.0-12.0","",""
"null","sound/msl/boing.wav","null","audio-keyboard-response","14","13677","0.0-1.0-13.0","",""
"null","sound/msl/clock.wav","null","audio-keyboard-response","15","14226","0.0-1.0-14.0","",""
"null","sound/msl/goat.wav","null","audio-keyboard-response","16","14756","0.0-1.0-15.0","",""
"null","sound/msl/frog.wav","null","audio-keyboard-response","17","15266","0.0-1.0-16.0","",""
"null","sound/msl/ding.wav","null","audio-keyboard-response","18","15766","0.0-1.0-17.0","",""
"null","sound/msl/Water.wav","null","audio-keyboard-response","19","16276","0.0-1.0-18.0","",""
"null","sound/msl/door.wav","null","audio-keyboard-response","20","16777","0.0-1.0-19.0","",""
"null","sound/msl/organ.wav","null","audio-keyboard-response","21","17277","0.0-1.0-20.0","",""
"null","sound/msl/dog.wav","null","audio-keyboard-response","22","17787","0.0-1.0-21.0","",""
"null","sound/msl/door_bell.wav","null","audio-keyboard-response","23","18297","0.0-1.0-22.0","",""
"null","sound/msl/cat.wav","null","audio-keyboard-response","24","18797","0.0-1.0-23.0","",""
"null","sound/msl/slide_whistle.wav","null","audio-keyboard-response","25","19297","0.0-1.0-24.0","",""
"null","sound/msl/duck.wav","null","audio-keyboard-response","26","19806","0.0-1.0-25.0","",""
"null","sound/msl/cow.wav","null","audio-keyboard-response","27","20317","0.0-1.0-26.0","",""
"null","sound/msl/goat.wav","null","audio-keyboard-response","28","20846","0.0-1.0-27.0","",""
"null","sound/msl/frog.wav","null","audio-keyboard-response","29","21356","0.0-1.0-28.0","",""
"null","sound/msl/ding.wav","null","audio-keyboard-response","30","21867","0.0-1.0-29.0","",""
"null","sound/msl/bird.wav","null","audio-keyboard-response","31","22366","0.0-1.0-30.0","",""
"null","sound/msl/boing.wav","null","audio-keyboard-response","32","22866","0.0-1.0-31.0","",""
"null","sound/msl/clock.wav","null","audio-keyboard-response","33","23417","0.0-1.0-32.0","",""
"null","sound/msl/Water.wav","null","audio-keyboard-response","34","23927","0.0-1.0-33.0","",""
"null","sound/msl/door.wav","null","audio-keyboard-response","35","24427","0.0-1.0-34.0","",""
"null","sound/msl/organ.wav","null","audio-keyboard-response","36","24926","0.0-1.0-35.0","",""
"null","sound/msl/slide_whistle.wav","null","audio-keyboard-response","37","25427","0.0-1.0-36.0","",""
"null","sound/msl/duck.wav","null","audio-keyboard-response","38","25936","0.0-1.0-37.0","",""
"null","sound/msl/cow.wav","null","audio-keyboard-response","39","26447","0.0-1.0-38.0","",""
"null","sound/msl/dog.wav","null","audio-keyboard-response","40","26947","0.0-1.0-39.0","",""
"null","sound/msl/door_bell.wav","null","audio-keyboard-response","41","27456","0.0-1.0-40.0","",""
"null","sound/msl/cat.wav","null","audio-keyboard-response","42","27956","0.0-1.0-41.0","",""
"null","sound/msl/Water.wav","null","audio-keyboard-response","43","28466","0.0-1.0-42.0","",""
"null","sound/msl/door.wav","null","audio-keyboard-response","44","28967","0.0-1.0-43.0","",""
"null","sound/msl/organ.wav","null","audio-keyboard-response","45","29467","0.0-1.0-44.0","",""
"null","sound/msl/bird.wav","null","audio-keyboard-response","46","29977","0.0-1.0-45.0","",""
"null","sound/msl/boing.wav","null","audio-keyboard-response","47","30476","0.0-1.0-46.0","",""
"null","sound/msl/clock.wav","null","audio-keyboard-response","48","31026","0.0-1.0-47.0","",""
"null","sound/msl/slide_whistle.wav","null","audio-keyboard-response","49","31526","0.0-1.0-48.0","",""
"null","sound/msl/duck.wav","null","audio-keyboard-response","50","32026","0.0-1.0-49.0","",""
"null","sound/msl/cow.wav","null","audio-keyboard-response","51","32537","0.0-1.0-50.0","",""
"null","sound/msl/goat.wav","null","audio-keyboard-response","52","33066","0.0-1.0-51.0","",""
"null","sound/msl/frog.wav","null","audio-keyboard-response","53","33576","0.0-1.0-52.0","",""
"null","sound/msl/ding.wav","null","audio-keyboard-response","54","34086","0.0-1.0-53.0","",""
"null","sound/msl/bird.wav","null","audio-keyboard-response","55","34587","0.0-1.0-54.0","",""
"null","sound/msl/boing.wav","null","audio-keyboard-response","56","35087","0.0-1.0-55.0","",""
"null","sound/msl/clock.wav","null","audio-keyboard-response","57","35636","0.0-1.0-56.0","",""
"null","sound/msl/slide_whistle.wav","null","audio-keyboard-response","58","36136","0.0-1.0-57.0","",""
"null","sound/msl/duck.wav","null","audio-keyboard-response","59","36646","0.0-1.0-58.0","",""
"null","sound/msl/cow.wav","null","audio-keyboard-response","60","37146","0.0-1.0-59.0","",""
"null","sound/msl/dog.wav","null","audio-keyboard-response","61","37657","0.0-1.0-60.0","",""
"null","sound/msl/door_bell.wav","null","audio-keyboard-response","62","38157","0.0-1.0-61.0","",""
"null","sound/msl/cat.wav","null","audio-keyboard-response","63","38656","0.0-1.0-62.0","",""
"null","sound/msl/Water.wav","null","audio-keyboard-response","64","39166","0.0-1.0-63.0","",""
"null","sound/msl/door.wav","null","audio-keyboard-response","65","39666","0.0-1.0-64.0","",""
"null","sound/msl/organ.wav","null","audio-keyboard-response","66","40166","0.0-1.0-65.0","",""
"null","sound/msl/bird.wav","null","audio-keyboard-response","67","40676","0.0-1.0-66.0","",""
"null","sound/msl/boing.wav","null","audio-keyboard-response","68","41176","0.0-1.0-67.0","",""
"null","sound/msl/clock.wav","null","audio-keyboard-response","69","41727","0.0-1.0-68.0","",""
"null","sound/msl/goat.wav","null","audio-keyboard-response","70","42267","0.0-1.0-69.0","",""
"null","sound/msl/frog.wav","null","audio-keyboard-response","71","42776","0.0-1.0-70.0","",""
"null","sound/msl/ding.wav","null","audio-keyboard-response","72","43277","0.0-1.0-71.0","",""
"null","sound/msl/slide_whistle.wav","null","audio-keyboard-response","73","43776","0.0-1.0-72.0","",""
"null","sound/msl/duck.wav","null","audio-keyboard-response","74","44287","0.0-1.0-73.0","",""
"null","sound/msl/cow.wav","null","audio-keyboard-response","75","44796","0.0-1.0-74.0","",""
"null","sound/msl/dog.wav","null","audio-keyboard-response","76","45297","0.0-1.0-75.0","",""
"null","sound/msl/door_bell.wav","null","audio-keyboard-response","77","45806","0.0-1.0-76.0","",""
"null","sound/msl/cat.wav","null","audio-keyboard-response","78","46307","0.0-1.0-77.0","",""
"null","sound/msl/slide_whistle.wav","null","audio-keyboard-response","79","46807","0.0-1.0-78.0","",""
"null","sound/msl/duck.wav","null","audio-keyboard-response","80","47316","0.0-1.0-79.0","",""
"null","sound/msl/cow.wav","null","audio-keyboard-response","81","47827","0.0-1.0-80.0","",""
"null","sound/msl/Water.wav","null","audio-keyboard-response","82","48337","0.0-1.0-81.0","",""
"null","sound/msl/door.wav","null","audio-keyboard-response","83","48836","0.0-1.0-82.0","",""
"null","sound/msl/organ.wav","null","audio-keyboard-response","84","49336","0.0-1.0-83.0","",""
"null","sound/msl/goat.wav","null","audio-keyboard-response","85","49876","0.0-1.0-84.0","",""
"null","sound/msl/frog.wav","null","audio-keyboard-response","86","50386","0.0-1.0-85.0","",""
"null","sound/msl/ding.wav","null","audio-keyboard-response","87","50886","0.0-1.0-86.0","",""
"null","sound/msl/bird.wav","null","audio-keyboard-response","88","51397","0.0-1.0-87.0","",""
"null","sound/msl/boing.wav","null","audio-keyboard-response","89","51896","0.0-1.0-88.0","",""
"null","sound/msl/clock.wav","null","audio-keyboard-response","90","52447","0.0-1.0-89.0","",""
"null","sound/msl/Water.wav","null","audio-keyboard-response","91","52956","0.0-1.0-90.0","",""
"null","sound/msl/door.wav","null","audio-keyboard-response","92","53457","0.0-1.0-91.0","",""
"null","sound/msl/organ.wav","null","audio-keyboard-response","93","53956","0.0-1.0-92.0","",""
"null","sound/msl/dog.wav","null","audio-keyboard-response","94","54457","0.0-1.0-93.0","",""
"null","sound/msl/door_bell.wav","null","audio-keyboard-response","95","54966","0.0-1.0-94.0","",""
"null","sound/msl/cat.wav","null","audio-keyboard-response","96","55466","0.0-1.0-95.0","",""
"null","sound/msl/slide_whistle.wav","null","audio-keyboard-response","97","55966","0.0-1.0-96.0","",""
"null","sound/msl/duck.wav","null","audio-keyboard-response","98","56476","0.0-1.0-97.0","",""
"null","sound/msl/cow.wav","null","audio-keyboard-response","99","56986","0.0-1.0-98.0","",""
"null","sound/msl/bird.wav","null","audio-keyboard-response","100","57486","0.0-1.0-99.0","",""
"null","sound/msl/boing.wav","null","audio-keyboard-response","101","57987","0.0-1.0-100.0","",""
"null","sound/msl/clock.wav","null","audio-keyboard-response","102","58537","0.0-1.0-101.0","",""
"null","sound/msl/Water.wav","null","audio-keyboard-response","103","59047","0.0-1.0-102.0","",""
"null","sound/msl/door.wav","null","audio-keyboard-response","104","59546","0.0-1.0-103.0","",""
"null","sound/msl/organ.wav","null","audio-keyboard-response","105","60046","0.0-1.0-104.0","",""
"null","sound/msl/goat.wav","null","audio-keyboard-response","106","60587","0.0-1.0-105.0","",""
"null","sound/msl/frog.wav","null","audio-keyboard-response","107","61096","0.0-1.0-106.0","",""
"null","sound/msl/ding.wav","null","audio-keyboard-response","108","61597","0.0-1.0-107.0","",""
"null","sound/msl/bird.wav","null","audio-keyboard-response","109","62106","0.0-1.0-108.0","",""
"null","sound/msl/boing.wav","null","audio-keyboard-response","110","62606","0.0-1.0-109.0","",""
"null","sound/msl/clock.wav","null","audio-keyboard-response","111","63157","0.0-1.0-110.0","",""
"null","sound/msl/dog.wav","null","audio-keyboard-response","112","63666","0.0-1.0-111.0","",""
"null","sound/msl/door_bell.wav","null","audio-keyboard-response","113","64176","0.0-1.0-112.0","",""
"null","sound/msl/cat.wav","null","audio-keyboard-response","114","64676","0.0-1.0-113.0","",""
"null","sound/msl/Water.wav","null","audio-keyboard-response","115","65186","0.0-1.0-114.0","",""
"null","sound/msl/door.wav","null","audio-keyboard-response","116","65686","0.0-1.0-115.0","",""
"null","sound/msl/organ.wav","null","audio-keyboard-response","117","66186","0.0-1.0-116.0","",""
"null","sound/msl/slide_whistle.wav","null","audio-keyboard-response","118","66686","0.0-1.0-117.0","",""
"null","sound/msl/duck.wav","null","audio-keyboard-response","119","67197","0.0-1.0-118.0","",""
"null","sound/msl/cow.wav","null","audio-keyboard-response","120","67707","0.0-1.0-119.0","",""
"null","sound/msl/goat.wav","null","audio-keyboard-response","121","68247","0.0-1.0-120.0","",""
"null","sound/msl/frog.wav","null","audio-keyboard-response","122","68756","0.0-1.0-121.0","",""
"null","sound/msl/ding.wav","null","audio-keyboard-response","123","69257","0.0-1.0-122.0","",""
"null","sound/msl/bird.wav","null","audio-keyboard-response","124","69767","0.0-1.0-123.0","",""
"null","sound/msl/boing.wav","null","audio-keyboard-response","125","70267","0.0-1.0-124.0","",""
"null","sound/msl/clock.wav","null","audio-keyboard-response","126","70816","0.0-1.0-125.0","",""
"null","sound/msl/Water.wav","null","audio-keyboard-response","127","71327","0.0-1.0-126.0","",""
"null","sound/msl/door.wav","null","audio-keyboard-response","128","71826","0.0-1.0-127.0","",""
"null","sound/msl/organ.wav","null","audio-keyboard-response","129","72326","0.0-1.0-128.0","",""
"null","sound/msl/dog.wav","null","audio-keyboard-response","130","72827","0.0-1.0-129.0","",""
"null","sound/msl/door_bell.wav","null","audio-keyboard-response","131","73336","0.0-1.0-130.0","",""
"null","sound/msl/cat.wav","null","audio-keyboard-response","132","73836","0.0-1.0-131.0","",""
"null","sound/msl/bird.wav","null","audio-keyboard-response","133","74346","0.0-1.0-132.0","",""
"null","sound/msl/boing.wav","null","audio-keyboard-response","134","74847","0.0-1.0-133.0","",""
"null","sound/msl/clock.wav","null","audio-keyboard-response","135","75397","0.0-1.0-134.0","",""
"null","sound/msl/slide_whistle.wav","null","audio-keyboard-response","136","75896","0.0-1.0-135.0","",""
"null","sound/msl/duck.wav","null","audio-keyboard-response","137","76396","0.0-1.0-136.0","",""
"null","sound/msl/cow.wav","null","audio-keyboard-response","138","76906","0.0-1.0-137.0","",""
"null","sound/msl/dog.wav","null","audio-keyboard-response","139","77406","0.0-1.0-138.0","",""
"null","sound/msl/door_bell.wav","null","audio-keyboard-response","140","77917","0.0-1.0-139.0","",""
"null","sound/msl/cat.wav","null","audio-keyboard-response","141","78416","0.0-1.0-140.0","",""
"null","sound/msl/goat.wav","null","audio-keyboard-response","142","78956","0.0-1.0-141.0","",""
"null","sound/msl/frog.wav","null","audio-keyboard-response","143","79466","0.0-1.0-142.0","",""
"null","sound/msl/ding.wav","null","audio-keyboard-response","144","79966","0.0-1.0-143.0","",""
"null","sound/msl/Water.wav","null","audio-keyboard-response","145","80477","0.0-1.0-144.0","",""
"null","sound/msl/door.wav","null","audio-keyboard-response","146","80976","0.0-1.0-145.0","",""
"null","sound/msl/organ.wav","null","audio-keyboard-response","147","81477","0.0-1.0-146.0","",""
"null","sound/msl/slide_whistle.wav","null","audio-keyboard-response","148","81976","0.0-1.0-147.0","",""
"null","sound/msl/duck.wav","null","audio-keyboard-response","149","82486","0.0-1.0-148.0","",""
"null","sound/msl/cow.wav","null","audio-keyboard-response","150","82996","0.0-1.0-149.0","",""
"null","sound/msl/goat.wav","null","audio-keyboard-response","151","83536","0.0-1.0-150.0","",""
"null","sound/msl/frog.wav","null","audio-keyboard-response","152","84047","0.0-1.0-151.0","",""
"null","sound/msl/ding.wav","null","audio-keyboard-response","153","84547","0.0-1.0-152.0","",""
"null","sound/msl/bird.wav","null","audio-keyboard-response","154","85056","0.0-1.0-153.0","",""
"null","sound/msl/boing.wav","null","audio-keyboard-response","155","85557","0.0-1.0-154.0","",""
"null","sound/msl/clock.wav","null","audio-keyboard-response","156","86106","0.0-1.0-155.0","",""
"null","sound/msl/dog.wav","null","audio-keyboard-response","157","86617","0.0-1.0-156.0","",""
"null","sound/msl/door_bell.wav","null","audio-keyboard-response","158","87127","0.0-1.0-157.0","",""
"null","sound/msl/cat.wav","null","audio-keyboard-response","159","87626","0.0-1.0-158.0","",""
"null","sound/msl/Water.wav","null","audio-keyboard-response","160","88136","0.0-1.0-159.0","",""
"null","sound/msl/door.wav","null","audio-keyboard-response","161","88637","0.0-1.0-160.0","",""
"null","sound/msl/organ.wav","null","audio-keyboard-response","162","89137","0.0-1.0-161.0","",""
"null","sound/msl/bird.wav","null","audio-keyboard-response","163","89647","0.0-1.0-162.0","",""
"null","sound/msl/boing.wav","null","audio-keyboard-response","164","90146","0.0-1.0-163.0","",""
"null","sound/msl/clock.wav","null","audio-keyboard-response","165","90696","0.0-1.0-164.0","",""
"null","sound/msl/dog.wav","null","audio-keyboard-response","166","91196","0.0-1.0-165.0","",""
"null","sound/msl/door_bell.wav","null","audio-keyboard-response","167","91706","0.0-1.0-166.0","",""
"null","sound/msl/cat.wav","null","audio-keyboard-response","168","92206","0.0-1.0-167.0","",""
"null","sound/msl/goat.wav","null","audio-keyboard-response","169","92746","0.0-1.0-168.0","",""
"null","sound/msl/frog.wav","null","audio-keyboard-response","170","93256","0.0-1.0-169.0","",""
"null","sound/msl/ding.wav","null","audio-keyboard-response","171","93756","0.0-1.0-170.0","",""
"null","sound/msl/slide_whistle.wav","null","audio-keyboard-response","172","94257","0.0-1.0-171.0","",""
"null","sound/msl/duck.wav","null","audio-keyboard-response","173","94766","0.0-1.0-172.0","",""
"null","sound/msl/cow.wav","null","audio-keyboard-response","174","95276","0.0-1.0-173.0","",""
"null","sound/msl/Water.wav","null","audio-keyboard-response","175","95786","0.0-1.0-174.0","",""
"null","sound/msl/door.wav","null","audio-keyboard-response","176","96286","0.0-1.0-175.0","",""
"null","sound/msl/organ.wav","null","audio-keyboard-response","177","96787","0.0-1.0-176.0","",""
"null","sound/msl/bird.wav","null","audio-keyboard-response","178","97297","0.0-1.0-177.0","",""
"null","sound/msl/boing.wav","null","audio-keyboard-response","179","97797","0.0-1.0-178.0","",""
"null","sound/msl/clock.wav","null","audio-keyboard-response","180","98346","0.0-1.0-179.0","",""
"null","sound/msl/slide_whistle.wav","null","audio-keyboard-response","181","98846","0.0-1.0-180.0","",""
"null","sound/msl/duck.wav","null","audio-keyboard-response","182","99346","0.0-1.0-181.0","",""
"null","sound/msl/cow.wav","null","audio-keyboard-response","183","99856","0.0-1.0-182.0","",""
"null","sound/msl/dog.wav","null","audio-keyboard-response","184","100357","0.0-1.0-183.0","",""
"null","sound/msl/door_bell.wav","null","audio-keyboard-response","185","100866","0.0-1.0-184.0","",""
"null","sound/msl/cat.wav","null","audio-keyboard-response","186","101366","0.0-1.0-185.0","",""
"null","sound/msl/goat.wav","null","audio-keyboard-response","187","101906","0.0-1.0-186.0","",""
"null","sound/msl/frog.wav","null","audio-keyboard-response","188","102416","0.0-1.0-187.0","",""
"null","sound/msl/ding.wav","null","audio-keyboard-response","189","102916","0.0-1.0-188.0","",""
"null","sound/msl/Water.wav","null","audio-keyboard-response","190","103426","0.0-1.0-189.0","",""
"null","sound/msl/door.wav","null","audio-keyboard-response","191","103926","0.0-1.0-190.0","",""
"null","sound/msl/organ.wav","null","audio-keyboard-response","192","104427","0.0-1.0-191.0","",""
"null","sound/msl/bird.wav","null","audio-keyboard-response","193","104936","0.0-1.0-192.0","",""
"null","sound/msl/boing.wav","null","audio-keyboard-response","194","105436","0.0-1.0-193.0","",""
"null","sound/msl/clock.wav","null","audio-keyboard-response","195","105986","0.0-1.0-194.0","",""
"null","sound/msl/slide_whistle.wav","null","audio-keyboard-response","196","106486","0.0-1.0-195.0","",""
"null","sound/msl/duck.wav","null","audio-keyboard-response","197","106996","0.0-1.0-196.0","",""
"null","sound/msl/cow.wav","null","audio-keyboard-response","198","107496","0.0-1.0-197.0","",""
"null","sound/msl/goat.wav","null","audio-keyboard-response","199","108036","0.0-1.0-198.0","",""
"null","sound/msl/frog.wav","null","audio-keyboard-response","200","108546","0.0-1.0-199.0","",""
"null","sound/msl/ding.wav","null","audio-keyboard-response","201","109046","0.0-1.0-200.0","",""
"null","sound/msl/dog.wav","null","audio-keyboard-response","202","109556","0.0-1.0-201.0","",""
"null","sound/msl/door_bell.wav","null","audio-keyboard-response","203","110056","0.0-1.0-202.0","",""
"null","sound/msl/cat.wav","null","audio-keyboard-response","204","110557","0.0-1.0-203.0","",""
"null","sound/msl/Water.wav","null","audio-keyboard-response","205","111066","0.0-1.0-204.0","",""
"null","sound/msl/door.wav","null","audio-keyboard-response","206","111566","0.0-1.0-205.0","",""
"null","sound/msl/organ.wav","null","audio-keyboard-response","207","112066","0.0-1.0-206.0","",""
"null","sound/msl/bird.wav","null","audio-keyboard-response","208","112577","0.0-1.0-207.0","",""
"null","sound/msl/boing.wav","null","audio-keyboard-response","209","113076","0.0-1.0-208.0","",""
"null","sound/msl/clock.wav","null","audio-keyboard-response","210","113626","0.0-1.0-209.0","",""
"null","sound/msl/goat.wav","null","audio-keyboard-response","211","114157","0.0-1.0-210.0","",""
"null","sound/msl/frog.wav","null","audio-keyboard-response","212","114666","0.0-1.0-211.0","",""
"null","sound/msl/ding.wav","null","audio-keyboard-response","213","115177","0.0-1.0-212.0","",""
"null","sound/msl/Water.wav","null","audio-keyboard-response","214","115686","0.0-1.0-213.0","",""
"null","sound/msl/door.wav","null","audio-keyboard-response","215","116186","0.0-1.0-214.0","",""
"null","sound/msl/organ.wav","null","audio-keyboard-response","216","116686","0.0-1.0-215.0","",""
"null","sound/msl/slide_whistle.wav","null","audio-keyboard-response","217","117187","0.0-1.0-216.0","",""
"null","sound/msl/duck.wav","null","audio-keyboard-response","218","117696","0.0-1.0-217.0","",""
"null","sound/msl/cow.wav","null","audio-keyboard-response","219","118206","0.0-1.0-218.0","",""
"null","sound/msl/dog.wav","null","audio-keyboard-response","220","118706","0.0-1.0-219.0","",""
"null","sound/msl/door_bell.wav","null","audio-keyboard-response","221","119216","0.0-1.0-220.0","",""
"null","sound/msl/cat.wav","null","audio-keyboard-response","222","119716","0.0-1.0-221.0","",""
"null","sound/msl/bird.wav","null","audio-keyboard-response","223","120226","0.0-1.0-222.0","",""
"null","sound/msl/boing.wav","null","audio-keyboard-response","224","120726","0.0-1.0-223.0","",""
"null","sound/msl/clock.wav","null","audio-keyboard-response","225","121276","0.0-1.0-224.0","",""
"null","sound/msl/slide_whistle.wav","null","audio-keyboard-response","226","121776","0.0-1.0-225.0","",""
"null","sound/msl/duck.wav","null","audio-keyboard-response","227","122276","0.0-1.0-226.0","",""
"null","sound/msl/cow.wav","null","audio-keyboard-response","228","122786","0.0-1.0-227.0","",""
"null","sound/msl/Water.wav","null","audio-keyboard-response","229","123296","0.0-1.0-228.0","",""
"null","sound/msl/door.wav","null","audio-keyboard-response","230","123796","0.0-1.0-229.0","",""
"null","sound/msl/organ.wav","null","audio-keyboard-response","231","124297","0.0-1.0-230.0","",""
"null","sound/msl/slide_whistle.wav","null","audio-keyboard-response","232","124796","0.0-1.0-231.0","",""
"null","sound/msl/duck.wav","null","audio-keyboard-response","233","125307","0.0-1.0-232.0","",""
"null","sound/msl/cow.wav","null","audio-keyboard-response","234","125817","0.0-1.0-233.0","",""
"null","sound/msl/bird.wav","null","audio-keyboard-response","235","126316","0.0-1.0-234.0","",""
"null","sound/msl/boing.wav","null","audio-keyboard-response","236","126816","0.0-1.0-235.0","",""
"null","sound/msl/clock.wav","null","audio-keyboard-response","237","127366","0.0-1.0-236.0","",""
"null","sound/msl/dog.wav","null","audio-keyboard-response","238","127865","0.0-1.0-237.0","",""
"null","sound/msl/door_bell.wav","null","audio-keyboard-response","239","128376","0.0-1.0-238.0","",""
"null","sound/msl/cat.wav","null","audio-keyboard-response","240","128876","0.0-1.0-239.0","",""
"null","sound/msl/goat.wav","null","audio-keyboard-response","241","129416","0.0-1.0-240.0","",""
"null","sound/msl/frog.wav","null","audio-keyboard-response","242","129926","0.0-1.0-241.0","",""
"null","sound/msl/ding.wav","null","audio-keyboard-response","243","130426","0.0-1.0-242.0","",""
"null","sound/msl/Water.wav","null","audio-keyboard-response","244","130936","0.0-1.0-243.0","",""
"null","sound/msl/door.wav","null","audio-keyboard-response","245","131437","0.0-1.0-244.0","",""
"null","sound/msl/organ.wav","null","audio-keyboard-response","246","131936","0.0-1.0-245.0","",""
"null","sound/msl/bird.wav","null","audio-keyboard-response","247","132446","0.0-1.0-246.0","",""
"null","sound/msl/boing.wav","null","audio-keyboard-response","248","132947","0.0-1.0-247.0","",""
"null","sound/msl/clock.wav","null","audio-keyboard-response","249","133497","0.0-1.0-248.0","",""
"null","sound/msl/dog.wav","null","audio-keyboard-response","250","133996","0.0-1.0-249.0","",""
"null","sound/msl/door_bell.wav","null","audio-keyboard-response","251","134508","0.0-1.0-250.0","",""
"null","sound/msl/cat.wav","null","audio-keyboard-response","252","135006","0.0-1.0-251.0","",""
"null","sound/msl/goat.wav","null","audio-keyboard-response","253","135547","0.0-1.0-252.0","",""
"null","sound/msl/frog.wav","null","audio-keyboard-response","254","136056","0.0-1.0-253.0","",""
"null","sound/msl/ding.wav","null","audio-keyboard-response","255","136556","0.0-1.0-254.0","",""
"null","sound/msl/slide_whistle.wav","null","audio-keyboard-response","256","137056","0.0-1.0-255.0","",""
"null","sound/msl/duck.wav","null","audio-keyboard-response","257","137566","0.0-1.0-256.0","",""
"null","sound/msl/cow.wav","null","audio-keyboard-response","258","138077","0.0-1.0-257.0","",""
"null","sound/msl/Water.wav","null","audio-keyboard-response","259","138586","0.0-1.0-258.0","",""
"null","sound/msl/door.wav","null","audio-keyboard-response","260","139087","0.0-1.0-259.0","",""
"null","sound/msl/organ.wav","null","audio-keyboard-response","261","139586","0.0-1.0-260.0","",""
"null","sound/msl/goat.wav","null","audio-keyboard-response","262","140126","0.0-1.0-261.0","",""
"null","sound/msl/frog.wav","null","audio-keyboard-response","263","140636","0.0-1.0-262.0","",""
"null","sound/msl/ding.wav","null","audio-keyboard-response","264","141136","0.0-1.0-263.0","",""
"null","sound/msl/dog.wav","null","audio-keyboard-response","265","141646","0.0-1.0-264.0","",""
"null","sound/msl/door_bell.wav","null","audio-keyboard-response","266","142146","0.0-1.0-265.0","",""
"null","sound/msl/cat.wav","null","audio-keyboard-response","267","142646","0.0-1.0-266.0","",""
"null","sound/msl/slide_whistle.wav","null","audio-keyboard-response","268","143147","0.0-1.0-267.0","",""
"null","sound/msl/duck.wav","null","audio-keyboard-response","269","143656","0.0-1.0-268.0","",""
"null","sound/msl/cow.wav","null","audio-keyboard-response","270","144166","0.0-1.0-269.0","",""
"null","sound/msl/bird.wav","null","audio-keyboard-response","271","144666","0.0-1.0-270.0","",""
"null","sound/msl/boing.wav","null","audio-keyboard-response","272","145166","0.0-1.0-271.0","",""
"null","sound/msl/clock.wav","null","audio-keyboard-response","273","145717","0.0-1.0-272.0","",""
"null","sound/msl/Water.wav","null","audio-keyboard-response","274","146226","0.0-1.0-273.0","",""
"null","sound/msl/door.wav","null","audio-keyboard-response","275","146726","0.0-1.0-274.0","",""
"null","sound/msl/organ.wav","null","audio-keyboard-response","276","147226","0.0-1.0-275.0","",""
"null","sound/msl/goat.wav","null","audio-keyboard-response","277","147767","0.0-1.0-276.0","",""
"null","sound/msl/frog.wav","null","audio-keyboard-response","278","148276","0.0-1.0-277.0","",""
"null","sound/msl/ding.wav","null","audio-keyboard-response","279","148786","0.0-1.0-278.0","",""
"null","sound/msl/dog.wav","null","audio-keyboard-response","280","149296","0.0-1.0-279.0","",""
"null","sound/msl/door_bell.wav","null","audio-keyboard-response","281","149807","0.0-1.0-280.0","",""
"null","sound/msl/cat.wav","null","audio-keyboard-response","282","150306","0.0-1.0-281.0","",""
"null","sound/msl/bird.wav","null","audio-keyboard-response","283","150816","0.0-1.0-282.0","",""
"null","sound/msl/boing.wav","null","audio-keyboard-response","284","151316","0.0-1.0-283.0","",""
"null","sound/msl/clock.wav","null","audio-keyboard-response","285","151866","0.0-1.0-284.0","",""
"null","sound/msl/slide_whistle.wav","null","audio-keyboard-response","286","152366","0.0-1.0-285.0","",""
"null","sound/msl/duck.wav","null","audio-keyboard-response","287","152876","0.0-1.0-286.0","",""
"null","sound/msl/cow.wav","null","audio-keyboard-response","288","153377","0.0-1.0-287.0","",""
"null","sound/msl/Water.wav","null","audio-keyboard-response","289","153886","0.0-1.0-288.0","",""
"null","sound/msl/door.wav","null","audio-keyboard-response","290","154386","0.0-1.0-289.0","",""
"null","sound/msl/organ.wav","null","audio-keyboard-response","291","154887","0.0-1.0-290.0","",""
"null","sound/msl/dog.wav","null","audio-keyboard-response","292","155398","0.0-1.0-291.0","",""
"null","sound/msl/door_bell.wav","null","audio-keyboard-response","293","155906","0.0-1.0-292.0","",""
"null","sound/msl/cat.wav","null","audio-keyboard-response","294","156407","0.0-1.0-293.0","",""
"null","sound/msl/goat.wav","null","audio-keyboard-response","295","156946","0.0-1.0-294.0","",""
"null","sound/msl/frog.wav","null","audio-keyboard-response","296","157457","0.0-1.0-295.0","",""
"null","sound/msl/ding.wav","null","audio-keyboard-response","297","157956","0.0-1.0-296.0","",""
"null","sound/msl/Water.wav","null","audio-keyboard-response","298","158467","0.0-1.0-297.0","",""
"null","sound/msl/door.wav","null","audio-keyboard-response","299","158967","0.0-1.0-298.0","",""
"null","sound/msl/organ.wav","null","audio-keyboard-response","300","159466","0.0-1.0-299.0","",""
"null","sound/msl/bird.wav","null","audio-keyboard-response","301","159977","0.0-1.0-300.0","",""
"null","sound/msl/boing.wav","null","audio-keyboard-response","302","160477","0.0-1.0-301.0","",""
"null","sound/msl/clock.wav","null","audio-keyboard-response","303","161026","0.0-1.0-302.0","",""
"null","sound/msl/dog.wav","null","audio-keyboard-response","304","161527","0.0-1.0-303.0","",""
"null","sound/msl/door_bell.wav","null","audio-keyboard-response","305","162036","0.0-1.0-304.0","",""
"null","sound/msl/cat.wav","null","audio-keyboard-response","306","162537","0.0-1.0-305.0","",""
"null","sound/msl/slide_whistle.wav","null","audio-keyboard-response","307","163036","0.0-1.0-306.0","",""
"null","sound/msl/duck.wav","null","audio-keyboard-response","308","163537","0.0-1.0-307.0","",""
"null","sound/msl/cow.wav","null","audio-keyboard-response","309","164036","0.0-1.0-308.0","",""
"null","sound/msl/goat.wav","null","audio-keyboard-response","310","164576","0.0-1.0-309.0","",""
"null","sound/msl/frog.wav","null","audio-keyboard-response","311","165086","0.0-1.0-310.0","",""
"null","sound/msl/ding.wav","null","audio-keyboard-response","312","165596","0.0-1.0-311.0","",""
"null","sound/msl/Water.wav","null","audio-keyboard-response","313","166107","0.0-1.0-312.0","",""
"null","sound/msl/door.wav","null","audio-keyboard-response","314","166607","0.0-1.0-313.0","",""
"null","sound/msl/organ.wav","null","audio-keyboard-response","315","167106","0.0-1.0-314.0","",""
"null","sound/msl/bird.wav","null","audio-keyboard-response","316","167606","0.0-1.0-315.0","",""
"null","sound/msl/boing.wav","null","audio-keyboard-response","317","168106","0.0-1.0-316.0","",""
"null","sound/msl/clock.wav","null","audio-keyboard-response","318","168657","0.0-1.0-317.0","",""
"null","sound/msl/dog.wav","null","audio-keyboard-response","319","169156","0.0-1.0-318.0","",""
"null","sound/msl/door_bell.wav","null","audio-keyboard-response","320","169666","0.0-1.0-319.0","",""
"null","sound/msl/cat.wav","null","audio-keyboard-response","321","170166","0.0-1.0-320.0","",""
"null","sound/msl/goat.wav","null","audio-keyboard-response","322","170706","0.0-1.0-321.0","",""
"null","sound/msl/frog.wav","null","audio-keyboard-response","323","171216","0.0-1.0-322.0","",""
"null","sound/msl/ding.wav","null","audio-keyboard-response","324","171717","0.0-1.0-323.0","",""
"null","sound/msl/bird.wav","null","audio-keyboard-response","325","172226","0.0-1.0-324.0","",""
"null","sound/msl/boing.wav","null","audio-keyboard-response","326","172726","0.0-1.0-325.0","",""
"null","sound/msl/clock.wav","null","audio-keyboard-response","327","173276","0.0-1.0-326.0","",""
"null","sound/msl/slide_whistle.wav","null","audio-keyboard-response","328","173776","0.0-1.0-327.0","",""
"null","sound/msl/duck.wav","null","audio-keyboard-response","329","174277","0.0-1.0-328.0","",""
"null","sound/msl/cow.wav","null","audio-keyboard-response","330","174786","0.0-1.0-329.0","",""
"null","sound/msl/Water.wav","null","audio-keyboard-response","331","175296","0.0-1.0-330.0","",""
"null","sound/msl/door.wav","null","audio-keyboard-response","332","175797","0.0-1.0-331.0","",""
"null","sound/msl/organ.wav","null","audio-keyboard-response","333","176296","0.0-1.0-332.0","",""
"null","sound/msl/dog.wav","null","audio-keyboard-response","334","176806","0.0-1.0-333.0","",""
"null","sound/msl/door_bell.wav","null","audio-keyboard-response","335","177307","0.0-1.0-334.0","",""
"null","sound/msl/cat.wav","null","audio-keyboard-response","336","177807","0.0-1.0-335.0","",""
"null","sound/msl/slide_whistle.wav","null","audio-keyboard-response","337","178307","0.0-1.0-336.0","",""
"null","sound/msl/duck.wav","null","audio-keyboard-response","338","178816","0.0-1.0-337.0","",""
"null","sound/msl/cow.wav","null","audio-keyboard-response","339","179326","0.0-1.0-338.0","",""
"null","sound/msl/goat.wav","null","audio-keyboard-response","340","179866","0.0-1.0-339.0","",""
"null","sound/msl/frog.wav","null","audio-keyboard-response","341","180376","0.0-1.0-340.0","",""
"null","sound/msl/ding.wav","null","audio-keyboard-response","342","180876","0.0-1.0-341.0","",""
"null","sound/msl/dog.wav","null","audio-keyboard-response","343","181386","0.0-1.0-342.0","",""
"null","sound/msl/door_bell.wav","null","audio-keyboard-response","344","181886","0.0-1.0-343.0","",""
"null","sound/msl/cat.wav","null","audio-keyboard-response","345","182386","0.0-1.0-344.0","",""
"null","sound/msl/goat.wav","null","audio-keyboard-response","346","182916","0.0-1.0-345.0","",""
"null","sound/msl/frog.wav","null","audio-keyboard-response","347","183427","0.0-1.0-346.0","",""
"null","sound/msl/ding.wav","null","audio-keyboard-response","348","183936","0.0-1.0-347.0","",""
"null","sound/msl/slide_whistle.wav","null","audio-keyboard-response","349","184437","0.0-1.0-348.0","",""
"null","sound/msl/duck.wav","null","audio-keyboard-response","350","184947","0.0-1.0-349.0","",""
"null","sound/msl/cow.wav","null","audio-keyboard-response","351","185456","0.0-1.0-350.0","",""
"null","sound/msl/Water.wav","null","audio-keyboard-response","352","185966","0.0-1.0-351.0","",""
"null","sound/msl/door.wav","null","audio-keyboard-response","353","186466","0.0-1.0-352.0","",""
"null","sound/msl/organ.wav","null","audio-keyboard-response","354","186966","0.0-1.0-353.0","",""
"null","sound/msl/dog.wav","null","audio-keyboard-response","355","187476","0.0-1.0-354.0","",""
"null","sound/msl/door_bell.wav","null","audio-keyboard-response","356","187986","0.0-1.0-355.0","",""
"null","sound/msl/cat.wav","null","audio-keyboard-response","357","188486","0.0-1.0-356.0","",""
"null","sound/msl/goat.wav","null","audio-keyboard-response","358","189026","0.0-1.0-357.0","",""
"null","sound/msl/frog.wav","null","audio-keyboard-response","359","189536","0.0-1.0-358.0","",""
"null","sound/msl/ding.wav","null","audio-keyboard-response","360","190037","0.0-1.0-359.0","",""
"11973","Instructions2-eng.png","49","image-keyboard-response","361","202012","0.0-2.0","",""
"null","sound/msl/slide_whistle.wav","null","audio-keyboard-response","362","202506","0.0-3.0-0.0","",""
"null","sound/msl/door_bell.wav","null","audio-keyboard-response","363","203016","0.0-3.0-1.0","",""
"null","sound/msl/organ.wav","null","audio-keyboard-response","364","203517","0.0-3.0-2.0","",""
"null","sound/asl/silence.wav","null","audio-keyboard-response","365","204019","0.0-3.0-3.0","",""
"null","sound/msl/goat.wav","null","audio-keyboard-response","366","204546","0.0-3.0-4.0","",""
"null","sound/msl/frog.wav","null","audio-keyboard-response","367","205057","0.0-3.0-5.0","",""
"null","sound/msl/ding.wav","null","audio-keyboard-response","368","205556","0.0-3.0-6.0","",""
"7039","sound/asl/silence.wav","49","audio-keyboard-response","369","212598","0.0-3.0-7.0","false",""
"null","sound/msl/slide_whistle.wav","null","audio-keyboard-response","370","213097","0.0-4.0-0.0","",""
"null","sound/msl/door_bell.wav","null","audio-keyboard-response","371","213596","0.0-4.0-1.0","",""
"null","sound/msl/organ.wav","null","audio-keyboard-response","372","214096","0.0-4.0-2.0","",""
"null","sound/asl/silence.wav","null","audio-keyboard-response","373","214598","0.0-4.0-3.0","",""
"null","sound/msl/dog.wav","null","audio-keyboard-response","374","215096","0.0-4.0-4.0","",""
"null","sound/msl/door_bell.wav","null","audio-keyboard-response","375","215606","0.0-4.0-5.0","",""
"null","sound/msl/cat.wav","null","audio-keyboard-response","376","216106","0.0-4.0-6.0","",""
"6049","sound/asl/silence.wav","50","audio-keyboard-response","377","222163","0.0-4.0-7.0","true",""
"null","sound/msl/bird.wav","null","audio-keyboard-response","378","222666","0.0-5.0-0.0","",""
"null","sound/msl/duck.wav","null","audio-keyboard-response","379","223176","0.0-5.0-1.0","",""
"null","sound/msl/cat.wav","null","audio-keyboard-response","380","223677","0.0-5.0-2.0","",""
"null","sound/asl/silence.wav","null","audio-keyboard-response","381","224178","0.0-5.0-3.0","",""
"null","sound/msl/goat.wav","null","audio-keyboard-response","382","224716","0.0-5.0-4.0","",""
"null","sound/msl/frog.wav","null","audio-keyboard-response","383","225226","0.0-5.0-5.0","",""
"null","sound/msl/ding.wav","null","audio-keyboard-response","384","225736","0.0-5.0-6.0","",""
"4040","sound/asl/silence.wav","50","audio-keyboard-response","385","229777","0.0-5.0-7.0","true",""
"null","sound/msl/slide_whistle.wav","null","audio-keyboard-response","386","230276","0.0-6.0-0.0","",""
"null","sound/msl/duck.wav","null","audio-keyboard-response","387","230787","0.0-6.0-1.0","",""
"null","sound/msl/cow.wav","null","audio-keyboard-response","388","231297","0.0-6.0-2.0","",""
"null","sound/asl/silence.wav","null","audio-keyboard-response","389","231798","0.0-6.0-3.0","",""
"null","sound/msl/goat.wav","null","audio-keyboard-response","390","232326","0.0-6.0-4.0","",""
"null","sound/msl/boing.wav","null","audio-keyboard-response","391","232827","0.0-6.0-5.0","",""
"null","sound/msl/cow.wav","null","audio-keyboard-response","392","233337","0.0-6.0-6.0","",""
"580","sound/asl/silence.wav","49","audio-keyboard-response","393","233919","0.0-6.0-7.0","true",""
"null","sound/msl/bird.wav","null","audio-keyboard-response","394","234426","0.0-7.0-0.0","",""
"null","sound/msl/boing.wav","null","audio-keyboard-response","395","234927","0.0-7.0-1.0","",""
"null","sound/msl/clock.wav","null","audio-keyboard-response","396","235476","0.0-7.0-2.0","",""
"null","sound/asl/silence.wav","null","audio-keyboard-response","397","235977","0.0-7.0-3.0","",""
"null","sound/msl/bird.wav","null","audio-keyboard-response","398","236476","0.0-7.0-4.0","",""
"null","sound/msl/duck.wav","null","audio-keyboard-response","399","236987","0.0-7.0-5.0","",""
"null","sound/msl/cat.wav","null","audio-keyboard-response","400","237486","0.0-7.0-6.0","",""
"528","sound/asl/silence.wav","50","audio-keyboard-response","401","238021","0.0-7.0-7.0","false",""
"null","sound/msl/slide_whistle.wav","null","audio-keyboard-response","402","238517","0.0-8.0-0.0","",""
"null","sound/msl/door_bell.wav","null","audio-keyboard-response","403","239017","0.0-8.0-1.0","",""
"null","sound/msl/organ.wav","null","audio-keyboard-response","404","239516","0.0-8.0-2.0","",""
"null","sound/asl/silence.wav","null","audio-keyboard-response","405","240018","0.0-8.0-3.0","",""
"null","sound/msl/Water.wav","null","audio-keyboard-response","406","240526","0.0-8.0-4.0","",""
"null","sound/msl/door.wav","null","audio-keyboard-response","407","241026","0.0-8.0-5.0","",""
"null","sound/msl/organ.wav","null","audio-keyboard-response","408","241527","0.0-8.0-6.0","",""
"342","sound/asl/silence.wav","49","audio-keyboard-response","409","241871","0.0-8.0-7.0","false",""
"null","sound/msl/goat.wav","null","audio-keyboard-response","410","242406","0.0-9.0-0.0","",""
"null","sound/msl/boing.wav","null","audio-keyboard-response","411","242906","0.0-9.0-1.0","",""
"null","sound/msl/cow.wav","null","audio-keyboard-response","412","243416","0.0-9.0-2.0","",""
"null","sound/asl/silence.wav","null","audio-keyboard-response","413","243917","0.0-9.0-3.0","",""
"null","sound/msl/goat.wav","null","audio-keyboard-response","414","244446","0.0-9.0-4.0","",""
"null","sound/msl/frog.wav","null","audio-keyboard-response","415","244956","0.0-9.0-5.0","",""
"null","sound/msl/ding.wav","null","audio-keyboard-response","416","245466","0.0-9.0-6.0","",""
"319","sound/asl/silence.wav","50","audio-keyboard-response","417","245788","0.0-9.0-7.0","true",""
"null","sound/msl/dog.wav","null","audio-keyboard-response","418","246296","0.0-10.0-0.0","",""
"null","sound/msl/door_bell.wav","null","audio-keyboard-response","419","246806","0.0-10.0-1.0","",""
"null","sound/msl/cat.wav","null","audio-keyboard-response","420","247306","0.0-10.0-2.0","",""
"null","sound/asl/silence.wav","null","audio-keyboard-response","421","247809","0.0-10.0-3.0","",""
"null","sound/msl/dog.wav","null","audio-keyboard-response","422","248316","0.0-10.0-4.0","",""
"null","sound/msl/door.wav","null","audio-keyboard-response","423","248816","0.0-10.0-5.0","",""
"null","sound/msl/ding.wav","null","audio-keyboard-response","424","249327","0.0-10.0-6.0","",""
"1890","sound/asl/silence.wav","49","audio-keyboard-response","425","251223","0.0-10.0-7.0","true",""
"null","sound/msl/goat.wav","null","audio-keyboard-response","426","251746","0.0-11.0-0.0","",""
"null","sound/msl/frog.wav","null","audio-keyboard-response","427","252256","0.0-11.0-1.0","",""
"null","sound/msl/ding.wav","null","audio-keyboard-response","428","252757","0.0-11.0-2.0","",""
"null","sound/asl/silence.wav","null","audio-keyboard-response","429","253258","0.0-11.0-3.0","",""
"null","sound/msl/dog.wav","null","audio-keyboard-response","430","253766","0.0-11.0-4.0","",""
"null","sound/msl/door.wav","null","audio-keyboard-response","431","254265","0.0-11.0-5.0","",""
"null","sound/msl/ding.wav","null","audio-keyboard-response","432","254777","0.0-11.0-6.0","",""
"1698","sound/asl/silence.wav","49","audio-keyboard-response","433","256484","0.0-11.0-7.0","true",""
"null","sound/msl/goat.wav","null","audio-keyboard-response","434","257007","0.0-12.0-0.0","",""
"null","sound/msl/boing.wav","null","audio-keyboard-response","435","257506","0.0-12.0-1.0","",""
"null","sound/msl/cow.wav","null","audio-keyboard-response","436","258017","0.0-12.0-2.0","",""
"null","sound/asl/silence.wav","null","audio-keyboard-response","437","258518","0.0-12.0-3.0","",""
"null","sound/msl/dog.wav","null","audio-keyboard-response","438","259026","0.0-12.0-4.0","",""
"null","sound/msl/door_bell.wav","null","audio-keyboard-response","439","259536","0.0-12.0-5.0","",""
"null","sound/msl/cat.wav","null","audio-keyboard-response","440","260036","0.0-12.0-6.0","",""
"528","sound/asl/silence.wav","50","audio-keyboard-response","441","260575","0.0-12.0-7.0","true",""
"null","sound/msl/dog.wav","null","audio-keyboard-response","442","261086","0.0-13.0-0.0","",""
"null","sound/msl/door.wav","null","audio-keyboard-response","443","261586","0.0-13.0-1.0","",""
"null","sound/msl/ding.wav","null","audio-keyboard-response","444","262097","0.0-13.0-2.0","",""
"null","sound/asl/silence.wav","null","audio-keyboard-response","445","262599","0.0-13.0-3.0","",""
"null","sound/msl/bird.wav","null","audio-keyboard-response","446","263106","0.0-13.0-4.0","",""
"null","sound/msl/boing.wav","null","audio-keyboard-response","447","263607","0.0-13.0-5.0","",""
"null","sound/msl/clock.wav","null","audio-keyboard-response","448","264156","0.0-13.0-6.0","",""
"331","sound/asl/silence.wav","50","audio-keyboard-response","449","264493","0.0-13.0-7.0","true",""
"null","sound/msl/goat.wav","null","audio-keyboard-response","450","265017","0.0-14.0-0.0","",""
"null","sound/msl/frog.wav","null","audio-keyboard-response","451","265526","0.0-14.0-1.0","",""
"null","sound/msl/ding.wav","null","audio-keyboard-response","452","266027","0.0-14.0-2.0","",""
"null","sound/asl/silence.wav","null","audio-keyboard-response","453","266528","0.0-14.0-3.0","",""
"null","sound/msl/Water.wav","null","audio-keyboard-response","454","267036","0.0-14.0-4.0","",""
"null","sound/msl/frog.wav","null","audio-keyboard-response","455","267537","0.0-14.0-5.0","",""
"null","sound/msl/clock.wav","null","audio-keyboard-response","456","268087","0.0-14.0-6.0","",""
"319","sound/asl/silence.wav","49","audio-keyboard-response","457","268416","0.0-14.0-7.0","true",""
"null","sound/msl/bird.wav","null","audio-keyboard-response","458","268926","0.0-15.0-0.0","",""
"null","sound/msl/boing.wav","null","audio-keyboard-response","459","269426","0.0-15.0-1.0","",""
"null","sound/msl/clock.wav","null","audio-keyboard-response","460","269976","0.0-15.0-2.0","",""
"null","sound/asl/silence.wav","null","audio-keyboard-response","461","270478","0.0-15.0-3.0","",""
"null","sound/msl/slide_whistle.wav","null","audio-keyboard-response","462","270976","0.0-15.0-4.0","",""
"null","sound/msl/door_bell.wav","null","audio-keyboard-response","463","271487","0.0-15.0-5.0","",""
"null","sound/msl/organ.wav","null","audio-keyboard-response","464","271986","0.0-15.0-6.0","",""
"401","sound/asl/silence.wav","49","audio-keyboard-response","465","272390","0.0-15.0-7.0","true",""
"null","sound/msl/slide_whistle.wav","null","audio-keyboard-response","466","272887","0.0-16.0-0.0","",""
"null","sound/msl/door_bell.wav","null","audio-keyboard-response","467","273396","0.0-16.0-1.0","",""
"null","sound/msl/organ.wav","null","audio-keyboard-response","468","273897","0.0-16.0-2.0","",""
"null","sound/asl/silence.wav","null","audio-keyboard-response","469","274398","0.0-16.0-3.0","",""
"null","sound/msl/slide_whistle.wav","null","audio-keyboard-response","470","274896","0.0-16.0-4.0","",""
"null","sound/msl/duck.wav","null","audio-keyboard-response","471","275396","0.0-16.0-5.0","",""
"null","sound/msl/cow.wav","null","audio-keyboard-response","472","275906","0.0-16.0-6.0","",""
"261","sound/asl/silence.wav","50","audio-keyboard-response","473","276166","0.0-16.0-7.0","true",""
"null","sound/msl/bird.wav","null","audio-keyboard-response","474","276676","0.0-17.0-0.0","",""
"null","sound/msl/duck.wav","null","audio-keyboard-response","475","277186","0.0-17.0-1.0","",""
"null","sound/msl/cat.wav","null","audio-keyboard-response","476","277687","0.0-17.0-2.0","",""
"null","sound/asl/silence.wav","null","audio-keyboard-response","477","278189","0.0-17.0-3.0","",""
"null","sound/msl/slide_whistle.wav","null","audio-keyboard-response","478","278686","0.0-17.0-4.0","",""
"null","sound/msl/duck.wav","null","audio-keyboard-response","479","279187","0.0-17.0-5.0","",""
"null","sound/msl/cow.wav","null","audio-keyboard-response","480","279696","0.0-17.0-6.0","",""
"1080","sound/asl/silence.wav","50","audio-keyboard-response","481","280780","0.0-17.0-7.0","true",""
"null","sound/msl/Water.wav","null","audio-keyboard-response","482","281287","0.0-18.0-0.0","",""
"null","sound/msl/door.wav","null","audio-keyboard-response","483","281786","0.0-18.0-1.0","",""
"null","sound/msl/organ.wav","null","audio-keyboard-response","484","282286","0.0-18.0-2.0","",""
"null","sound/asl/silence.wav","null","audio-keyboard-response","485","282787","0.0-18.0-3.0","",""
"null","sound/msl/bird.wav","null","audio-keyboard-response","486","283296","0.0-18.0-4.0","",""
"null","sound/msl/duck.wav","null","audio-keyboard-response","487","283807","0.0-18.0-5.0","",""
"null","sound/msl/cat.wav","null","audio-keyboard-response","488","284306","0.0-18.0-6.0","",""
"2589","sound/asl/silence.wav","49","audio-keyboard-response","489","286899","0.0-18.0-7.0","true",""
"null","sound/msl/dog.wav","null","audio-keyboard-response","490","287406","0.0-19.0-0.0","",""
"null","sound/msl/door.wav","null","audio-keyboard-response","491","287907","0.0-19.0-1.0","",""
"null","sound/msl/ding.wav","null","audio-keyboard-response","492","288417","0.0-19.0-2.0","",""
"null","sound/asl/silence.wav","null","audio-keyboard-response","493","288919","0.0-19.0-3.0","",""
"null","sound/msl/slide_whistle.wav","null","audio-keyboard-response","494","289417","0.0-19.0-4.0","",""
"null","sound/msl/duck.wav","null","audio-keyboard-response","495","289927","0.0-19.0-5.0","",""
"null","sound/msl/cow.wav","null","audio-keyboard-response","496","290436","0.0-19.0-6.0","",""
"3808","sound/asl/silence.wav","50","audio-keyboard-response","497","294255","0.0-19.0-7.0","true",""
"null","sound/msl/Water.wav","null","audio-keyboard-response","498","294766","0.0-20.0-0.0","",""
"null","sound/msl/frog.wav","null","audio-keyboard-response","499","295266","0.0-20.0-1.0","",""
"null","sound/msl/clock.wav","null","audio-keyboard-response","500","295816","0.0-20.0-2.0","",""
"null","sound/asl/silence.wav","null","audio-keyboard-response","501","296317","0.0-20.0-3.0","",""
"null","sound/msl/bird.wav","null","audio-keyboard-response","502","296816","0.0-20.0-4.0","",""
"null","sound/msl/boing.wav","null","audio-keyboard-response","503","297316","0.0-20.0-5.0","",""
"null","sound/msl/clock.wav","null","audio-keyboard-response","504","297867","0.0-20.0-6.0","",""
"682","sound/asl/silence.wav","50","audio-keyboard-response","505","298555","0.0-20.0-7.0","true",""
"null","sound/msl/bird.wav","null","audio-keyboard-response","506","299057","0.0-21.0-0.0","",""
"null","sound/msl/boing.wav","null","audio-keyboard-response","507","299556","0.0-21.0-1.0","",""
"null","sound/msl/clock.wav","null","audio-keyboard-response","508","300106","0.0-21.0-2.0","",""
"null","sound/asl/silence.wav","null","audio-keyboard-response","509","300608","0.0-21.0-3.0","",""
"null","sound/msl/goat.wav","null","audio-keyboard-response","510","301137","0.0-21.0-4.0","",""
"null","sound/msl/boing.wav","null","audio-keyboard-response","511","301637","0.0-21.0-5.0","",""
"null","sound/msl/cow.wav","null","audio-keyboard-response","512","302138","0.0-21.0-6.0","",""
"6507","sound/asl/silence.wav","50","audio-keyboard-response","513","308656","0.0-21.0-7.0","false",""
"null","sound/msl/Water.wav","null","audio-keyboard-response","514","309166","0.0-22.0-0.0","",""
"null","sound/msl/door.wav","null","audio-keyboard-response","515","309667","0.0-22.0-1.0","",""
"null","sound/msl/organ.wav","null","audio-keyboard-response","516","310166","0.0-22.0-2.0","",""
"null","sound/asl/silence.wav","null","audio-keyboard-response","517","310668","0.0-22.0-3.0","",""
"null","sound/msl/Water.wav","null","audio-keyboard-response","518","311177","0.0-22.0-4.0","",""
"null","sound/msl/frog.wav","null","audio-keyboard-response","519","311686","0.0-22.0-5.0","",""
"null","sound/msl/clock.wav","null","audio-keyboard-response","520","312236","0.0-22.0-6.0","",""
"1370","sound/asl/silence.wav","50","audio-keyboard-response","521","313612","0.0-22.0-7.0","false",""
"null","sound/msl/goat.wav","null","audio-keyboard-response","522","314136","0.0-23.0-0.0","",""
"null","sound/msl/boing.wav","null","audio-keyboard-response","523","314637","0.0-23.0-1.0","",""
"null","sound/msl/cow.wav","null","audio-keyboard-response","524","315147","0.0-23.0-2.0","",""
"null","sound/asl/silence.wav","null","audio-keyboard-response","525","315649","0.0-23.0-3.0","",""
"null","sound/msl/Water.wav","null","audio-keyboard-response","526","316157","0.0-23.0-4.0","",""
"null","sound/msl/door.wav","null","audio-keyboard-response","527","316657","0.0-23.0-5.0","",""
"null","sound/msl/organ.wav","null","audio-keyboard-response","528","317157","0.0-23.0-6.0","",""
"131","sound/asl/silence.wav","49","audio-keyboard-response","529","317292","0.0-23.0-7.0","false",""
"null","sound/msl/dog.wav","null","audio-keyboard-response","530","317796","0.0-24.0-0.0","",""
"null","sound/msl/door_bell.wav","null","audio-keyboard-response","531","318307","0.0-24.0-1.0","",""
"null","sound/msl/cat.wav","null","audio-keyboard-response","532","318806","0.0-24.0-2.0","",""
"null","sound/asl/silence.wav","null","audio-keyboard-response","533","319308","0.0-24.0-3.0","",""
"null","sound/msl/Water.wav","null","audio-keyboard-response","534","319817","0.0-24.0-4.0","",""
"null","sound/msl/frog.wav","null","audio-keyboard-response","535","320326","0.0-24.0-5.0","",""
"null","sound/msl/clock.wav","null","audio-keyboard-response","536","320876","0.0-24.0-6.0","",""
"1890","sound/asl/silence.wav","50","audio-keyboard-response","537","322772","0.0-24.0-7.0","false",""
"null","sound/msl/Water.wav","null","audio-keyboard-response","538","323276","0.0-25.0-0.0","",""
"null","sound/msl/door.wav","null","audio-keyboard-response","539","323776","0.0-25.0-1.0","",""
"null","sound/msl/organ.wav","null","audio-keyboard-response","540","324275","0.0-25.0-2.0","",""
"null","sound/asl/silence.wav","null","audio-keyboard-response","541","324778","0.0-25.0-3.0","",""
"null","sound/msl/dog.wav","null","audio-keyboard-response","542","325286","0.0-25.0-4.0","",""
"null","sound/msl/door.wav","null","audio-keyboard-response","543","325785","0.0-25.0-5.0","",""
"null","sound/msl/ding.wav","null","audio-keyboard-response","544","326297","0.0-25.0-6.0","",""
"560","sound/asl/silence.wav","49","audio-keyboard-response","545","326865","0.0-25.0-7.0","true",""
"null","sound/msl/bird.wav","null","audio-keyboard-response","546","327386","0.0-26.0-0.0","",""
"null","sound/msl/duck.wav","null","audio-keyboard-response","547","327886","0.0-26.0-1.0","",""
"null","sound/msl/cat.wav","null","audio-keyboard-response","548","328386","0.0-26.0-2.0","",""
"null","sound/asl/silence.wav","null","audio-keyboard-response","549","328889","0.0-26.0-3.0","",""
"null","sound/msl/dog.wav","null","audio-keyboard-response","550","329376","0.0-26.0-4.0","",""
"null","sound/msl/door_bell.wav","null","audio-keyboard-response","551","329886","0.0-26.0-5.0","",""
"null","sound/msl/cat.wav","null","audio-keyboard-response","552","330386","0.0-26.0-6.0","",""
"1268","sound/asl/silence.wav","50","audio-keyboard-response","553","331664","0.0-26.0-7.0","true",""
"null","sound/msl/slide_whistle.wav","null","audio-keyboard-response","554","332167","0.0-27.0-0.0","",""
"null","sound/msl/duck.wav","null","audio-keyboard-response","555","332675","0.0-27.0-1.0","",""
"null","sound/msl/cow.wav","null","audio-keyboard-response","556","333187","0.0-27.0-2.0","",""
"null","sound/asl/silence.wav","null","audio-keyboard-response","557","333688","0.0-27.0-3.0","",""
"null","sound/msl/Water.wav","null","audio-keyboard-response","558","334197","0.0-27.0-4.0","",""
"null","sound/msl/frog.wav","null","audio-keyboard-response","559","334707","0.0-27.0-5.0","",""
"null","sound/msl/clock.wav","null","audio-keyboard-response","560","335256","0.0-27.0-6.0","",""
"1982","sound/asl/silence.wav","50","audio-keyboard-response","561","337240","0.0-27.0-7.0","false",""
"4916","","","instructions","562","342157","0.0-28.0","","[{""page_index"":0,""viewing_time"":4916}]"
