"rt","stimulus","key_press","trial_type","trial_index","time_elapsed","internal_node_id","correct","view_history"
"11447","alien.jpg","49","image-keyboard-response","0","11448","0.0-0.0","",""
"null","sound/msl/slide_whistle.wav","null","audio-keyboard-response","1","11942","0.0-1.0-0.0","",""
"null","sound/msl/clock.wav","null","audio-keyboard-response","2","12492","0.0-1.0-1.0","",""
"null","sound/msl/frog.wav","null","audio-keyboard-response","3","13001","0.0-1.0-2.0","",""
"null","sound/msl/boing.wav","null","audio-keyboard-response","4","13504","0.0-1.0-3.0","",""
"null","sound/msl/cat.wav","null","audio-keyboard-response","5","14001","0.0-1.0-4.0","",""
"null","sound/msl/organ.wav","null","audio-keyboard-response","6","14502","0.0-1.0-5.0","",""
"null","sound/msl/door.wav","null","audio-keyboard-response","7","15002","0.0-1.0-6.0","",""
"null","sound/msl/duck.wav","null","audio-keyboard-response","8","15512","0.0-1.0-7.0","",""
"null","sound/msl/dog.wav","null","audio-keyboard-response","9","16012","0.0-1.0-8.0","",""
"null","sound/msl/door_bell.wav","null","audio-keyboard-response","10","16521","0.0-1.0-9.0","",""
"null","sound/msl/bird.wav","null","audio-keyboard-response","11","17031","0.0-1.0-10.0","",""
"null","sound/msl/Water.wav","null","audio-keyboard-response","12","17542","0.0-1.0-11.0","",""
"null","sound/msl/boing.wav","null","audio-keyboard-response","13","18042","0.0-1.0-12.0","",""
"null","sound/msl/cat.wav","null","audio-keyboard-response","14","18541","0.0-1.0-13.0","",""
"null","sound/msl/organ.wav","null","audio-keyboard-response","15","19043","0.0-1.0-14.0","",""
"null","sound/msl/slide_whistle.wav","null","audio-keyboard-response","16","19542","0.0-1.0-15.0","",""
"null","sound/msl/clock.wav","null","audio-keyboard-response","17","20092","0.0-1.0-16.0","",""
"null","sound/msl/frog.wav","null","audio-keyboard-response","18","20602","0.0-1.0-17.0","",""
"null","sound/msl/cow.wav","null","audio-keyboard-response","19","21112","0.0-1.0-18.0","",""
"null","sound/msl/goat.wav","null","audio-keyboard-response","20","21653","0.0-1.0-19.0","",""
"null","sound/msl/ding.wav","null","audio-keyboard-response","21","22162","0.0-1.0-20.0","",""
"null","sound/msl/door_bell.wav","null","audio-keyboard-response","22","22672","0.0-1.0-21.0","",""
"null","sound/msl/bird.wav","null","audio-keyboard-response","23","23172","0.0-1.0-22.0","",""
"null","sound/msl/Water.wav","null","audio-keyboard-response","24","23682","0.0-1.0-23.0","",""
"null","sound/msl/door.wav","null","audio-keyboard-response","25","24183","0.0-1.0-24.0","",""
"null","sound/msl/duck.wav","null","audio-keyboard-response","26","24682","0.0-1.0-25.0","",""
"null","sound/msl/dog.wav","null","audio-keyboard-response","27","25192","0.0-1.0-26.0","",""
"null","sound/msl/slide_whistle.wav","null","audio-keyboard-response","28","25693","0.0-1.0-27.0","",""
"null","sound/msl/clock.wav","null","audio-keyboard-response","29","26243","0.0-1.0-28.0","",""
"null","sound/msl/frog.wav","null","audio-keyboard-response","30","26752","0.0-1.0-29.0","",""
"null","sound/msl/boing.wav","null","audio-keyboard-response","31","27252","0.0-1.0-30.0","",""
"null","sound/msl/cat.wav","null","audio-keyboard-response","32","27752","0.0-1.0-31.0","",""
"null","sound/msl/organ.wav","null","audio-keyboard-response","33","28253","0.0-1.0-32.0","",""
"null","sound/msl/cow.wav","null","audio-keyboard-response","34","28763","0.0-1.0-33.0","",""
"null","sound/msl/goat.wav","null","audio-keyboard-response","35","29302","0.0-1.0-34.0","",""
"null","sound/msl/ding.wav","null","audio-keyboard-response","36","29802","0.0-1.0-35.0","",""
"null","sound/msl/door.wav","null","audio-keyboard-response","37","30303","0.0-1.0-36.0","",""
"null","sound/msl/duck.wav","null","audio-keyboard-response","38","30802","0.0-1.0-37.0","",""
"null","sound/msl/dog.wav","null","audio-keyboard-response","39","31312","0.0-1.0-38.0","",""
"null","sound/msl/door_bell.wav","null","audio-keyboard-response","40","31812","0.0-1.0-39.0","",""
"null","sound/msl/bird.wav","null","audio-keyboard-response","41","32322","0.0-1.0-40.0","",""
"null","sound/msl/Water.wav","null","audio-keyboard-response","42","32832","0.0-1.0-41.0","",""
"null","sound/msl/cow.wav","null","audio-keyboard-response","43","33332","0.0-1.0-42.0","",""
"null","sound/msl/goat.wav","null","audio-keyboard-response","44","33871","0.0-1.0-43.0","",""
"null","sound/msl/ding.wav","null","audio-keyboard-response","45","34373","0.0-1.0-44.0","",""
"null","sound/msl/boing.wav","null","audio-keyboard-response","46","34871","0.0-1.0-45.0","",""
"null","sound/msl/cat.wav","null","audio-keyboard-response","47","35373","0.0-1.0-46.0","",""
"null","sound/msl/organ.wav","null","audio-keyboard-response","48","35873","0.0-1.0-47.0","",""
"null","sound/msl/door.wav","null","audio-keyboard-response","49","36373","0.0-1.0-48.0","",""
"null","sound/msl/duck.wav","null","audio-keyboard-response","50","36883","0.0-1.0-49.0","",""
"null","sound/msl/dog.wav","null","audio-keyboard-response","51","37393","0.0-1.0-50.0","",""
"null","sound/msl/slide_whistle.wav","null","audio-keyboard-response","52","37892","0.0-1.0-51.0","",""
"null","sound/msl/clock.wav","null","audio-keyboard-response","53","38442","0.0-1.0-52.0","",""
"null","sound/msl/frog.wav","null","audio-keyboard-response","54","38952","0.0-1.0-53.0","",""
"null","sound/msl/boing.wav","null","audio-keyboard-response","55","39453","0.0-1.0-54.0","",""
"null","sound/msl/cat.wav","null","audio-keyboard-response","56","39952","0.0-1.0-55.0","",""
"null","sound/msl/organ.wav","null","audio-keyboard-response","57","40453","0.0-1.0-56.0","",""
"null","sound/msl/door.wav","null","audio-keyboard-response","58","40953","0.0-1.0-57.0","",""
"null","sound/msl/duck.wav","null","audio-keyboard-response","59","41453","0.0-1.0-58.0","",""
"null","sound/msl/dog.wav","null","audio-keyboard-response","60","41962","0.0-1.0-59.0","",""
"null","sound/msl/door_bell.wav","null","audio-keyboard-response","61","42472","0.0-1.0-60.0","",""
"null","sound/msl/bird.wav","null","audio-keyboard-response","62","42973","0.0-1.0-61.0","",""
"null","sound/msl/Water.wav","null","audio-keyboard-response","63","43482","0.0-1.0-62.0","",""
"null","sound/msl/cow.wav","null","audio-keyboard-response","64","43992","0.0-1.0-63.0","",""
"null","sound/msl/goat.wav","null","audio-keyboard-response","65","44532","0.0-1.0-64.0","",""
"null","sound/msl/ding.wav","null","audio-keyboard-response","66","45043","0.0-1.0-65.0","",""
"null","sound/msl/boing.wav","null","audio-keyboard-response","67","45542","0.0-1.0-66.0","",""
"null","sound/msl/cat.wav","null","audio-keyboard-response","68","46042","0.0-1.0-67.0","",""
"null","sound/msl/organ.wav","null","audio-keyboard-response","69","46542","0.0-1.0-68.0","",""
"null","sound/msl/slide_whistle.wav","null","audio-keyboard-response","70","47042","0.0-1.0-69.0","",""
"null","sound/msl/clock.wav","null","audio-keyboard-response","71","47593","0.0-1.0-70.0","",""
"null","sound/msl/frog.wav","null","audio-keyboard-response","72","48092","0.0-1.0-71.0","",""
"null","sound/msl/door.wav","null","audio-keyboard-response","73","48592","0.0-1.0-72.0","",""
"null","sound/msl/duck.wav","null","audio-keyboard-response","74","49093","0.0-1.0-73.0","",""
"null","sound/msl/dog.wav","null","audio-keyboard-response","75","49602","0.0-1.0-74.0","",""
"null","sound/msl/door_bell.wav","null","audio-keyboard-response","76","50111","0.0-1.0-75.0","",""
"null","sound/msl/bird.wav","null","audio-keyboard-response","77","50612","0.0-1.0-76.0","",""
"null","sound/msl/Water.wav","null","audio-keyboard-response","78","51122","0.0-1.0-77.0","",""
"null","sound/msl/door.wav","null","audio-keyboard-response","79","51622","0.0-1.0-78.0","",""
"null","sound/msl/duck.wav","null","audio-keyboard-response","80","52122","0.0-1.0-79.0","",""
"null","sound/msl/dog.wav","null","audio-keyboard-response","81","52632","0.0-1.0-80.0","",""
"null","sound/msl/cow.wav","null","audio-keyboard-response","82","53132","0.0-1.0-81.0","",""
"null","sound/msl/goat.wav","null","audio-keyboard-response","83","53671","0.0-1.0-82.0","",""
"null","sound/msl/ding.wav","null","audio-keyboard-response","84","54172","0.0-1.0-83.0","",""
"null","sound/msl/slide_whistle.wav","null","audio-keyboard-response","85","54673","0.0-1.0-84.0","",""
"null","sound/msl/clock.wav","null","audio-keyboard-response","86","55222","0.0-1.0-85.0","",""
"null","sound/msl/frog.wav","null","audio-keyboard-response","87","55722","0.0-1.0-86.0","",""
"null","sound/msl/boing.wav","null","audio-keyboard-response","88","56222","0.0-1.0-87.0","",""
"null","sound/msl/cat.wav","null","audio-keyboard-response","89","56722","0.0-1.0-88.0","",""
"null","sound/msl/organ.wav","null","audio-keyboard-response","90","57222","0.0-1.0-89.0","",""
"null","sound/msl/cow.wav","null","audio-keyboard-response","91","57723","0.0-1.0-90.0","",""
"null","sound/msl/goat.wav","null","audio-keyboard-response","92","58262","0.0-1.0-91.0","",""
"null","sound/msl/ding.wav","null","audio-keyboard-response","93","58763","0.0-1.0-92.0","",""
"null","sound/msl/door_bell.wav","null","audio-keyboard-response","94","59272","0.0-1.0-93.0","",""
"null","sound/msl/bird.wav","null","audio-keyboard-response","95","59773","0.0-1.0-94.0","",""
"null","sound/msl/Water.wav","null","audio-keyboard-response","96","60282","0.0-1.0-95.0","",""
"null","sound/msl/door.wav","null","audio-keyboard-response","97","60782","0.0-1.0-96.0","",""
"null","sound/msl/duck.wav","null","audio-keyboard-response","98","61282","0.0-1.0-97.0","",""
"null","sound/msl/dog.wav","null","audio-keyboard-response","99","61792","0.0-1.0-98.0","",""
"null","sound/msl/boing.wav","null","audio-keyboard-response","100","62293","0.0-1.0-99.0","",""
"null","sound/msl/cat.wav","null","audio-keyboard-response","101","62792","0.0-1.0-100.0","",""
"null","sound/msl/organ.wav","null","audio-keyboard-response","102","63293","0.0-1.0-101.0","",""
"null","sound/msl/cow.wav","null","audio-keyboard-response","103","63802","0.0-1.0-102.0","",""
"null","sound/msl/goat.wav","null","audio-keyboard-response","104","64343","0.0-1.0-103.0","",""
"null","sound/msl/ding.wav","null","audio-keyboard-response","105","64842","0.0-1.0-104.0","",""
"null","sound/msl/slide_whistle.wav","null","audio-keyboard-response","106","65342","0.0-1.0-105.0","",""
"null","sound/msl/clock.wav","null","audio-keyboard-response","107","65892","0.0-1.0-106.0","",""
"null","sound/msl/frog.wav","null","audio-keyboard-response","108","66402","0.0-1.0-107.0","",""
"null","sound/msl/boing.wav","null","audio-keyboard-response","109","66901","0.0-1.0-108.0","",""
"null","sound/msl/cat.wav","null","audio-keyboard-response","110","67401","0.0-1.0-109.0","",""
"null","sound/msl/organ.wav","null","audio-keyboard-response","111","67902","0.0-1.0-110.0","",""
"null","sound/msl/door_bell.wav","null","audio-keyboard-response","112","68402","0.0-1.0-111.0","",""
"null","sound/msl/bird.wav","null","audio-keyboard-response","113","68911","0.0-1.0-112.0","",""
"null","sound/msl/Water.wav","null","audio-keyboard-response","114","69422","0.0-1.0-113.0","",""
"null","sound/msl/cow.wav","null","audio-keyboard-response","115","69922","0.0-1.0-114.0","",""
"null","sound/msl/goat.wav","null","audio-keyboard-response","116","70462","0.0-1.0-115.0","",""
"null","sound/msl/ding.wav","null","audio-keyboard-response","117","70962","0.0-1.0-116.0","",""
"null","sound/msl/door.wav","null","audio-keyboard-response","118","71461","0.0-1.0-117.0","",""
"null","sound/msl/duck.wav","null","audio-keyboard-response","119","71962","0.0-1.0-118.0","",""
"null","sound/msl/dog.wav","null","audio-keyboard-response","120","72472","0.0-1.0-119.0","",""
"null","sound/msl/slide_whistle.wav","null","audio-keyboard-response","121","72971","0.0-1.0-120.0","",""
"null","sound/msl/clock.wav","null","audio-keyboard-response","122","73521","0.0-1.0-121.0","",""
"null","sound/msl/frog.wav","null","audio-keyboard-response","123","74031","0.0-1.0-122.0","",""
"null","sound/msl/boing.wav","null","audio-keyboard-response","124","74532","0.0-1.0-123.0","",""
"null","sound/msl/cat.wav","null","audio-keyboard-response","125","75032","0.0-1.0-124.0","",""
"null","sound/msl/organ.wav","null","audio-keyboard-response","126","75532","0.0-1.0-125.0","",""
"null","sound/msl/cow.wav","null","audio-keyboard-response","127","76043","0.0-1.0-126.0","",""
"null","sound/msl/goat.wav","null","audio-keyboard-response","128","76582","0.0-1.0-127.0","",""
"null","sound/msl/ding.wav","null","audio-keyboard-response","129","77082","0.0-1.0-128.0","",""
"null","sound/msl/door_bell.wav","null","audio-keyboard-response","130","77592","0.0-1.0-129.0","",""
"null","sound/msl/bird.wav","null","audio-keyboard-response","131","78092","0.0-1.0-130.0","",""
"null","sound/msl/Water.wav","null","audio-keyboard-response","132","78602","0.0-1.0-131.0","",""
"null","sound/msl/boing.wav","null","audio-keyboard-response","133","79102","0.0-1.0-132.0","",""
"null","sound/msl/cat.wav","null","audio-keyboard-response","134","79601","0.0-1.0-133.0","",""
"null","sound/msl/organ.wav","null","audio-keyboard-response","135","80103","0.0-1.0-134.0","",""
"null","sound/msl/door.wav","null","audio-keyboard-response","136","80601","0.0-1.0-135.0","",""
"null","sound/msl/duck.wav","null","audio-keyboard-response","137","81113","0.0-1.0-136.0","",""
"null","sound/msl/dog.wav","null","audio-keyboard-response","138","81612","0.0-1.0-137.0","",""
"null","sound/msl/door_bell.wav","null","audio-keyboard-response","139","82122","0.0-1.0-138.0","",""
"null","sound/msl/bird.wav","null","audio-keyboard-response","140","82632","0.0-1.0-139.0","",""
"null","sound/msl/Water.wav","null","audio-keyboard-response","141","83142","0.0-1.0-140.0","",""
"null","sound/msl/slide_whistle.wav","null","audio-keyboard-response","142","83642","0.0-1.0-141.0","",""
"null","sound/msl/clock.wav","null","audio-keyboard-response","143","84193","0.0-1.0-142.0","",""
"null","sound/msl/frog.wav","null","audio-keyboard-response","144","84692","0.0-1.0-143.0","",""
"null","sound/msl/cow.wav","null","audio-keyboard-response","145","85202","0.0-1.0-144.0","",""
"null","sound/msl/goat.wav","null","audio-keyboard-response","146","85743","0.0-1.0-145.0","",""
"null","sound/msl/ding.wav","null","audio-keyboard-response","147","86242","0.0-1.0-146.0","",""
"null","sound/msl/door.wav","null","audio-keyboard-response","148","86743","0.0-1.0-147.0","",""
"null","sound/msl/duck.wav","null","audio-keyboard-response","149","87242","0.0-1.0-148.0","",""
"null","sound/msl/dog.wav","null","audio-keyboard-response","150","87752","0.0-1.0-149.0","",""
"null","sound/msl/slide_whistle.wav","null","audio-keyboard-response","151","88252","0.0-1.0-150.0","",""
"null","sound/msl/clock.wav","null","audio-keyboard-response","152","88802","0.0-1.0-151.0","",""
"null","sound/msl/frog.wav","null","audio-keyboard-response","153","89312","0.0-1.0-152.0","",""
"null","sound/msl/boing.wav","null","audio-keyboard-response","154","89813","0.0-1.0-153.0","",""
"null","sound/msl/cat.wav","null","audio-keyboard-response","155","90313","0.0-1.0-154.0","",""
"null","sound/msl/organ.wav","null","audio-keyboard-response","156","90811","0.0-1.0-155.0","",""
"null","sound/msl/door_bell.wav","null","audio-keyboard-response","157","91323","0.0-1.0-156.0","",""
"null","sound/msl/bird.wav","null","audio-keyboard-response","158","91832","0.0-1.0-157.0","",""
"null","sound/msl/Water.wav","null","audio-keyboard-response","159","92342","0.0-1.0-158.0","",""
"null","sound/msl/cow.wav","null","audio-keyboard-response","160","92843","0.0-1.0-159.0","",""
"null","sound/msl/goat.wav","null","audio-keyboard-response","161","93382","0.0-1.0-160.0","",""
"null","sound/msl/ding.wav","null","audio-keyboard-response","162","93883","0.0-1.0-161.0","",""
"null","sound/msl/boing.wav","null","audio-keyboard-response","163","94382","0.0-1.0-162.0","",""
"null","sound/msl/cat.wav","null","audio-keyboard-response","164","94882","0.0-1.0-163.0","",""
"null","sound/msl/organ.wav","null","audio-keyboard-response","165","95383","0.0-1.0-164.0","",""
"null","sound/msl/door_bell.wav","null","audio-keyboard-response","166","95882","0.0-1.0-165.0","",""
"null","sound/msl/bird.wav","null","audio-keyboard-response","167","96392","0.0-1.0-166.0","",""
"null","sound/msl/Water.wav","null","audio-keyboard-response","168","96903","0.0-1.0-167.0","",""
"null","sound/msl/slide_whistle.wav","null","audio-keyboard-response","169","97402","0.0-1.0-168.0","",""
"null","sound/msl/clock.wav","null","audio-keyboard-response","170","97952","0.0-1.0-169.0","",""
"null","sound/msl/frog.wav","null","audio-keyboard-response","171","98452","0.0-1.0-170.0","",""
"null","sound/msl/door.wav","null","audio-keyboard-response","172","98952","0.0-1.0-171.0","",""
"null","sound/msl/duck.wav","null","audio-keyboard-response","173","99452","0.0-1.0-172.0","",""
"null","sound/msl/dog.wav","null","audio-keyboard-response","174","99962","0.0-1.0-173.0","",""
"null","sound/msl/cow.wav","null","audio-keyboard-response","175","100472","0.0-1.0-174.0","",""
"null","sound/msl/goat.wav","null","audio-keyboard-response","176","101012","0.0-1.0-175.0","",""
"null","sound/msl/ding.wav","null","audio-keyboard-response","177","101522","0.0-1.0-176.0","",""
"null","sound/msl/boing.wav","null","audio-keyboard-response","178","102021","0.0-1.0-177.0","",""
"null","sound/msl/cat.wav","null","audio-keyboard-response","179","102522","0.0-1.0-178.0","",""
"null","sound/msl/organ.wav","null","audio-keyboard-response","180","103023","0.0-1.0-179.0","",""
"null","sound/msl/door.wav","null","audio-keyboard-response","181","103522","0.0-1.0-180.0","",""
"null","sound/msl/duck.wav","null","audio-keyboard-response","182","104032","0.0-1.0-181.0","",""
"null","sound/msl/dog.wav","null","audio-keyboard-response","183","104532","0.0-1.0-182.0","",""
"null","sound/msl/door_bell.wav","null","audio-keyboard-response","184","105042","0.0-1.0-183.0","",""
"null","sound/msl/bird.wav","null","audio-keyboard-response","185","105552","0.0-1.0-184.0","",""
"null","sound/msl/Water.wav","null","audio-keyboard-response","186","106062","0.0-1.0-185.0","",""
"null","sound/msl/slide_whistle.wav","null","audio-keyboard-response","187","106562","0.0-1.0-186.0","",""
"null","sound/msl/clock.wav","null","audio-keyboard-response","188","107112","0.0-1.0-187.0","",""
"null","sound/msl/frog.wav","null","audio-keyboard-response","189","107612","0.0-1.0-188.0","",""
"null","sound/msl/cow.wav","null","audio-keyboard-response","190","108122","0.0-1.0-189.0","",""
"null","sound/msl/goat.wav","null","audio-keyboard-response","191","108662","0.0-1.0-190.0","",""
"null","sound/msl/ding.wav","null","audio-keyboard-response","192","109161","0.0-1.0-191.0","",""
"null","sound/msl/boing.wav","null","audio-keyboard-response","193","109661","0.0-1.0-192.0","",""
"null","sound/msl/cat.wav","null","audio-keyboard-response","194","110161","0.0-1.0-193.0","",""
"null","sound/msl/organ.wav","null","audio-keyboard-response","195","110662","0.0-1.0-194.0","",""
"null","sound/msl/door.wav","null","audio-keyboard-response","196","111162","0.0-1.0-195.0","",""
"null","sound/msl/duck.wav","null","audio-keyboard-response","197","111671","0.0-1.0-196.0","",""
"null","sound/msl/dog.wav","null","audio-keyboard-response","198","112172","0.0-1.0-197.0","",""
"null","sound/msl/slide_whistle.wav","null","audio-keyboard-response","199","112671","0.0-1.0-198.0","",""
"null","sound/msl/clock.wav","null","audio-keyboard-response","200","113222","0.0-1.0-199.0","",""
"null","sound/msl/frog.wav","null","audio-keyboard-response","201","113722","0.0-1.0-200.0","",""
"null","sound/msl/door_bell.wav","null","audio-keyboard-response","202","114232","0.0-1.0-201.0","",""
"null","sound/msl/bird.wav","null","audio-keyboard-response","203","114731","0.0-1.0-202.0","",""
"null","sound/msl/Water.wav","null","audio-keyboard-response","204","115242","0.0-1.0-203.0","",""
"null","sound/msl/cow.wav","null","audio-keyboard-response","205","115753","0.0-1.0-204.0","",""
"null","sound/msl/goat.wav","null","audio-keyboard-response","206","116292","0.0-1.0-205.0","",""
"null","sound/msl/ding.wav","null","audio-keyboard-response","207","116803","0.0-1.0-206.0","",""
"null","sound/msl/boing.wav","null","audio-keyboard-response","208","117302","0.0-1.0-207.0","",""
"null","sound/msl/cat.wav","null","audio-keyboard-response","209","117802","0.0-1.0-208.0","",""
"null","sound/msl/organ.wav","null","audio-keyboard-response","210","118303","0.0-1.0-209.0","",""
"null","sound/msl/slide_whistle.wav","null","audio-keyboard-response","211","118803","0.0-1.0-210.0","",""
"null","sound/msl/clock.wav","null","audio-keyboard-response","212","119352","0.0-1.0-211.0","",""
"null","sound/msl/frog.wav","null","audio-keyboard-response","213","119852","0.0-1.0-212.0","",""
"null","sound/msl/cow.wav","null","audio-keyboard-response","214","120362","0.0-1.0-213.0","",""
"null","sound/msl/goat.wav","null","audio-keyboard-response","215","120902","0.0-1.0-214.0","",""
"null","sound/msl/ding.wav","null","audio-keyboard-response","216","121403","0.0-1.0-215.0","",""
"null","sound/msl/door.wav","null","audio-keyboard-response","217","121902","0.0-1.0-216.0","",""
"null","sound/msl/duck.wav","null","audio-keyboard-response","218","122402","0.0-1.0-217.0","",""
"null","sound/msl/dog.wav","null","audio-keyboard-response","219","122912","0.0-1.0-218.0","",""
"null","sound/msl/door_bell.wav","null","audio-keyboard-response","220","123412","0.0-1.0-219.0","",""
"null","sound/msl/bird.wav","null","audio-keyboard-response","221","123922","0.0-1.0-220.0","",""
"null","sound/msl/Water.wav","null","audio-keyboard-response","222","124432","0.0-1.0-221.0","",""
"null","sound/msl/boing.wav","null","audio-keyboard-response","223","124932","0.0-1.0-222.0","",""
"null","sound/msl/cat.wav","null","audio-keyboard-response","224","125432","0.0-1.0-223.0","",""
"null","sound/msl/organ.wav","null","audio-keyboard-response","225","125932","0.0-1.0-224.0","",""
"null","sound/msl/door.wav","null","audio-keyboard-response","226","126432","0.0-1.0-225.0","",""
"null","sound/msl/duck.wav","null","audio-keyboard-response","227","126932","0.0-1.0-226.0","",""
"null","sound/msl/dog.wav","null","audio-keyboard-response","228","127443","0.0-1.0-227.0","",""
"null","sound/msl/cow.wav","null","audio-keyboard-response","229","127952","0.0-1.0-228.0","",""
"null","sound/msl/goat.wav","null","audio-keyboard-response","230","128492","0.0-1.0-229.0","",""
"null","sound/msl/ding.wav","null","audio-keyboard-response","231","129002","0.0-1.0-230.0","",""
"null","sound/msl/door.wav","null","audio-keyboard-response","232","129502","0.0-1.0-231.0","",""
"null","sound/msl/duck.wav","null","audio-keyboard-response","233","130002","0.0-1.0-232.0","",""
"null","sound/msl/dog.wav","null","audio-keyboard-response","234","130512","0.0-1.0-233.0","",""
"null","sound/msl/boing.wav","null","audio-keyboard-response","235","131013","0.0-1.0-234.0","",""
"null","sound/msl/cat.wav","null","audio-keyboard-response","236","131512","0.0-1.0-235.0","",""
"null","sound/msl/organ.wav","null","audio-keyboard-response","237","132012","0.0-1.0-236.0","",""
"null","sound/msl/door_bell.wav","null","audio-keyboard-response","238","132523","0.0-1.0-237.0","",""
"null","sound/msl/bird.wav","null","audio-keyboard-response","239","133032","0.0-1.0-238.0","",""
"null","sound/msl/Water.wav","null","audio-keyboard-response","240","133542","0.0-1.0-239.0","",""
"null","sound/msl/slide_whistle.wav","null","audio-keyboard-response","241","134042","0.0-1.0-240.0","",""
"null","sound/msl/clock.wav","null","audio-keyboard-response","242","134593","0.0-1.0-241.0","",""
"null","sound/msl/frog.wav","null","audio-keyboard-response","243","135093","0.0-1.0-242.0","",""
"null","sound/msl/cow.wav","null","audio-keyboard-response","244","135602","0.0-1.0-243.0","",""
"null","sound/msl/goat.wav","null","audio-keyboard-response","245","136142","0.0-1.0-244.0","",""
"null","sound/msl/ding.wav","null","audio-keyboard-response","246","136642","0.0-1.0-245.0","",""
"null","sound/msl/boing.wav","null","audio-keyboard-response","247","137143","0.0-1.0-246.0","",""
"null","sound/msl/cat.wav","null","audio-keyboard-response","248","137642","0.0-1.0-247.0","",""
"null","sound/msl/organ.wav","null","audio-keyboard-response","249","138142","0.0-1.0-248.0","",""
"null","sound/msl/door_bell.wav","null","audio-keyboard-response","250","138642","0.0-1.0-249.0","",""
"null","sound/msl/bird.wav","null","audio-keyboard-response","251","139154","0.0-1.0-250.0","",""
"null","sound/msl/Water.wav","null","audio-keyboard-response","252","139663","0.0-1.0-251.0","",""
"null","sound/msl/slide_whistle.wav","null","audio-keyboard-response","253","140162","0.0-1.0-252.0","",""
"null","sound/msl/clock.wav","null","audio-keyboard-response","254","140712","0.0-1.0-253.0","",""
"null","sound/msl/frog.wav","null","audio-keyboard-response","255","141212","0.0-1.0-254.0","",""
"null","sound/msl/door.wav","null","audio-keyboard-response","256","141713","0.0-1.0-255.0","",""
"null","sound/msl/duck.wav","null","audio-keyboard-response","257","142213","0.0-1.0-256.0","",""
"null","sound/msl/dog.wav","null","audio-keyboard-response","258","142723","0.0-1.0-257.0","",""
"null","sound/msl/cow.wav","null","audio-keyboard-response","259","143232","0.0-1.0-258.0","",""
"null","sound/msl/goat.wav","null","audio-keyboard-response","260","143772","0.0-1.0-259.0","",""
"null","sound/msl/ding.wav","null","audio-keyboard-response","261","144282","0.0-1.0-260.0","",""
"null","sound/msl/slide_whistle.wav","null","audio-keyboard-response","262","144782","0.0-1.0-261.0","",""
"null","sound/msl/clock.wav","null","audio-keyboard-response","263","145332","0.0-1.0-262.0","",""
"null","sound/msl/frog.wav","null","audio-keyboard-response","264","145843","0.0-1.0-263.0","",""
"null","sound/msl/door_bell.wav","null","audio-keyboard-response","265","146353","0.0-1.0-264.0","",""
"null","sound/msl/bird.wav","null","audio-keyboard-response","266","146852","0.0-1.0-265.0","",""
"null","sound/msl/Water.wav","null","audio-keyboard-response","267","147363","0.0-1.0-266.0","",""
"null","sound/msl/door.wav","null","audio-keyboard-response","268","147862","0.0-1.0-267.0","",""
"null","sound/msl/duck.wav","null","audio-keyboard-response","269","148362","0.0-1.0-268.0","",""
"null","sound/msl/dog.wav","null","audio-keyboard-response","270","148872","0.0-1.0-269.0","",""
"null","sound/msl/boing.wav","null","audio-keyboard-response","271","149372","0.0-1.0-270.0","",""
"null","sound/msl/cat.wav","null","audio-keyboard-response","272","149872","0.0-1.0-271.0","",""
"null","sound/msl/organ.wav","null","audio-keyboard-response","273","150372","0.0-1.0-272.0","",""
"null","sound/msl/cow.wav","null","audio-keyboard-response","274","150882","0.0-1.0-273.0","",""
"null","sound/msl/goat.wav","null","audio-keyboard-response","275","151422","0.0-1.0-274.0","",""
"null","sound/msl/ding.wav","null","audio-keyboard-response","276","151922","0.0-1.0-275.0","",""
"null","sound/msl/slide_whistle.wav","null","audio-keyboard-response","277","152422","0.0-1.0-276.0","",""
"null","sound/msl/clock.wav","null","audio-keyboard-response","278","152972","0.0-1.0-277.0","",""
"null","sound/msl/frog.wav","null","audio-keyboard-response","279","153482","0.0-1.0-278.0","",""
"null","sound/msl/door_bell.wav","null","audio-keyboard-response","280","153993","0.0-1.0-279.0","",""
"null","sound/msl/bird.wav","null","audio-keyboard-response","281","154492","0.0-1.0-280.0","",""
"null","sound/msl/Water.wav","null","audio-keyboard-response","282","155003","0.0-1.0-281.0","",""
"null","sound/msl/boing.wav","null","audio-keyboard-response","283","155503","0.0-1.0-282.0","",""
"null","sound/msl/cat.wav","null","audio-keyboard-response","284","156002","0.0-1.0-283.0","",""
"null","sound/msl/organ.wav","null","audio-keyboard-response","285","156502","0.0-1.0-284.0","",""
"null","sound/msl/door.wav","null","audio-keyboard-response","286","157012","0.0-1.0-285.0","",""
"null","sound/msl/duck.wav","null","audio-keyboard-response","287","157523","0.0-1.0-286.0","",""
"null","sound/msl/dog.wav","null","audio-keyboard-response","288","158032","0.0-1.0-287.0","",""
"null","sound/msl/cow.wav","null","audio-keyboard-response","289","158532","0.0-1.0-288.0","",""
"null","sound/msl/goat.wav","null","audio-keyboard-response","290","159072","0.0-1.0-289.0","",""
"null","sound/msl/ding.wav","null","audio-keyboard-response","291","159572","0.0-1.0-290.0","",""
"null","sound/msl/door_bell.wav","null","audio-keyboard-response","292","160081","0.0-1.0-291.0","",""
"null","sound/msl/bird.wav","null","audio-keyboard-response","293","160591","0.0-1.0-292.0","",""
"null","sound/msl/Water.wav","null","audio-keyboard-response","294","161101","0.0-1.0-293.0","",""
"null","sound/msl/slide_whistle.wav","null","audio-keyboard-response","295","161603","0.0-1.0-294.0","",""
"null","sound/msl/clock.wav","null","audio-keyboard-response","296","162152","0.0-1.0-295.0","",""
"null","sound/msl/frog.wav","null","audio-keyboard-response","297","162653","0.0-1.0-296.0","",""
"null","sound/msl/cow.wav","null","audio-keyboard-response","298","163162","0.0-1.0-297.0","",""
"null","sound/msl/goat.wav","null","audio-keyboard-response","299","163702","0.0-1.0-298.0","",""
"null","sound/msl/ding.wav","null","audio-keyboard-response","300","164202","0.0-1.0-299.0","",""
"null","sound/msl/boing.wav","null","audio-keyboard-response","301","164701","0.0-1.0-300.0","",""
"null","sound/msl/cat.wav","null","audio-keyboard-response","302","165203","0.0-1.0-301.0","",""
"null","sound/msl/organ.wav","null","audio-keyboard-response","303","165701","0.0-1.0-302.0","",""
"null","sound/msl/door_bell.wav","null","audio-keyboard-response","304","166203","0.0-1.0-303.0","",""
"null","sound/msl/bird.wav","null","audio-keyboard-response","305","166712","0.0-1.0-304.0","",""
"null","sound/msl/Water.wav","null","audio-keyboard-response","306","167222","0.0-1.0-305.0","",""
"null","sound/msl/door.wav","null","audio-keyboard-response","307","167722","0.0-1.0-306.0","",""
"null","sound/msl/duck.wav","null","audio-keyboard-response","308","168232","0.0-1.0-307.0","",""
"null","sound/msl/dog.wav","null","audio-keyboard-response","309","168733","0.0-1.0-308.0","",""
"null","sound/msl/slide_whistle.wav","null","audio-keyboard-response","310","169233","0.0-1.0-309.0","",""
"null","sound/msl/clock.wav","null","audio-keyboard-response","311","169782","0.0-1.0-310.0","",""
"null","sound/msl/frog.wav","null","audio-keyboard-response","312","170283","0.0-1.0-311.0","",""
"null","sound/msl/cow.wav","null","audio-keyboard-response","313","170792","0.0-1.0-312.0","",""
"null","sound/msl/goat.wav","null","audio-keyboard-response","314","171333","0.0-1.0-313.0","",""
"null","sound/msl/ding.wav","null","audio-keyboard-response","315","171842","0.0-1.0-314.0","",""
"null","sound/msl/boing.wav","null","audio-keyboard-response","316","172343","0.0-1.0-315.0","",""
"null","sound/msl/cat.wav","null","audio-keyboard-response","317","172842","0.0-1.0-316.0","",""
"null","sound/msl/organ.wav","null","audio-keyboard-response","318","173342","0.0-1.0-317.0","",""
"null","sound/msl/door_bell.wav","null","audio-keyboard-response","319","173842","0.0-1.0-318.0","",""
"null","sound/msl/bird.wav","null","audio-keyboard-response","320","174352","0.0-1.0-319.0","",""
"null","sound/msl/Water.wav","null","audio-keyboard-response","321","174863","0.0-1.0-320.0","",""
"null","sound/msl/slide_whistle.wav","null","audio-keyboard-response","322","175362","0.0-1.0-321.0","",""
"null","sound/msl/clock.wav","null","audio-keyboard-response","323","175912","0.0-1.0-322.0","",""
"null","sound/msl/frog.wav","null","audio-keyboard-response","324","176413","0.0-1.0-323.0","",""
"null","sound/msl/boing.wav","null","audio-keyboard-response","325","176913","0.0-1.0-324.0","",""
"null","sound/msl/cat.wav","null","audio-keyboard-response","326","177412","0.0-1.0-325.0","",""
"null","sound/msl/organ.wav","null","audio-keyboard-response","327","177913","0.0-1.0-326.0","",""
"null","sound/msl/door.wav","null","audio-keyboard-response","328","178412","0.0-1.0-327.0","",""
"null","sound/msl/duck.wav","null","audio-keyboard-response","329","178923","0.0-1.0-328.0","",""
"null","sound/msl/dog.wav","null","audio-keyboard-response","330","179433","0.0-1.0-329.0","",""
"null","sound/msl/cow.wav","null","audio-keyboard-response","331","179932","0.0-1.0-330.0","",""
"null","sound/msl/goat.wav","null","audio-keyboard-response","332","180472","0.0-1.0-331.0","",""
"null","sound/msl/ding.wav","null","audio-keyboard-response","333","180972","0.0-1.0-332.0","",""
"null","sound/msl/door_bell.wav","null","audio-keyboard-response","334","181482","0.0-1.0-333.0","",""
"null","sound/msl/bird.wav","null","audio-keyboard-response","335","181992","0.0-1.0-334.0","",""
"null","sound/msl/Water.wav","null","audio-keyboard-response","336","182502","0.0-1.0-335.0","",""
"null","sound/msl/door.wav","null","audio-keyboard-response","337","183002","0.0-1.0-336.0","",""
"null","sound/msl/duck.wav","null","audio-keyboard-response","338","183513","0.0-1.0-337.0","",""
"null","sound/msl/dog.wav","null","audio-keyboard-response","339","184012","0.0-1.0-338.0","",""
"null","sound/msl/slide_whistle.wav","null","audio-keyboard-response","340","184512","0.0-1.0-339.0","",""
"null","sound/msl/clock.wav","null","audio-keyboard-response","341","185063","0.0-1.0-340.0","",""
"null","sound/msl/frog.wav","null","audio-keyboard-response","342","185562","0.0-1.0-341.0","",""
"null","sound/msl/door_bell.wav","null","audio-keyboard-response","343","186072","0.0-1.0-342.0","",""
"null","sound/msl/bird.wav","null","audio-keyboard-response","344","186573","0.0-1.0-343.0","",""
"null","sound/msl/Water.wav","null","audio-keyboard-response","345","187082","0.0-1.0-344.0","",""
"null","sound/msl/slide_whistle.wav","null","audio-keyboard-response","346","187583","0.0-1.0-345.0","",""
"null","sound/msl/clock.wav","null","audio-keyboard-response","347","188132","0.0-1.0-346.0","",""
"null","sound/msl/frog.wav","null","audio-keyboard-response","348","188642","0.0-1.0-347.0","",""
"null","sound/msl/door.wav","null","audio-keyboard-response","349","189142","0.0-1.0-348.0","",""
"null","sound/msl/duck.wav","null","audio-keyboard-response","350","189642","0.0-1.0-349.0","",""
"null","sound/msl/dog.wav","null","audio-keyboard-response","351","190152","0.0-1.0-350.0","",""
"null","sound/msl/cow.wav","null","audio-keyboard-response","352","190653","0.0-1.0-351.0","",""
"null","sound/msl/goat.wav","null","audio-keyboard-response","353","191192","0.0-1.0-352.0","",""
"null","sound/msl/ding.wav","null","audio-keyboard-response","354","191692","0.0-1.0-353.0","",""
"null","sound/msl/door_bell.wav","null","audio-keyboard-response","355","192203","0.0-1.0-354.0","",""
"null","sound/msl/bird.wav","null","audio-keyboard-response","356","192712","0.0-1.0-355.0","",""
"null","sound/msl/Water.wav","null","audio-keyboard-response","357","193222","0.0-1.0-356.0","",""
"null","sound/msl/slide_whistle.wav","null","audio-keyboard-response","358","193722","0.0-1.0-357.0","",""
"null","sound/msl/clock.wav","null","audio-keyboard-response","359","194273","0.0-1.0-358.0","",""
"null","sound/msl/frog.wav","null","audio-keyboard-response","360","194772","0.0-1.0-359.0","",""
"23032","Instructions2-eng.png","49","image-keyboard-response","361","217805","0.0-2.0","",""
"null","sound/msl/door.wav","null","audio-keyboard-response","362","218303","0.0-3.0-0.0","",""
"null","sound/msl/bird.wav","null","audio-keyboard-response","363","218802","0.0-3.0-1.0","",""
"null","sound/msl/ding.wav","null","audio-keyboard-response","364","219313","0.0-3.0-2.0","",""
"null","sound/asl/silence.wav","null","audio-keyboard-response","365","219814","0.0-3.0-3.0","",""
"null","sound/msl/door_bell.wav","null","audio-keyboard-response","366","220323","0.0-3.0-4.0","",""
"null","sound/msl/bird.wav","null","audio-keyboard-response","367","220833","0.0-3.0-5.0","",""
"null","sound/msl/Water.wav","null","audio-keyboard-response","368","221343","0.0-3.0-6.0","",""
"861","sound/asl/silence.wav","50","audio-keyboard-response","369","222212","0.0-3.0-7.0","true",""
"null","sound/msl/door.wav","null","audio-keyboard-response","370","222712","0.0-4.0-0.0","",""
"null","sound/msl/bird.wav","null","audio-keyboard-response","371","223213","0.0-4.0-1.0","",""
"null","sound/msl/ding.wav","null","audio-keyboard-response","372","223723","0.0-4.0-2.0","",""
"null","sound/asl/silence.wav","null","audio-keyboard-response","373","224225","0.0-4.0-3.0","",""
"null","sound/msl/slide_whistle.wav","null","audio-keyboard-response","374","224723","0.0-4.0-4.0","",""
"null","sound/msl/clock.wav","null","audio-keyboard-response","375","225271","0.0-4.0-5.0","",""
"null","sound/msl/frog.wav","null","audio-keyboard-response","376","225772","0.0-4.0-6.0","",""
"1648","sound/asl/silence.wav","50","audio-keyboard-response","377","227432","0.0-4.0-7.0","true",""
"null","sound/msl/slide_whistle.wav","null","audio-keyboard-response","378","227932","0.0-5.0-0.0","",""
"null","sound/msl/cat.wav","null","audio-keyboard-response","379","228432","0.0-5.0-1.0","",""
"null","sound/msl/dog.wav","null","audio-keyboard-response","380","228932","0.0-5.0-2.0","",""
"null","sound/asl/silence.wav","null","audio-keyboard-response","381","229435","0.0-5.0-3.0","",""
"null","sound/msl/slide_whistle.wav","null","audio-keyboard-response","382","229932","0.0-5.0-4.0","",""
"null","sound/msl/clock.wav","null","audio-keyboard-response","383","230482","0.0-5.0-5.0","",""
"null","sound/msl/frog.wav","null","audio-keyboard-response","384","230991","0.0-5.0-6.0","",""
"941","sound/asl/silence.wav","50","audio-keyboard-response","385","231935","0.0-5.0-7.0","true",""
"null","sound/msl/boing.wav","null","audio-keyboard-response","386","232433","0.0-6.0-0.0","",""
"null","sound/msl/duck.wav","null","audio-keyboard-response","387","232933","0.0-6.0-1.0","",""
"null","sound/msl/Water.wav","null","audio-keyboard-response","388","233442","0.0-6.0-2.0","",""
"null","sound/asl/silence.wav","null","audio-keyboard-response","389","233943","0.0-6.0-3.0","",""
"null","sound/msl/door.wav","null","audio-keyboard-response","390","234442","0.0-6.0-4.0","",""
"null","sound/msl/duck.wav","null","audio-keyboard-response","391","234952","0.0-6.0-5.0","",""
"null","sound/msl/dog.wav","null","audio-keyboard-response","392","235452","0.0-6.0-6.0","",""
"768","sound/asl/silence.wav","49","audio-keyboard-response","393","236229","0.0-6.0-7.0","false",""
"null","sound/msl/cow.wav","null","audio-keyboard-response","394","236721","0.0-7.0-0.0","",""
"null","sound/msl/goat.wav","null","audio-keyboard-response","395","237262","0.0-7.0-1.0","",""
"null","sound/msl/ding.wav","null","audio-keyboard-response","396","237762","0.0-7.0-2.0","",""
"null","sound/asl/silence.wav","null","audio-keyboard-response","397","238264","0.0-7.0-3.0","",""
"null","sound/msl/door_bell.wav","null","audio-keyboard-response","398","238762","0.0-7.0-4.0","",""
"null","sound/msl/goat.wav","null","audio-keyboard-response","399","239303","0.0-7.0-5.0","",""
"null","sound/msl/frog.wav","null","audio-keyboard-response","400","239802","0.0-7.0-6.0","",""
"269","sound/asl/silence.wav","49","audio-keyboard-response","401","240076","0.0-7.0-7.0","true",""
"null","sound/msl/boing.wav","null","audio-keyboard-response","402","240573","0.0-8.0-0.0","",""
"null","sound/msl/cat.wav","null","audio-keyboard-response","403","241072","0.0-8.0-1.0","",""
"null","sound/msl/organ.wav","null","audio-keyboard-response","404","241573","0.0-8.0-2.0","",""
"null","sound/asl/silence.wav","null","audio-keyboard-response","405","242073","0.0-8.0-3.0","",""
"null","sound/msl/door.wav","null","audio-keyboard-response","406","242572","0.0-8.0-4.0","",""
"null","sound/msl/bird.wav","null","audio-keyboard-response","407","243082","0.0-8.0-5.0","",""
"null","sound/msl/ding.wav","null","audio-keyboard-response","408","243592","0.0-8.0-6.0","",""
"269","sound/asl/silence.wav","49","audio-keyboard-response","409","243868","0.0-8.0-7.0","true",""
"null","sound/msl/door_bell.wav","null","audio-keyboard-response","410","244363","0.0-9.0-0.0","",""
"null","sound/msl/bird.wav","null","audio-keyboard-response","411","244872","0.0-9.0-1.0","",""
"null","sound/msl/Water.wav","null","audio-keyboard-response","412","245381","0.0-9.0-2.0","",""
"null","sound/asl/silence.wav","null","audio-keyboard-response","413","245882","0.0-9.0-3.0","",""
"null","sound/msl/door_bell.wav","null","audio-keyboard-response","414","246392","0.0-9.0-4.0","",""
"null","sound/msl/goat.wav","null","audio-keyboard-response","415","246932","0.0-9.0-5.0","",""
"null","sound/msl/frog.wav","null","audio-keyboard-response","416","247442","0.0-9.0-6.0","",""
"1560","sound/asl/silence.wav","50","audio-keyboard-response","417","249005","0.0-9.0-7.0","false",""
"null","sound/msl/cow.wav","null","audio-keyboard-response","418","249512","0.0-10.0-0.0","",""
"null","sound/msl/clock.wav","null","audio-keyboard-response","419","250062","0.0-10.0-1.0","",""
"null","sound/msl/organ.wav","null","audio-keyboard-response","420","250562","0.0-10.0-2.0","",""
"null","sound/asl/silence.wav","null","audio-keyboard-response","421","251064","0.0-10.0-3.0","",""
"null","sound/msl/boing.wav","null","audio-keyboard-response","422","251562","0.0-10.0-4.0","",""
"null","sound/msl/cat.wav","null","audio-keyboard-response","423","252061","0.0-10.0-5.0","",""
"null","sound/msl/organ.wav","null","audio-keyboard-response","424","252562","0.0-10.0-6.0","",""
"731","sound/asl/silence.wav","50","audio-keyboard-response","425","253292","0.0-10.0-7.0","true",""
"null","sound/msl/boing.wav","null","audio-keyboard-response","426","253791","0.0-11.0-0.0","",""
"null","sound/msl/duck.wav","null","audio-keyboard-response","427","254292","0.0-11.0-1.0","",""
"null","sound/msl/Water.wav","null","audio-keyboard-response","428","254802","0.0-11.0-2.0","",""
"null","sound/asl/silence.wav","null","audio-keyboard-response","429","255303","0.0-11.0-3.0","",""
"null","sound/msl/door_bell.wav","null","audio-keyboard-response","430","255802","0.0-11.0-4.0","",""
"null","sound/msl/bird.wav","null","audio-keyboard-response","431","256313","0.0-11.0-5.0","",""
"null","sound/msl/Water.wav","null","audio-keyboard-response","432","256822","0.0-11.0-6.0","",""
"421","sound/asl/silence.wav","50","audio-keyboard-response","433","257247","0.0-11.0-7.0","true",""
"null","sound/msl/door.wav","null","audio-keyboard-response","434","257742","0.0-12.0-0.0","",""
"null","sound/msl/duck.wav","null","audio-keyboard-response","435","258242","0.0-12.0-1.0","",""
"null","sound/msl/dog.wav","null","audio-keyboard-response","436","258751","0.0-12.0-2.0","",""
"null","sound/asl/silence.wav","null","audio-keyboard-response","437","259253","0.0-12.0-3.0","",""
"null","sound/msl/cow.wav","null","audio-keyboard-response","438","259762","0.0-12.0-4.0","",""
"null","sound/msl/clock.wav","null","audio-keyboard-response","439","260312","0.0-12.0-5.0","",""
"null","sound/msl/organ.wav","null","audio-keyboard-response","440","260812","0.0-12.0-6.0","",""
"2579","sound/asl/silence.wav","50","audio-keyboard-response","441","263395","0.0-12.0-7.0","false",""
"null","sound/msl/boing.wav","null","audio-keyboard-response","442","263891","0.0-13.0-0.0","",""
"null","sound/msl/cat.wav","null","audio-keyboard-response","443","264392","0.0-13.0-1.0","",""
"null","sound/msl/organ.wav","null","audio-keyboard-response","444","264892","0.0-13.0-2.0","",""
"null","sound/asl/silence.wav","null","audio-keyboard-response","445","265394","0.0-13.0-3.0","",""
"null","sound/msl/slide_whistle.wav","null","audio-keyboard-response","446","265893","0.0-13.0-4.0","",""
"null","sound/msl/cat.wav","null","audio-keyboard-response","447","266393","0.0-13.0-5.0","",""
"null","sound/msl/dog.wav","null","audio-keyboard-response","448","266892","0.0-13.0-6.0","",""
"349","sound/asl/silence.wav","49","audio-keyboard-response","449","267247","0.0-13.0-7.0","true",""
"null","sound/msl/boing.wav","null","audio-keyboard-response","450","267742","0.0-14.0-0.0","",""
"null","sound/msl/duck.wav","null","audio-keyboard-response","451","268242","0.0-14.0-1.0","",""
"null","sound/msl/Water.wav","null","audio-keyboard-response","452","268752","0.0-14.0-2.0","",""
"null","sound/asl/silence.wav","null","audio-keyboard-response","453","269252","0.0-14.0-3.0","",""
"null","sound/msl/slide_whistle.wav","null","audio-keyboard-response","454","269752","0.0-14.0-4.0","",""
"null","sound/msl/clock.wav","null","audio-keyboard-response","455","270303","0.0-14.0-5.0","",""
"null","sound/msl/frog.wav","null","audio-keyboard-response","456","270802","0.0-14.0-6.0","",""
"411","sound/asl/silence.wav","50","audio-keyboard-response","457","271218","0.0-14.0-7.0","true",""
"null","sound/msl/cow.wav","null","audio-keyboard-response","458","271722","0.0-15.0-0.0","",""
"null","sound/msl/goat.wav","null","audio-keyboard-response","459","272263","0.0-15.0-1.0","",""
"null","sound/msl/ding.wav","null","audio-keyboard-response","460","272762","0.0-15.0-2.0","",""
"null","sound/asl/silence.wav","null","audio-keyboard-response","461","273264","0.0-15.0-3.0","",""
"null","sound/msl/cow.wav","null","audio-keyboard-response","462","273762","0.0-15.0-4.0","",""
"null","sound/msl/clock.wav","null","audio-keyboard-response","463","274312","0.0-15.0-5.0","",""
"null","sound/msl/organ.wav","null","audio-keyboard-response","464","274812","0.0-15.0-6.0","",""
"1240","sound/asl/silence.wav","50","audio-keyboard-response","465","276058","0.0-15.0-7.0","false",""
"null","sound/msl/door_bell.wav","null","audio-keyboard-response","466","276562","0.0-16.0-0.0","",""
"null","sound/msl/bird.wav","null","audio-keyboard-response","467","277072","0.0-16.0-1.0","",""
"null","sound/msl/Water.wav","null","audio-keyboard-response","468","277582","0.0-16.0-2.0","",""
"null","sound/asl/silence.wav","null","audio-keyboard-response","469","278082","0.0-16.0-3.0","",""
"null","sound/msl/cow.wav","null","audio-keyboard-response","470","278592","0.0-16.0-4.0","",""
"null","sound/msl/clock.wav","null","audio-keyboard-response","471","279142","0.0-16.0-5.0","",""
"null","sound/msl/organ.wav","null","audio-keyboard-response","472","279641","0.0-16.0-6.0","",""
"451","sound/asl/silence.wav","49","audio-keyboard-response","473","280093","0.0-16.0-7.0","true",""
"null","sound/msl/door.wav","null","audio-keyboard-response","474","280593","0.0-17.0-0.0","",""
"null","sound/msl/bird.wav","null","audio-keyboard-response","475","281092","0.0-17.0-1.0","",""
"null","sound/msl/ding.wav","null","audio-keyboard-response","476","281603","0.0-17.0-2.0","",""
"null","sound/asl/silence.wav","null","audio-keyboard-response","477","282103","0.0-17.0-3.0","",""
"null","sound/msl/door.wav","null","audio-keyboard-response","478","282602","0.0-17.0-4.0","",""
"null","sound/msl/duck.wav","null","audio-keyboard-response","479","283112","0.0-17.0-5.0","",""
"null","sound/msl/dog.wav","null","audio-keyboard-response","480","283612","0.0-17.0-6.0","",""
"1739","sound/asl/silence.wav","50","audio-keyboard-response","481","285362","0.0-17.0-7.0","true",""
"null","sound/msl/slide_whistle.wav","null","audio-keyboard-response","482","285862","0.0-18.0-0.0","",""
"null","sound/msl/cat.wav","null","audio-keyboard-response","483","286362","0.0-18.0-1.0","",""
"null","sound/msl/dog.wav","null","audio-keyboard-response","484","286871","0.0-18.0-2.0","",""
"null","sound/asl/silence.wav","null","audio-keyboard-response","485","287374","0.0-18.0-3.0","",""
"null","sound/msl/door_bell.wav","null","audio-keyboard-response","486","287881","0.0-18.0-4.0","",""
"null","sound/msl/bird.wav","null","audio-keyboard-response","487","288392","0.0-18.0-5.0","",""
"null","sound/msl/Water.wav","null","audio-keyboard-response","488","288903","0.0-18.0-6.0","",""
"1531","sound/asl/silence.wav","49","audio-keyboard-response","489","290434","0.0-18.0-7.0","false",""
"null","sound/msl/door_bell.wav","null","audio-keyboard-response","490","290932","0.0-19.0-0.0","",""
"null","sound/msl/goat.wav","null","audio-keyboard-response","491","291472","0.0-19.0-1.0","",""
"null","sound/msl/frog.wav","null","audio-keyboard-response","492","291972","0.0-19.0-2.0","",""
"null","sound/asl/silence.wav","null","audio-keyboard-response","493","292472","0.0-19.0-3.0","",""
"null","sound/msl/door.wav","null","audio-keyboard-response","494","292972","0.0-19.0-4.0","",""
"null","sound/msl/duck.wav","null","audio-keyboard-response","495","293481","0.0-19.0-5.0","",""
"null","sound/msl/dog.wav","null","audio-keyboard-response","496","293993","0.0-19.0-6.0","",""
"560","sound/asl/silence.wav","50","audio-keyboard-response","497","294553","0.0-19.0-7.0","true",""
"null","sound/msl/cow.wav","null","audio-keyboard-response","498","295051","0.0-20.0-0.0","",""
"null","sound/msl/goat.wav","null","audio-keyboard-response","499","295592","0.0-20.0-1.0","",""
"null","sound/msl/ding.wav","null","audio-keyboard-response","500","296093","0.0-20.0-2.0","",""
"null","sound/asl/silence.wav","null","audio-keyboard-response","501","296594","0.0-20.0-3.0","",""
"null","sound/msl/boing.wav","null","audio-keyboard-response","502","297092","0.0-20.0-4.0","",""
"null","sound/msl/duck.wav","null","audio-keyboard-response","503","297601","0.0-20.0-5.0","",""
"null","sound/msl/Water.wav","null","audio-keyboard-response","504","298111","0.0-20.0-6.0","",""
"360","sound/asl/silence.wav","50","audio-keyboard-response","505","298474","0.0-20.0-7.0","false",""
"null","sound/msl/slide_whistle.wav","null","audio-keyboard-response","506","298972","0.0-21.0-0.0","",""
"null","sound/msl/clock.wav","null","audio-keyboard-response","507","299523","0.0-21.0-1.0","",""
"null","sound/msl/frog.wav","null","audio-keyboard-response","508","300032","0.0-21.0-2.0","",""
"null","sound/asl/silence.wav","null","audio-keyboard-response","509","300533","0.0-21.0-3.0","",""
"null","sound/msl/door_bell.wav","null","audio-keyboard-response","510","301043","0.0-21.0-4.0","",""
"null","sound/msl/goat.wav","null","audio-keyboard-response","511","301582","0.0-21.0-5.0","",""
"null","sound/msl/frog.wav","null","audio-keyboard-response","512","302082","0.0-21.0-6.0","",""
"619","sound/asl/silence.wav","49","audio-keyboard-response","513","302703","0.0-21.0-7.0","true",""
"null","sound/msl/slide_whistle.wav","null","audio-keyboard-response","514","303202","0.0-22.0-0.0","",""
"null","sound/msl/clock.wav","null","audio-keyboard-response","515","303752","0.0-22.0-1.0","",""
"null","sound/msl/frog.wav","null","audio-keyboard-response","516","304252","0.0-22.0-2.0","",""
"null","sound/asl/silence.wav","null","audio-keyboard-response","517","304754","0.0-22.0-3.0","",""
"null","sound/msl/cow.wav","null","audio-keyboard-response","518","305252","0.0-22.0-4.0","",""
"null","sound/msl/clock.wav","null","audio-keyboard-response","519","305803","0.0-22.0-5.0","",""
"null","sound/msl/organ.wav","null","audio-keyboard-response","520","306303","0.0-22.0-6.0","",""
"1891","sound/asl/silence.wav","49","audio-keyboard-response","521","308194","0.0-22.0-7.0","true",""
"null","sound/msl/boing.wav","null","audio-keyboard-response","522","308693","0.0-23.0-0.0","",""
"null","sound/msl/cat.wav","null","audio-keyboard-response","523","309193","0.0-23.0-1.0","",""
"null","sound/msl/organ.wav","null","audio-keyboard-response","524","309692","0.0-23.0-2.0","",""
"null","sound/asl/silence.wav","null","audio-keyboard-response","525","310195","0.0-23.0-3.0","",""
"null","sound/msl/boing.wav","null","audio-keyboard-response","526","310692","0.0-23.0-4.0","",""
"null","sound/msl/duck.wav","null","audio-keyboard-response","527","311201","0.0-23.0-5.0","",""
"null","sound/msl/Water.wav","null","audio-keyboard-response","528","311713","0.0-23.0-6.0","",""
"549","sound/asl/silence.wav","49","audio-keyboard-response","529","312263","0.0-23.0-7.0","true",""
"null","sound/msl/slide_whistle.wav","null","audio-keyboard-response","530","312761","0.0-24.0-0.0","",""
"null","sound/msl/cat.wav","null","audio-keyboard-response","531","313261","0.0-24.0-1.0","",""
"null","sound/msl/dog.wav","null","audio-keyboard-response","532","313762","0.0-24.0-2.0","",""
"null","sound/asl/silence.wav","null","audio-keyboard-response","533","314263","0.0-24.0-3.0","",""
"null","sound/msl/cow.wav","null","audio-keyboard-response","534","314761","0.0-24.0-4.0","",""
"null","sound/msl/goat.wav","null","audio-keyboard-response","535","315301","0.0-24.0-5.0","",""
"null","sound/msl/ding.wav","null","audio-keyboard-response","536","315803","0.0-24.0-6.0","",""
"3899","sound/asl/silence.wav","49","audio-keyboard-response","537","319704","0.0-24.0-7.0","false",""
"null","sound/msl/door.wav","null","audio-keyboard-response","538","320202","0.0-25.0-0.0","",""
"null","sound/msl/duck.wav","null","audio-keyboard-response","539","320712","0.0-25.0-1.0","",""
"null","sound/msl/dog.wav","null","audio-keyboard-response","540","321212","0.0-25.0-2.0","",""
"null","sound/asl/silence.wav","null","audio-keyboard-response","541","321715","0.0-25.0-3.0","",""
"null","sound/msl/slide_whistle.wav","null","audio-keyboard-response","542","322213","0.0-25.0-4.0","",""
"null","sound/msl/cat.wav","null","audio-keyboard-response","543","322712","0.0-25.0-5.0","",""
"null","sound/msl/dog.wav","null","audio-keyboard-response","544","323211","0.0-25.0-6.0","",""
"419","sound/asl/silence.wav","49","audio-keyboard-response","545","323647","0.0-25.0-7.0","true",""
"null","sound/msl/door_bell.wav","null","audio-keyboard-response","546","324131","0.0-26.0-0.0","",""
"null","sound/msl/goat.wav","null","audio-keyboard-response","547","324672","0.0-26.0-1.0","",""
"null","sound/msl/frog.wav","null","audio-keyboard-response","548","325172","0.0-26.0-2.0","",""
"null","sound/asl/silence.wav","null","audio-keyboard-response","549","325673","0.0-26.0-3.0","",""
"null","sound/msl/boing.wav","null","audio-keyboard-response","550","326171","0.0-26.0-4.0","",""
"null","sound/msl/cat.wav","null","audio-keyboard-response","551","326673","0.0-26.0-5.0","",""
"null","sound/msl/organ.wav","null","audio-keyboard-response","552","327171","0.0-26.0-6.0","",""
"3320","sound/asl/silence.wav","50","audio-keyboard-response","553","330498","0.0-26.0-7.0","true",""
"null","sound/msl/door.wav","null","audio-keyboard-response","554","330992","0.0-27.0-0.0","",""
"null","sound/msl/bird.wav","null","audio-keyboard-response","555","331492","0.0-27.0-1.0","",""
"null","sound/msl/ding.wav","null","audio-keyboard-response","556","332001","0.0-27.0-2.0","",""
"null","sound/asl/silence.wav","null","audio-keyboard-response","557","332504","0.0-27.0-3.0","",""
"null","sound/msl/cow.wav","null","audio-keyboard-response","558","333002","0.0-27.0-4.0","",""
"null","sound/msl/goat.wav","null","audio-keyboard-response","559","333542","0.0-27.0-5.0","",""
"null","sound/msl/ding.wav","null","audio-keyboard-response","560","334042","0.0-27.0-6.0","",""
"891","sound/asl/silence.wav","49","audio-keyboard-response","561","334934","0.0-27.0-7.0","false",""
"5158","","","instructions","562","340093","0.0-28.0","","[{""page_index"":0,""viewing_time"":5158}]"
