"rt","stimulus","key_press","trial_type","trial_index","time_elapsed","internal_node_id","correct","view_history"
"11071","alien.jpg","49","image-keyboard-response","0","11075","0.0-0.0","",""
"null","sound/msl/ding.wav","null","audio-keyboard-response","1","11590","0.0-1.0-0.0","",""
"null","sound/msl/clock.wav","null","audio-keyboard-response","2","12148","0.0-1.0-1.0","",""
"null","sound/msl/goat.wav","null","audio-keyboard-response","3","12687","0.0-1.0-2.0","",""
"null","sound/msl/boing.wav","null","audio-keyboard-response","4","13197","0.0-1.0-3.0","",""
"null","sound/msl/door.wav","null","audio-keyboard-response","5","13708","0.0-1.0-4.0","",""
"null","sound/msl/slide_whistle.wav","null","audio-keyboard-response","6","14218","0.0-1.0-5.0","",""
"null","sound/msl/organ.wav","null","audio-keyboard-response","7","14727","0.0-1.0-6.0","",""
"null","sound/msl/bird.wav","null","audio-keyboard-response","8","15248","0.0-1.0-7.0","",""
"null","sound/msl/Water.wav","null","audio-keyboard-response","9","15767","0.0-1.0-8.0","",""
"null","sound/msl/frog.wav","null","audio-keyboard-response","10","16278","0.0-1.0-9.0","",""
"null","sound/msl/dog.wav","null","audio-keyboard-response","11","16798","0.0-1.0-10.0","",""
"null","sound/msl/cat.wav","null","audio-keyboard-response","12","17308","0.0-1.0-11.0","",""
"null","sound/msl/boing.wav","null","audio-keyboard-response","13","17818","0.0-1.0-12.0","",""
"null","sound/msl/door.wav","null","audio-keyboard-response","14","18328","0.0-1.0-13.0","",""
"null","sound/msl/slide_whistle.wav","null","audio-keyboard-response","15","18839","0.0-1.0-14.0","",""
"null","sound/msl/ding.wav","null","audio-keyboard-response","16","19358","0.0-1.0-15.0","",""
"null","sound/msl/clock.wav","null","audio-keyboard-response","17","19918","0.0-1.0-16.0","",""
"null","sound/msl/goat.wav","null","audio-keyboard-response","18","20458","0.0-1.0-17.0","",""
"null","sound/msl/door_bell.wav","null","audio-keyboard-response","19","20978","0.0-1.0-18.0","",""
"null","sound/msl/cow.wav","null","audio-keyboard-response","20","21489","0.0-1.0-19.0","",""
"null","sound/msl/duck.wav","null","audio-keyboard-response","21","22009","0.0-1.0-20.0","",""
"null","sound/msl/frog.wav","null","audio-keyboard-response","22","22528","0.0-1.0-21.0","",""
"null","sound/msl/dog.wav","null","audio-keyboard-response","23","23038","0.0-1.0-22.0","",""
"null","sound/msl/cat.wav","null","audio-keyboard-response","24","23549","0.0-1.0-23.0","",""
"null","sound/msl/organ.wav","null","audio-keyboard-response","25","24059","0.0-1.0-24.0","",""
"null","sound/msl/bird.wav","null","audio-keyboard-response","26","24568","0.0-1.0-25.0","",""
"null","sound/msl/Water.wav","null","audio-keyboard-response","27","25088","0.0-1.0-26.0","",""
"null","sound/msl/ding.wav","null","audio-keyboard-response","28","25599","0.0-1.0-27.0","",""
"null","sound/msl/clock.wav","null","audio-keyboard-response","29","26159","0.0-1.0-28.0","",""
"null","sound/msl/goat.wav","null","audio-keyboard-response","30","26698","0.0-1.0-29.0","",""
"null","sound/msl/boing.wav","null","audio-keyboard-response","31","27209","0.0-1.0-30.0","",""
"null","sound/msl/door.wav","null","audio-keyboard-response","32","27719","0.0-1.0-31.0","",""
"null","sound/msl/slide_whistle.wav","null","audio-keyboard-response","33","28229","0.0-1.0-32.0","",""
"null","sound/msl/door_bell.wav","null","audio-keyboard-response","34","28751","0.0-1.0-33.0","",""
"null","sound/msl/cow.wav","null","audio-keyboard-response","35","29259","0.0-1.0-34.0","",""
"null","sound/msl/duck.wav","null","audio-keyboard-response","36","29779","0.0-1.0-35.0","",""
"null","sound/msl/organ.wav","null","audio-keyboard-response","37","30289","0.0-1.0-36.0","",""
"null","sound/msl/bird.wav","null","audio-keyboard-response","38","30810","0.0-1.0-37.0","",""
"null","sound/msl/Water.wav","null","audio-keyboard-response","39","31329","0.0-1.0-38.0","",""
"null","sound/msl/frog.wav","null","audio-keyboard-response","40","31850","0.0-1.0-39.0","",""
"null","sound/msl/dog.wav","null","audio-keyboard-response","41","32360","0.0-1.0-40.0","",""
"null","sound/msl/cat.wav","null","audio-keyboard-response","42","32870","0.0-1.0-41.0","",""
"null","sound/msl/door_bell.wav","null","audio-keyboard-response","43","33390","0.0-1.0-42.0","",""
"null","sound/msl/cow.wav","null","audio-keyboard-response","44","33910","0.0-1.0-43.0","",""
"null","sound/msl/duck.wav","null","audio-keyboard-response","45","34430","0.0-1.0-44.0","",""
"null","sound/msl/boing.wav","null","audio-keyboard-response","46","34940","0.0-1.0-45.0","",""
"null","sound/msl/door.wav","null","audio-keyboard-response","47","35450","0.0-1.0-46.0","",""
"null","sound/msl/slide_whistle.wav","null","audio-keyboard-response","48","35960","0.0-1.0-47.0","",""
"null","sound/msl/organ.wav","null","audio-keyboard-response","49","36470","0.0-1.0-48.0","",""
"null","sound/msl/bird.wav","null","audio-keyboard-response","50","36990","0.0-1.0-49.0","",""
"null","sound/msl/Water.wav","null","audio-keyboard-response","51","37510","0.0-1.0-50.0","",""
"null","sound/msl/ding.wav","null","audio-keyboard-response","52","38020","0.0-1.0-51.0","",""
"null","sound/msl/clock.wav","null","audio-keyboard-response","53","38581","0.0-1.0-52.0","",""
"null","sound/msl/goat.wav","null","audio-keyboard-response","54","39120","0.0-1.0-53.0","",""
"null","sound/msl/boing.wav","null","audio-keyboard-response","55","39630","0.0-1.0-54.0","",""
"null","sound/msl/door.wav","null","audio-keyboard-response","56","40141","0.0-1.0-55.0","",""
"null","sound/msl/slide_whistle.wav","null","audio-keyboard-response","57","40651","0.0-1.0-56.0","",""
"null","sound/msl/organ.wav","null","audio-keyboard-response","58","41160","0.0-1.0-57.0","",""
"null","sound/msl/bird.wav","null","audio-keyboard-response","59","41681","0.0-1.0-58.0","",""
"null","sound/msl/Water.wav","null","audio-keyboard-response","60","42201","0.0-1.0-59.0","",""
"null","sound/msl/frog.wav","null","audio-keyboard-response","61","42711","0.0-1.0-60.0","",""
"null","sound/msl/dog.wav","null","audio-keyboard-response","62","43231","0.0-1.0-61.0","",""
"null","sound/msl/cat.wav","null","audio-keyboard-response","63","43742","0.0-1.0-62.0","",""
"null","sound/msl/door_bell.wav","null","audio-keyboard-response","64","44262","0.0-1.0-63.0","",""
"null","sound/msl/cow.wav","null","audio-keyboard-response","65","44782","0.0-1.0-64.0","",""
"null","sound/msl/duck.wav","null","audio-keyboard-response","66","45302","0.0-1.0-65.0","",""
"null","sound/msl/boing.wav","null","audio-keyboard-response","67","45807","0.0-1.0-66.0","",""
"null","sound/msl/door.wav","null","audio-keyboard-response","68","46316","0.0-1.0-67.0","",""
"null","sound/msl/slide_whistle.wav","null","audio-keyboard-response","69","46826","0.0-1.0-68.0","",""
"null","sound/msl/ding.wav","null","audio-keyboard-response","70","47337","0.0-1.0-69.0","",""
"null","sound/msl/clock.wav","null","audio-keyboard-response","71","47896","0.0-1.0-70.0","",""
"null","sound/msl/goat.wav","null","audio-keyboard-response","72","48436","0.0-1.0-71.0","",""
"null","sound/msl/organ.wav","null","audio-keyboard-response","73","48947","0.0-1.0-72.0","",""
"null","sound/msl/bird.wav","null","audio-keyboard-response","74","49467","0.0-1.0-73.0","",""
"null","sound/msl/Water.wav","null","audio-keyboard-response","75","49987","0.0-1.0-74.0","",""
"null","sound/msl/frog.wav","null","audio-keyboard-response","76","50507","0.0-1.0-75.0","",""
"null","sound/msl/dog.wav","null","audio-keyboard-response","77","51017","0.0-1.0-76.0","",""
"null","sound/msl/cat.wav","null","audio-keyboard-response","78","51527","0.0-1.0-77.0","",""
"null","sound/msl/organ.wav","null","audio-keyboard-response","79","52037","0.0-1.0-78.0","",""
"null","sound/msl/bird.wav","null","audio-keyboard-response","80","52547","0.0-1.0-79.0","",""
"null","sound/msl/Water.wav","null","audio-keyboard-response","81","53067","0.0-1.0-80.0","",""
"null","sound/msl/door_bell.wav","null","audio-keyboard-response","82","53577","0.0-1.0-81.0","",""
"null","sound/msl/cow.wav","null","audio-keyboard-response","83","54097","0.0-1.0-82.0","",""
"null","sound/msl/duck.wav","null","audio-keyboard-response","84","54618","0.0-1.0-83.0","",""
"null","sound/msl/ding.wav","null","audio-keyboard-response","85","55127","0.0-1.0-84.0","",""
"null","sound/msl/clock.wav","null","audio-keyboard-response","86","55688","0.0-1.0-85.0","",""
"null","sound/msl/goat.wav","null","audio-keyboard-response","87","56228","0.0-1.0-86.0","",""
"null","sound/msl/boing.wav","null","audio-keyboard-response","88","56738","0.0-1.0-87.0","",""
"null","sound/msl/door.wav","null","audio-keyboard-response","89","57248","0.0-1.0-88.0","",""
"null","sound/msl/slide_whistle.wav","null","audio-keyboard-response","90","57758","0.0-1.0-89.0","",""
"null","sound/msl/door_bell.wav","null","audio-keyboard-response","91","58278","0.0-1.0-90.0","",""
"null","sound/msl/cow.wav","null","audio-keyboard-response","92","58788","0.0-1.0-91.0","",""
"null","sound/msl/duck.wav","null","audio-keyboard-response","93","59308","0.0-1.0-92.0","",""
"null","sound/msl/frog.wav","null","audio-keyboard-response","94","59829","0.0-1.0-93.0","",""
"null","sound/msl/dog.wav","null","audio-keyboard-response","95","60338","0.0-1.0-94.0","",""
"null","sound/msl/cat.wav","null","audio-keyboard-response","96","60848","0.0-1.0-95.0","",""
"null","sound/msl/organ.wav","null","audio-keyboard-response","97","61358","0.0-1.0-96.0","",""
"null","sound/msl/bird.wav","null","audio-keyboard-response","98","61868","0.0-1.0-97.0","",""
"null","sound/msl/Water.wav","null","audio-keyboard-response","99","62389","0.0-1.0-98.0","",""
"null","sound/msl/boing.wav","null","audio-keyboard-response","100","62898","0.0-1.0-99.0","",""
"null","sound/msl/door.wav","null","audio-keyboard-response","101","63409","0.0-1.0-100.0","",""
"null","sound/msl/slide_whistle.wav","null","audio-keyboard-response","102","63918","0.0-1.0-101.0","",""
"null","sound/msl/door_bell.wav","null","audio-keyboard-response","103","64431","0.0-1.0-102.0","",""
"null","sound/msl/cow.wav","null","audio-keyboard-response","104","64949","0.0-1.0-103.0","",""
"null","sound/msl/duck.wav","null","audio-keyboard-response","105","65459","0.0-1.0-104.0","",""
"null","sound/msl/ding.wav","null","audio-keyboard-response","106","65979","0.0-1.0-105.0","",""
"null","sound/msl/clock.wav","null","audio-keyboard-response","107","66539","0.0-1.0-106.0","",""
"null","sound/msl/goat.wav","null","audio-keyboard-response","108","67079","0.0-1.0-107.0","",""
"null","sound/msl/boing.wav","null","audio-keyboard-response","109","67589","0.0-1.0-108.0","",""
"null","sound/msl/door.wav","null","audio-keyboard-response","110","68099","0.0-1.0-109.0","",""
"null","sound/msl/slide_whistle.wav","null","audio-keyboard-response","111","68610","0.0-1.0-110.0","",""
"null","sound/msl/frog.wav","null","audio-keyboard-response","112","69120","0.0-1.0-111.0","",""
"null","sound/msl/dog.wav","null","audio-keyboard-response","113","69640","0.0-1.0-112.0","",""
"null","sound/msl/cat.wav","null","audio-keyboard-response","114","70150","0.0-1.0-113.0","",""
"null","sound/msl/door_bell.wav","null","audio-keyboard-response","115","70669","0.0-1.0-114.0","",""
"null","sound/msl/cow.wav","null","audio-keyboard-response","116","71190","0.0-1.0-115.0","",""
"null","sound/msl/duck.wav","null","audio-keyboard-response","117","71709","0.0-1.0-116.0","",""
"null","sound/msl/organ.wav","null","audio-keyboard-response","118","72220","0.0-1.0-117.0","",""
"null","sound/msl/bird.wav","null","audio-keyboard-response","119","72739","0.0-1.0-118.0","",""
"null","sound/msl/Water.wav","null","audio-keyboard-response","120","73260","0.0-1.0-119.0","",""
"null","sound/msl/ding.wav","null","audio-keyboard-response","121","73771","0.0-1.0-120.0","",""
"null","sound/msl/clock.wav","null","audio-keyboard-response","122","74330","0.0-1.0-121.0","",""
"null","sound/msl/goat.wav","null","audio-keyboard-response","123","74870","0.0-1.0-122.0","",""
"null","sound/msl/boing.wav","null","audio-keyboard-response","124","75380","0.0-1.0-123.0","",""
"null","sound/msl/door.wav","null","audio-keyboard-response","125","75891","0.0-1.0-124.0","",""
"null","sound/msl/slide_whistle.wav","null","audio-keyboard-response","126","76400","0.0-1.0-125.0","",""
"null","sound/msl/door_bell.wav","null","audio-keyboard-response","127","76920","0.0-1.0-126.0","",""
"null","sound/msl/cow.wav","null","audio-keyboard-response","128","77431","0.0-1.0-127.0","",""
"null","sound/msl/duck.wav","null","audio-keyboard-response","129","77951","0.0-1.0-128.0","",""
"null","sound/msl/frog.wav","null","audio-keyboard-response","130","78470","0.0-1.0-129.0","",""
"null","sound/msl/dog.wav","null","audio-keyboard-response","131","78981","0.0-1.0-130.0","",""
"null","sound/msl/cat.wav","null","audio-keyboard-response","132","79491","0.0-1.0-131.0","",""
"null","sound/msl/boing.wav","null","audio-keyboard-response","133","80000","0.0-1.0-132.0","",""
"null","sound/msl/door.wav","null","audio-keyboard-response","134","80511","0.0-1.0-133.0","",""
"null","sound/msl/slide_whistle.wav","null","audio-keyboard-response","135","81021","0.0-1.0-134.0","",""
"null","sound/msl/organ.wav","null","audio-keyboard-response","136","81531","0.0-1.0-135.0","",""
"null","sound/msl/bird.wav","null","audio-keyboard-response","137","82051","0.0-1.0-136.0","",""
"null","sound/msl/Water.wav","null","audio-keyboard-response","138","82572","0.0-1.0-137.0","",""
"null","sound/msl/frog.wav","null","audio-keyboard-response","139","83091","0.0-1.0-138.0","",""
"null","sound/msl/dog.wav","null","audio-keyboard-response","140","83612","0.0-1.0-139.0","",""
"null","sound/msl/cat.wav","null","audio-keyboard-response","141","84122","0.0-1.0-140.0","",""
"null","sound/msl/ding.wav","null","audio-keyboard-response","142","84641","0.0-1.0-141.0","",""
"null","sound/msl/clock.wav","null","audio-keyboard-response","143","85202","0.0-1.0-142.0","",""
"null","sound/msl/goat.wav","null","audio-keyboard-response","144","85737","0.0-1.0-143.0","",""
"null","sound/msl/door_bell.wav","null","audio-keyboard-response","145","86257","0.0-1.0-144.0","",""
"null","sound/msl/cow.wav","null","audio-keyboard-response","146","86766","0.0-1.0-145.0","",""
"null","sound/msl/duck.wav","null","audio-keyboard-response","147","87287","0.0-1.0-146.0","",""
"null","sound/msl/organ.wav","null","audio-keyboard-response","148","87796","0.0-1.0-147.0","",""
"null","sound/msl/bird.wav","null","audio-keyboard-response","149","88317","0.0-1.0-148.0","",""
"null","sound/msl/Water.wav","null","audio-keyboard-response","150","88837","0.0-1.0-149.0","",""
"null","sound/msl/ding.wav","null","audio-keyboard-response","151","89357","0.0-1.0-150.0","",""
"null","sound/msl/clock.wav","null","audio-keyboard-response","152","89917","0.0-1.0-151.0","",""
"null","sound/msl/goat.wav","null","audio-keyboard-response","153","90457","0.0-1.0-152.0","",""
"null","sound/msl/boing.wav","null","audio-keyboard-response","154","90967","0.0-1.0-153.0","",""
"null","sound/msl/door.wav","null","audio-keyboard-response","155","91477","0.0-1.0-154.0","",""
"null","sound/msl/slide_whistle.wav","null","audio-keyboard-response","156","91987","0.0-1.0-155.0","",""
"null","sound/msl/frog.wav","null","audio-keyboard-response","157","92498","0.0-1.0-156.0","",""
"null","sound/msl/dog.wav","null","audio-keyboard-response","158","93018","0.0-1.0-157.0","",""
"null","sound/msl/cat.wav","null","audio-keyboard-response","159","93527","0.0-1.0-158.0","",""
"null","sound/msl/door_bell.wav","null","audio-keyboard-response","160","94048","0.0-1.0-159.0","",""
"null","sound/msl/cow.wav","null","audio-keyboard-response","161","94568","0.0-1.0-160.0","",""
"null","sound/msl/duck.wav","null","audio-keyboard-response","162","95078","0.0-1.0-161.0","",""
"null","sound/msl/boing.wav","null","audio-keyboard-response","163","95587","0.0-1.0-162.0","",""
"null","sound/msl/door.wav","null","audio-keyboard-response","164","96098","0.0-1.0-163.0","",""
"null","sound/msl/slide_whistle.wav","null","audio-keyboard-response","165","96608","0.0-1.0-164.0","",""
"null","sound/msl/frog.wav","null","audio-keyboard-response","166","97128","0.0-1.0-165.0","",""
"null","sound/msl/dog.wav","null","audio-keyboard-response","167","97637","0.0-1.0-166.0","",""
"null","sound/msl/cat.wav","null","audio-keyboard-response","168","98148","0.0-1.0-167.0","",""
"null","sound/msl/ding.wav","null","audio-keyboard-response","169","98668","0.0-1.0-168.0","",""
"null","sound/msl/clock.wav","null","audio-keyboard-response","170","99229","0.0-1.0-169.0","",""
"null","sound/msl/goat.wav","null","audio-keyboard-response","171","99779","0.0-1.0-170.0","",""
"null","sound/msl/organ.wav","null","audio-keyboard-response","172","100289","0.0-1.0-171.0","",""
"null","sound/msl/bird.wav","null","audio-keyboard-response","173","100809","0.0-1.0-172.0","",""
"null","sound/msl/Water.wav","null","audio-keyboard-response","174","101329","0.0-1.0-173.0","",""
"null","sound/msl/door_bell.wav","null","audio-keyboard-response","175","101839","0.0-1.0-174.0","",""
"null","sound/msl/cow.wav","null","audio-keyboard-response","176","102359","0.0-1.0-175.0","",""
"null","sound/msl/duck.wav","null","audio-keyboard-response","177","102868","0.0-1.0-176.0","",""
"null","sound/msl/boing.wav","null","audio-keyboard-response","178","103378","0.0-1.0-177.0","",""
"null","sound/msl/door.wav","null","audio-keyboard-response","179","103889","0.0-1.0-178.0","",""
"null","sound/msl/slide_whistle.wav","null","audio-keyboard-response","180","104399","0.0-1.0-179.0","",""
"null","sound/msl/organ.wav","null","audio-keyboard-response","181","104909","0.0-1.0-180.0","",""
"null","sound/msl/bird.wav","null","audio-keyboard-response","182","105429","0.0-1.0-181.0","",""
"null","sound/msl/Water.wav","null","audio-keyboard-response","183","105949","0.0-1.0-182.0","",""
"null","sound/msl/frog.wav","null","audio-keyboard-response","184","106469","0.0-1.0-183.0","",""
"null","sound/msl/dog.wav","null","audio-keyboard-response","185","106979","0.0-1.0-184.0","",""
"null","sound/msl/cat.wav","null","audio-keyboard-response","186","107489","0.0-1.0-185.0","",""
"null","sound/msl/ding.wav","null","audio-keyboard-response","187","108009","0.0-1.0-186.0","",""
"null","sound/msl/clock.wav","null","audio-keyboard-response","188","108569","0.0-1.0-187.0","",""
"null","sound/msl/goat.wav","null","audio-keyboard-response","189","109120","0.0-1.0-188.0","",""
"null","sound/msl/door_bell.wav","null","audio-keyboard-response","190","109629","0.0-1.0-189.0","",""
"null","sound/msl/cow.wav","null","audio-keyboard-response","191","110150","0.0-1.0-190.0","",""
"null","sound/msl/duck.wav","null","audio-keyboard-response","192","110670","0.0-1.0-191.0","",""
"null","sound/msl/boing.wav","null","audio-keyboard-response","193","111180","0.0-1.0-192.0","",""
"null","sound/msl/door.wav","null","audio-keyboard-response","194","111690","0.0-1.0-193.0","",""
"null","sound/msl/slide_whistle.wav","null","audio-keyboard-response","195","112200","0.0-1.0-194.0","",""
"null","sound/msl/organ.wav","null","audio-keyboard-response","196","112710","0.0-1.0-195.0","",""
"null","sound/msl/bird.wav","null","audio-keyboard-response","197","113231","0.0-1.0-196.0","",""
"null","sound/msl/Water.wav","null","audio-keyboard-response","198","113750","0.0-1.0-197.0","",""
"null","sound/msl/ding.wav","null","audio-keyboard-response","199","114260","0.0-1.0-198.0","",""
"null","sound/msl/clock.wav","null","audio-keyboard-response","200","114820","0.0-1.0-199.0","",""
"null","sound/msl/goat.wav","null","audio-keyboard-response","201","115361","0.0-1.0-200.0","",""
"null","sound/msl/frog.wav","null","audio-keyboard-response","202","115880","0.0-1.0-201.0","",""
"null","sound/msl/dog.wav","null","audio-keyboard-response","203","116390","0.0-1.0-202.0","",""
"null","sound/msl/cat.wav","null","audio-keyboard-response","204","116901","0.0-1.0-203.0","",""
"null","sound/msl/door_bell.wav","null","audio-keyboard-response","205","117421","0.0-1.0-204.0","",""
"null","sound/msl/cow.wav","null","audio-keyboard-response","206","117941","0.0-1.0-205.0","",""
"null","sound/msl/duck.wav","null","audio-keyboard-response","207","118460","0.0-1.0-206.0","",""
"null","sound/msl/boing.wav","null","audio-keyboard-response","208","118971","0.0-1.0-207.0","",""
"null","sound/msl/door.wav","null","audio-keyboard-response","209","119481","0.0-1.0-208.0","",""
"null","sound/msl/slide_whistle.wav","null","audio-keyboard-response","210","119990","0.0-1.0-209.0","",""
"null","sound/msl/ding.wav","null","audio-keyboard-response","211","120500","0.0-1.0-210.0","",""
"null","sound/msl/clock.wav","null","audio-keyboard-response","212","121061","0.0-1.0-211.0","",""
"null","sound/msl/goat.wav","null","audio-keyboard-response","213","121601","0.0-1.0-212.0","",""
"null","sound/msl/door_bell.wav","null","audio-keyboard-response","214","122121","0.0-1.0-213.0","",""
"null","sound/msl/cow.wav","null","audio-keyboard-response","215","122641","0.0-1.0-214.0","",""
"null","sound/msl/duck.wav","null","audio-keyboard-response","216","123152","0.0-1.0-215.0","",""
"null","sound/msl/organ.wav","null","audio-keyboard-response","217","123662","0.0-1.0-216.0","",""
"null","sound/msl/bird.wav","null","audio-keyboard-response","218","124182","0.0-1.0-217.0","",""
"null","sound/msl/Water.wav","null","audio-keyboard-response","219","124702","0.0-1.0-218.0","",""
"null","sound/msl/frog.wav","null","audio-keyboard-response","220","125221","0.0-1.0-219.0","",""
"null","sound/msl/dog.wav","null","audio-keyboard-response","221","125742","0.0-1.0-220.0","",""
"null","sound/msl/cat.wav","null","audio-keyboard-response","222","126252","0.0-1.0-221.0","",""
"null","sound/msl/boing.wav","null","audio-keyboard-response","223","126761","0.0-1.0-222.0","",""
"null","sound/msl/door.wav","null","audio-keyboard-response","224","127267","0.0-1.0-223.0","",""
"null","sound/msl/slide_whistle.wav","null","audio-keyboard-response","225","127776","0.0-1.0-224.0","",""
"null","sound/msl/organ.wav","null","audio-keyboard-response","226","128287","0.0-1.0-225.0","",""
"null","sound/msl/bird.wav","null","audio-keyboard-response","227","128809","0.0-1.0-226.0","",""
"null","sound/msl/Water.wav","null","audio-keyboard-response","228","129327","0.0-1.0-227.0","",""
"null","sound/msl/door_bell.wav","null","audio-keyboard-response","229","129838","0.0-1.0-228.0","",""
"null","sound/msl/cow.wav","null","audio-keyboard-response","230","130357","0.0-1.0-229.0","",""
"null","sound/msl/duck.wav","null","audio-keyboard-response","231","130878","0.0-1.0-230.0","",""
"null","sound/msl/organ.wav","null","audio-keyboard-response","232","131388","0.0-1.0-231.0","",""
"null","sound/msl/bird.wav","null","audio-keyboard-response","233","131907","0.0-1.0-232.0","",""
"null","sound/msl/Water.wav","null","audio-keyboard-response","234","132427","0.0-1.0-233.0","",""
"null","sound/msl/boing.wav","null","audio-keyboard-response","235","132939","0.0-1.0-234.0","",""
"null","sound/msl/door.wav","null","audio-keyboard-response","236","133448","0.0-1.0-235.0","",""
"null","sound/msl/slide_whistle.wav","null","audio-keyboard-response","237","133958","0.0-1.0-236.0","",""
"null","sound/msl/frog.wav","null","audio-keyboard-response","238","134468","0.0-1.0-237.0","",""
"null","sound/msl/dog.wav","null","audio-keyboard-response","239","134988","0.0-1.0-238.0","",""
"null","sound/msl/cat.wav","null","audio-keyboard-response","240","135499","0.0-1.0-239.0","",""
"null","sound/msl/ding.wav","null","audio-keyboard-response","241","136018","0.0-1.0-240.0","",""
"null","sound/msl/clock.wav","null","audio-keyboard-response","242","136578","0.0-1.0-241.0","",""
"null","sound/msl/goat.wav","null","audio-keyboard-response","243","137117","0.0-1.0-242.0","",""
"null","sound/msl/door_bell.wav","null","audio-keyboard-response","244","137638","0.0-1.0-243.0","",""
"null","sound/msl/cow.wav","null","audio-keyboard-response","245","138149","0.0-1.0-244.0","",""
"null","sound/msl/duck.wav","null","audio-keyboard-response","246","138668","0.0-1.0-245.0","",""
"null","sound/msl/boing.wav","null","audio-keyboard-response","247","139179","0.0-1.0-246.0","",""
"null","sound/msl/door.wav","null","audio-keyboard-response","248","139688","0.0-1.0-247.0","",""
"null","sound/msl/slide_whistle.wav","null","audio-keyboard-response","249","140199","0.0-1.0-248.0","",""
"null","sound/msl/frog.wav","null","audio-keyboard-response","250","140709","0.0-1.0-249.0","",""
"null","sound/msl/dog.wav","null","audio-keyboard-response","251","141229","0.0-1.0-250.0","",""
"null","sound/msl/cat.wav","null","audio-keyboard-response","252","141739","0.0-1.0-251.0","",""
"null","sound/msl/ding.wav","null","audio-keyboard-response","253","142259","0.0-1.0-252.0","",""
"null","sound/msl/clock.wav","null","audio-keyboard-response","254","142819","0.0-1.0-253.0","",""
"null","sound/msl/goat.wav","null","audio-keyboard-response","255","143359","0.0-1.0-254.0","",""
"null","sound/msl/organ.wav","null","audio-keyboard-response","256","143869","0.0-1.0-255.0","",""
"null","sound/msl/bird.wav","null","audio-keyboard-response","257","144389","0.0-1.0-256.0","",""
"null","sound/msl/Water.wav","null","audio-keyboard-response","258","144909","0.0-1.0-257.0","",""
"null","sound/msl/door_bell.wav","null","audio-keyboard-response","259","145429","0.0-1.0-258.0","",""
"null","sound/msl/cow.wav","null","audio-keyboard-response","260","145950","0.0-1.0-259.0","",""
"null","sound/msl/duck.wav","null","audio-keyboard-response","261","146459","0.0-1.0-260.0","",""
"null","sound/msl/ding.wav","null","audio-keyboard-response","262","146980","0.0-1.0-261.0","",""
"null","sound/msl/clock.wav","null","audio-keyboard-response","263","147540","0.0-1.0-262.0","",""
"null","sound/msl/goat.wav","null","audio-keyboard-response","264","148080","0.0-1.0-263.0","",""
"null","sound/msl/frog.wav","null","audio-keyboard-response","265","148600","0.0-1.0-264.0","",""
"null","sound/msl/dog.wav","null","audio-keyboard-response","266","149109","0.0-1.0-265.0","",""
"null","sound/msl/cat.wav","null","audio-keyboard-response","267","149620","0.0-1.0-266.0","",""
"null","sound/msl/organ.wav","null","audio-keyboard-response","268","150130","0.0-1.0-267.0","",""
"null","sound/msl/bird.wav","null","audio-keyboard-response","269","150640","0.0-1.0-268.0","",""
"null","sound/msl/Water.wav","null","audio-keyboard-response","270","151160","0.0-1.0-269.0","",""
"null","sound/msl/boing.wav","null","audio-keyboard-response","271","151670","0.0-1.0-270.0","",""
"null","sound/msl/door.wav","null","audio-keyboard-response","272","152180","0.0-1.0-271.0","",""
"null","sound/msl/slide_whistle.wav","null","audio-keyboard-response","273","152690","0.0-1.0-272.0","",""
"null","sound/msl/door_bell.wav","null","audio-keyboard-response","274","153200","0.0-1.0-273.0","",""
"null","sound/msl/cow.wav","null","audio-keyboard-response","275","153720","0.0-1.0-274.0","",""
"null","sound/msl/duck.wav","null","audio-keyboard-response","276","154230","0.0-1.0-275.0","",""
"null","sound/msl/ding.wav","null","audio-keyboard-response","277","154750","0.0-1.0-276.0","",""
"null","sound/msl/clock.wav","null","audio-keyboard-response","278","155310","0.0-1.0-277.0","",""
"null","sound/msl/goat.wav","null","audio-keyboard-response","279","155850","0.0-1.0-278.0","",""
"null","sound/msl/frog.wav","null","audio-keyboard-response","280","156371","0.0-1.0-279.0","",""
"null","sound/msl/dog.wav","null","audio-keyboard-response","281","156880","0.0-1.0-280.0","",""
"null","sound/msl/cat.wav","null","audio-keyboard-response","282","157390","0.0-1.0-281.0","",""
"null","sound/msl/boing.wav","null","audio-keyboard-response","283","157900","0.0-1.0-282.0","",""
"null","sound/msl/door.wav","null","audio-keyboard-response","284","158411","0.0-1.0-283.0","",""
"null","sound/msl/slide_whistle.wav","null","audio-keyboard-response","285","158921","0.0-1.0-284.0","",""
"null","sound/msl/organ.wav","null","audio-keyboard-response","286","159431","0.0-1.0-285.0","",""
"null","sound/msl/bird.wav","null","audio-keyboard-response","287","159951","0.0-1.0-286.0","",""
"null","sound/msl/Water.wav","null","audio-keyboard-response","288","160472","0.0-1.0-287.0","",""
"null","sound/msl/door_bell.wav","null","audio-keyboard-response","289","160991","0.0-1.0-288.0","",""
"null","sound/msl/cow.wav","null","audio-keyboard-response","290","161512","0.0-1.0-289.0","",""
"null","sound/msl/duck.wav","null","audio-keyboard-response","291","162021","0.0-1.0-290.0","",""
"null","sound/msl/frog.wav","null","audio-keyboard-response","292","162542","0.0-1.0-291.0","",""
"null","sound/msl/dog.wav","null","audio-keyboard-response","293","163061","0.0-1.0-292.0","",""
"null","sound/msl/cat.wav","null","audio-keyboard-response","294","163571","0.0-1.0-293.0","",""
"null","sound/msl/ding.wav","null","audio-keyboard-response","295","164092","0.0-1.0-294.0","",""
"null","sound/msl/clock.wav","null","audio-keyboard-response","296","164652","0.0-1.0-295.0","",""
"null","sound/msl/goat.wav","null","audio-keyboard-response","297","165191","0.0-1.0-296.0","",""
"null","sound/msl/door_bell.wav","null","audio-keyboard-response","298","165711","0.0-1.0-297.0","",""
"null","sound/msl/cow.wav","null","audio-keyboard-response","299","166222","0.0-1.0-298.0","",""
"null","sound/msl/duck.wav","null","audio-keyboard-response","300","166742","0.0-1.0-299.0","",""
"null","sound/msl/boing.wav","null","audio-keyboard-response","301","167246","0.0-1.0-300.0","",""
"null","sound/msl/door.wav","null","audio-keyboard-response","302","167757","0.0-1.0-301.0","",""
"null","sound/msl/slide_whistle.wav","null","audio-keyboard-response","303","168267","0.0-1.0-302.0","",""
"null","sound/msl/frog.wav","null","audio-keyboard-response","304","168777","0.0-1.0-303.0","",""
"null","sound/msl/dog.wav","null","audio-keyboard-response","305","169297","0.0-1.0-304.0","",""
"null","sound/msl/cat.wav","null","audio-keyboard-response","306","169807","0.0-1.0-305.0","",""
"null","sound/msl/organ.wav","null","audio-keyboard-response","307","170317","0.0-1.0-306.0","",""
"null","sound/msl/bird.wav","null","audio-keyboard-response","308","170838","0.0-1.0-307.0","",""
"null","sound/msl/Water.wav","null","audio-keyboard-response","309","171357","0.0-1.0-308.0","",""
"null","sound/msl/ding.wav","null","audio-keyboard-response","310","171878","0.0-1.0-309.0","",""
"null","sound/msl/clock.wav","null","audio-keyboard-response","311","172438","0.0-1.0-310.0","",""
"null","sound/msl/goat.wav","null","audio-keyboard-response","312","172978","0.0-1.0-311.0","",""
"null","sound/msl/door_bell.wav","null","audio-keyboard-response","313","173498","0.0-1.0-312.0","",""
"null","sound/msl/cow.wav","null","audio-keyboard-response","314","174018","0.0-1.0-313.0","",""
"null","sound/msl/duck.wav","null","audio-keyboard-response","315","174527","0.0-1.0-314.0","",""
"null","sound/msl/boing.wav","null","audio-keyboard-response","316","175038","0.0-1.0-315.0","",""
"null","sound/msl/door.wav","null","audio-keyboard-response","317","175548","0.0-1.0-316.0","",""
"null","sound/msl/slide_whistle.wav","null","audio-keyboard-response","318","176058","0.0-1.0-317.0","",""
"null","sound/msl/frog.wav","null","audio-keyboard-response","319","176578","0.0-1.0-318.0","",""
"null","sound/msl/dog.wav","null","audio-keyboard-response","320","177089","0.0-1.0-319.0","",""
"null","sound/msl/cat.wav","null","audio-keyboard-response","321","177599","0.0-1.0-320.0","",""
"null","sound/msl/ding.wav","null","audio-keyboard-response","322","178119","0.0-1.0-321.0","",""
"null","sound/msl/clock.wav","null","audio-keyboard-response","323","178678","0.0-1.0-322.0","",""
"null","sound/msl/goat.wav","null","audio-keyboard-response","324","179229","0.0-1.0-323.0","",""
"null","sound/msl/boing.wav","null","audio-keyboard-response","325","179738","0.0-1.0-324.0","",""
"null","sound/msl/door.wav","null","audio-keyboard-response","326","180249","0.0-1.0-325.0","",""
"null","sound/msl/slide_whistle.wav","null","audio-keyboard-response","327","180759","0.0-1.0-326.0","",""
"null","sound/msl/organ.wav","null","audio-keyboard-response","328","181268","0.0-1.0-327.0","",""
"null","sound/msl/bird.wav","null","audio-keyboard-response","329","181789","0.0-1.0-328.0","",""
"null","sound/msl/Water.wav","null","audio-keyboard-response","330","182309","0.0-1.0-329.0","",""
"null","sound/msl/door_bell.wav","null","audio-keyboard-response","331","182830","0.0-1.0-330.0","",""
"null","sound/msl/cow.wav","null","audio-keyboard-response","332","183349","0.0-1.0-331.0","",""
"null","sound/msl/duck.wav","null","audio-keyboard-response","333","183869","0.0-1.0-332.0","",""
"null","sound/msl/frog.wav","null","audio-keyboard-response","334","184389","0.0-1.0-333.0","",""
"null","sound/msl/dog.wav","null","audio-keyboard-response","335","184909","0.0-1.0-334.0","",""
"null","sound/msl/cat.wav","null","audio-keyboard-response","336","185420","0.0-1.0-335.0","",""
"null","sound/msl/organ.wav","null","audio-keyboard-response","337","185929","0.0-1.0-336.0","",""
"null","sound/msl/bird.wav","null","audio-keyboard-response","338","186449","0.0-1.0-337.0","",""
"null","sound/msl/Water.wav","null","audio-keyboard-response","339","186969","0.0-1.0-338.0","",""
"null","sound/msl/ding.wav","null","audio-keyboard-response","340","187490","0.0-1.0-339.0","",""
"null","sound/msl/clock.wav","null","audio-keyboard-response","341","188050","0.0-1.0-340.0","",""
"null","sound/msl/goat.wav","null","audio-keyboard-response","342","188589","0.0-1.0-341.0","",""
"null","sound/msl/frog.wav","null","audio-keyboard-response","343","189109","0.0-1.0-342.0","",""
"null","sound/msl/dog.wav","null","audio-keyboard-response","344","189620","0.0-1.0-343.0","",""
"null","sound/msl/cat.wav","null","audio-keyboard-response","345","190130","0.0-1.0-344.0","",""
"null","sound/msl/ding.wav","null","audio-keyboard-response","346","190650","0.0-1.0-345.0","",""
"null","sound/msl/clock.wav","null","audio-keyboard-response","347","191210","0.0-1.0-346.0","",""
"null","sound/msl/goat.wav","null","audio-keyboard-response","348","191760","0.0-1.0-347.0","",""
"null","sound/msl/organ.wav","null","audio-keyboard-response","349","192270","0.0-1.0-348.0","",""
"null","sound/msl/bird.wav","null","audio-keyboard-response","350","192789","0.0-1.0-349.0","",""
"null","sound/msl/Water.wav","null","audio-keyboard-response","351","193312","0.0-1.0-350.0","",""
"null","sound/msl/door_bell.wav","null","audio-keyboard-response","352","193821","0.0-1.0-351.0","",""
"null","sound/msl/cow.wav","null","audio-keyboard-response","353","194341","0.0-1.0-352.0","",""
"null","sound/msl/duck.wav","null","audio-keyboard-response","354","194860","0.0-1.0-353.0","",""
"null","sound/msl/frog.wav","null","audio-keyboard-response","355","195371","0.0-1.0-354.0","",""
"null","sound/msl/dog.wav","null","audio-keyboard-response","356","195892","0.0-1.0-355.0","",""
"null","sound/msl/cat.wav","null","audio-keyboard-response","357","196401","0.0-1.0-356.0","",""
"null","sound/msl/ding.wav","null","audio-keyboard-response","358","196921","0.0-1.0-357.0","",""
"null","sound/msl/clock.wav","null","audio-keyboard-response","359","197482","0.0-1.0-358.0","",""
"null","sound/msl/goat.wav","null","audio-keyboard-response","360","198020","0.0-1.0-359.0","",""
"4659","Instructions2-eng.png","49","image-keyboard-response","361","202684","0.0-2.0","",""
"null","sound/msl/door_bell.wav","null","audio-keyboard-response","362","203202","0.0-3.0-0.0","",""
"null","sound/msl/cow.wav","null","audio-keyboard-response","363","203722","0.0-3.0-1.0","",""
"null","sound/msl/duck.wav","null","audio-keyboard-response","364","204242","0.0-3.0-2.0","",""
"null","sound/asl/silence.wav","null","audio-keyboard-response","365","204745","0.0-3.0-3.0","",""
"null","sound/msl/door_bell.wav","null","audio-keyboard-response","366","205253","0.0-3.0-4.0","",""
"null","sound/msl/clock.wav","null","audio-keyboard-response","367","205812","0.0-3.0-5.0","",""
"null","sound/msl/slide_whistle.wav","null","audio-keyboard-response","368","206322","0.0-3.0-6.0","",""
"4000","sound/asl/silence.wav","49","audio-keyboard-response","369","210321","0.0-3.0-7.0","true",""
"null","sound/msl/door_bell.wav","null","audio-keyboard-response","370","210838","0.0-4.0-0.0","",""
"null","sound/msl/clock.wav","null","audio-keyboard-response","371","211398","0.0-4.0-1.0","",""
"null","sound/msl/slide_whistle.wav","null","audio-keyboard-response","372","211908","0.0-4.0-2.0","",""
"null","sound/asl/silence.wav","null","audio-keyboard-response","373","212410","0.0-4.0-3.0","",""
"null","sound/msl/boing.wav","null","audio-keyboard-response","374","212917","0.0-4.0-4.0","",""
"null","sound/msl/door.wav","null","audio-keyboard-response","375","213428","0.0-4.0-5.0","",""
"null","sound/msl/slide_whistle.wav","null","audio-keyboard-response","376","213938","0.0-4.0-6.0","",""
"1640","sound/asl/silence.wav","50","audio-keyboard-response","377","215582","0.0-4.0-7.0","true",""
"null","sound/msl/frog.wav","null","audio-keyboard-response","378","216098","0.0-5.0-0.0","",""
"null","sound/msl/cow.wav","null","audio-keyboard-response","379","216619","0.0-5.0-1.0","",""
"null","sound/msl/goat.wav","null","audio-keyboard-response","380","217158","0.0-5.0-2.0","",""
"null","sound/asl/silence.wav","null","audio-keyboard-response","381","217660","0.0-5.0-3.0","",""
"null","sound/msl/boing.wav","null","audio-keyboard-response","382","218169","0.0-5.0-4.0","",""
"null","sound/msl/door.wav","null","audio-keyboard-response","383","218678","0.0-5.0-5.0","",""
"null","sound/msl/slide_whistle.wav","null","audio-keyboard-response","384","219189","0.0-5.0-6.0","",""
"1492","sound/asl/silence.wav","50","audio-keyboard-response","385","220679","0.0-5.0-7.0","true",""
"null","sound/msl/boing.wav","null","audio-keyboard-response","386","221189","0.0-6.0-0.0","",""
"null","sound/msl/door.wav","null","audio-keyboard-response","387","221699","0.0-6.0-1.0","",""
"null","sound/msl/slide_whistle.wav","null","audio-keyboard-response","388","222209","0.0-6.0-2.0","",""
"null","sound/asl/silence.wav","null","audio-keyboard-response","389","222710","0.0-6.0-3.0","",""
"null","sound/msl/ding.wav","null","audio-keyboard-response","390","223229","0.0-6.0-4.0","",""
"null","sound/msl/door.wav","null","audio-keyboard-response","391","223739","0.0-6.0-5.0","",""
"null","sound/msl/Water.wav","null","audio-keyboard-response","392","224260","0.0-6.0-6.0","",""
"1950","sound/asl/silence.wav","50","audio-keyboard-response","393","226217","0.0-6.0-7.0","false",""
"null","sound/msl/organ.wav","null","audio-keyboard-response","394","226730","0.0-7.0-0.0","",""
"null","sound/msl/dog.wav","null","audio-keyboard-response","395","227250","0.0-7.0-1.0","",""
"null","sound/msl/duck.wav","null","audio-keyboard-response","396","227770","0.0-7.0-2.0","",""
"null","sound/asl/silence.wav","null","audio-keyboard-response","397","228270","0.0-7.0-3.0","",""
"null","sound/msl/frog.wav","null","audio-keyboard-response","398","228790","0.0-7.0-4.0","",""
"null","sound/msl/dog.wav","null","audio-keyboard-response","399","229299","0.0-7.0-5.0","",""
"null","sound/msl/cat.wav","null","audio-keyboard-response","400","229810","0.0-7.0-6.0","",""
"2142","sound/asl/silence.wav","50","audio-keyboard-response","401","231959","0.0-7.0-7.0","true",""
"null","sound/msl/organ.wav","null","audio-keyboard-response","402","232471","0.0-8.0-0.0","",""
"null","sound/msl/dog.wav","null","audio-keyboard-response","403","232990","0.0-8.0-1.0","",""
"null","sound/msl/duck.wav","null","audio-keyboard-response","404","233500","0.0-8.0-2.0","",""
"null","sound/asl/silence.wav","null","audio-keyboard-response","405","234002","0.0-8.0-3.0","",""
"null","sound/msl/door_bell.wav","null","audio-keyboard-response","406","234511","0.0-8.0-4.0","",""
"null","sound/msl/cow.wav","null","audio-keyboard-response","407","235031","0.0-8.0-5.0","",""
"null","sound/msl/duck.wav","null","audio-keyboard-response","408","235551","0.0-8.0-6.0","",""
"1559","sound/asl/silence.wav","50","audio-keyboard-response","409","237111","0.0-8.0-7.0","true",""
"null","sound/msl/ding.wav","null","audio-keyboard-response","410","237631","0.0-9.0-0.0","",""
"null","sound/msl/door.wav","null","audio-keyboard-response","411","238141","0.0-9.0-1.0","",""
"null","sound/msl/Water.wav","null","audio-keyboard-response","412","238661","0.0-9.0-2.0","",""
"null","sound/asl/silence.wav","null","audio-keyboard-response","413","239162","0.0-9.0-3.0","",""
"null","sound/msl/door_bell.wav","null","audio-keyboard-response","414","239681","0.0-9.0-4.0","",""
"null","sound/msl/cow.wav","null","audio-keyboard-response","415","240191","0.0-9.0-5.0","",""
"null","sound/msl/duck.wav","null","audio-keyboard-response","416","240712","0.0-9.0-6.0","",""
"1370","sound/asl/silence.wav","49","audio-keyboard-response","417","242082","0.0-9.0-7.0","false",""
"null","sound/msl/frog.wav","null","audio-keyboard-response","418","242601","0.0-10.0-0.0","",""
"null","sound/msl/dog.wav","null","audio-keyboard-response","419","243111","0.0-10.0-1.0","",""
"null","sound/msl/cat.wav","null","audio-keyboard-response","420","243621","0.0-10.0-2.0","",""
"null","sound/asl/silence.wav","null","audio-keyboard-response","421","244121","0.0-10.0-3.0","",""
"null","sound/msl/door_bell.wav","null","audio-keyboard-response","422","244641","0.0-10.0-4.0","",""
"null","sound/msl/clock.wav","null","audio-keyboard-response","423","245202","0.0-10.0-5.0","",""
"null","sound/msl/slide_whistle.wav","null","audio-keyboard-response","424","245712","0.0-10.0-6.0","",""
"1112","sound/asl/silence.wav","49","audio-keyboard-response","425","246832","0.0-10.0-7.0","true",""
"null","sound/msl/door_bell.wav","null","audio-keyboard-response","426","247352","0.0-11.0-0.0","",""
"null","sound/msl/cow.wav","null","audio-keyboard-response","427","247872","0.0-11.0-1.0","",""
"null","sound/msl/duck.wav","null","audio-keyboard-response","428","248388","0.0-11.0-2.0","",""
"null","sound/asl/silence.wav","null","audio-keyboard-response","429","248889","0.0-11.0-3.0","",""
"null","sound/msl/frog.wav","null","audio-keyboard-response","430","249398","0.0-11.0-4.0","",""
"null","sound/msl/cow.wav","null","audio-keyboard-response","431","249918","0.0-11.0-5.0","",""
"null","sound/msl/goat.wav","null","audio-keyboard-response","432","250458","0.0-11.0-6.0","",""
"2209","sound/asl/silence.wav","49","audio-keyboard-response","433","252671","0.0-11.0-7.0","true",""
"null","sound/msl/frog.wav","null","audio-keyboard-response","434","253188","0.0-12.0-0.0","",""
"null","sound/msl/cow.wav","null","audio-keyboard-response","435","253708","0.0-12.0-1.0","",""
"null","sound/msl/goat.wav","null","audio-keyboard-response","436","254248","0.0-12.0-2.0","",""
"null","sound/asl/silence.wav","null","audio-keyboard-response","437","254749","0.0-12.0-3.0","",""
"null","sound/msl/organ.wav","null","audio-keyboard-response","438","255258","0.0-12.0-4.0","",""
"null","sound/msl/bird.wav","null","audio-keyboard-response","439","255778","0.0-12.0-5.0","",""
"null","sound/msl/Water.wav","null","audio-keyboard-response","440","256298","0.0-12.0-6.0","",""
"2479","sound/asl/silence.wav","50","audio-keyboard-response","441","258783","0.0-12.0-7.0","true",""
"null","sound/msl/organ.wav","null","audio-keyboard-response","442","259290","0.0-13.0-0.0","",""
"null","sound/msl/dog.wav","null","audio-keyboard-response","443","259809","0.0-13.0-1.0","",""
"null","sound/msl/duck.wav","null","audio-keyboard-response","444","260328","0.0-13.0-2.0","",""
"null","sound/asl/silence.wav","null","audio-keyboard-response","445","260832","0.0-13.0-3.0","",""
"null","sound/msl/ding.wav","null","audio-keyboard-response","446","261350","0.0-13.0-4.0","",""
"null","sound/msl/clock.wav","null","audio-keyboard-response","447","261911","0.0-13.0-5.0","",""
"null","sound/msl/goat.wav","null","audio-keyboard-response","448","262449","0.0-13.0-6.0","",""
"1170","sound/asl/silence.wav","50","audio-keyboard-response","449","263627","0.0-13.0-7.0","true",""
"null","sound/msl/ding.wav","null","audio-keyboard-response","450","264129","0.0-14.0-0.0","",""
"null","sound/msl/door.wav","null","audio-keyboard-response","451","264640","0.0-14.0-1.0","",""
"null","sound/msl/Water.wav","null","audio-keyboard-response","452","265160","0.0-14.0-2.0","",""
"null","sound/asl/silence.wav","null","audio-keyboard-response","453","265662","0.0-14.0-3.0","",""
"null","sound/msl/frog.wav","null","audio-keyboard-response","454","266180","0.0-14.0-4.0","",""
"null","sound/msl/dog.wav","null","audio-keyboard-response","455","266689","0.0-14.0-5.0","",""
"null","sound/msl/cat.wav","null","audio-keyboard-response","456","267200","0.0-14.0-6.0","",""
"1512","sound/asl/silence.wav","50","audio-keyboard-response","457","268714","0.0-14.0-7.0","true",""
"null","sound/msl/ding.wav","null","audio-keyboard-response","458","269230","0.0-15.0-0.0","",""
"null","sound/msl/clock.wav","null","audio-keyboard-response","459","269790","0.0-15.0-1.0","",""
"null","sound/msl/goat.wav","null","audio-keyboard-response","460","270330","0.0-15.0-2.0","",""
"null","sound/asl/silence.wav","null","audio-keyboard-response","461","270832","0.0-15.0-3.0","",""
"null","sound/msl/door_bell.wav","null","audio-keyboard-response","462","271340","0.0-15.0-4.0","",""
"null","sound/msl/clock.wav","null","audio-keyboard-response","463","271900","0.0-15.0-5.0","",""
"null","sound/msl/slide_whistle.wav","null","audio-keyboard-response","464","272410","0.0-15.0-6.0","",""
"630","sound/asl/silence.wav","49","audio-keyboard-response","465","273044","0.0-15.0-7.0","true",""
"null","sound/msl/boing.wav","null","audio-keyboard-response","466","273550","0.0-16.0-0.0","",""
"null","sound/msl/bird.wav","null","audio-keyboard-response","467","274071","0.0-16.0-1.0","",""
"null","sound/msl/cat.wav","null","audio-keyboard-response","468","274581","0.0-16.0-2.0","",""
"null","sound/asl/silence.wav","null","audio-keyboard-response","469","275082","0.0-16.0-3.0","",""
"null","sound/msl/ding.wav","null","audio-keyboard-response","470","275601","0.0-16.0-4.0","",""
"null","sound/msl/clock.wav","null","audio-keyboard-response","471","276161","0.0-16.0-5.0","",""
"null","sound/msl/goat.wav","null","audio-keyboard-response","472","276712","0.0-16.0-6.0","",""
"760","sound/asl/silence.wav","50","audio-keyboard-response","473","277481","0.0-16.0-7.0","true",""
"null","sound/msl/ding.wav","null","audio-keyboard-response","474","278002","0.0-17.0-0.0","",""
"null","sound/msl/clock.wav","null","audio-keyboard-response","475","278561","0.0-17.0-1.0","",""
"null","sound/msl/goat.wav","null","audio-keyboard-response","476","279112","0.0-17.0-2.0","",""
"null","sound/asl/silence.wav","null","audio-keyboard-response","477","279612","0.0-17.0-3.0","",""
"null","sound/msl/frog.wav","null","audio-keyboard-response","478","280121","0.0-17.0-4.0","",""
"null","sound/msl/cow.wav","null","audio-keyboard-response","479","280642","0.0-17.0-5.0","",""
"null","sound/msl/goat.wav","null","audio-keyboard-response","480","281182","0.0-17.0-6.0","",""
"1718","sound/asl/silence.wav","50","audio-keyboard-response","481","282908","0.0-17.0-7.0","false",""
"null","sound/msl/door_bell.wav","null","audio-keyboard-response","482","283422","0.0-18.0-0.0","",""
"null","sound/msl/cow.wav","null","audio-keyboard-response","483","283942","0.0-18.0-1.0","",""
"null","sound/msl/duck.wav","null","audio-keyboard-response","484","284462","0.0-18.0-2.0","",""
"null","sound/asl/silence.wav","null","audio-keyboard-response","485","284965","0.0-18.0-3.0","",""
"null","sound/msl/boing.wav","null","audio-keyboard-response","486","285473","0.0-18.0-4.0","",""
"null","sound/msl/bird.wav","null","audio-keyboard-response","487","285982","0.0-18.0-5.0","",""
"null","sound/msl/cat.wav","null","audio-keyboard-response","488","286492","0.0-18.0-6.0","",""
"1741","sound/asl/silence.wav","49","audio-keyboard-response","489","288237","0.0-18.0-7.0","true",""
"null","sound/msl/organ.wav","null","audio-keyboard-response","490","288743","0.0-19.0-0.0","",""
"null","sound/msl/dog.wav","null","audio-keyboard-response","491","289257","0.0-19.0-1.0","",""
"null","sound/msl/duck.wav","null","audio-keyboard-response","492","289777","0.0-19.0-2.0","",""
"null","sound/asl/silence.wav","null","audio-keyboard-response","493","290280","0.0-19.0-3.0","",""
"null","sound/msl/organ.wav","null","audio-keyboard-response","494","290788","0.0-19.0-4.0","",""
"null","sound/msl/bird.wav","null","audio-keyboard-response","495","291298","0.0-19.0-5.0","",""
"null","sound/msl/Water.wav","null","audio-keyboard-response","496","291818","0.0-19.0-6.0","",""
"908","sound/asl/silence.wav","50","audio-keyboard-response","497","292738","0.0-19.0-7.0","true",""
"null","sound/msl/organ.wav","null","audio-keyboard-response","498","293248","0.0-20.0-0.0","",""
"null","sound/msl/bird.wav","null","audio-keyboard-response","499","293768","0.0-20.0-1.0","",""
"null","sound/msl/Water.wav","null","audio-keyboard-response","500","294288","0.0-20.0-2.0","",""
"null","sound/asl/silence.wav","null","audio-keyboard-response","501","294790","0.0-20.0-3.0","",""
"null","sound/msl/ding.wav","null","audio-keyboard-response","502","295299","0.0-20.0-4.0","",""
"null","sound/msl/door.wav","null","audio-keyboard-response","503","295809","0.0-20.0-5.0","",""
"null","sound/msl/Water.wav","null","audio-keyboard-response","504","296329","0.0-20.0-6.0","",""
"1477","sound/asl/silence.wav","50","audio-keyboard-response","505","297815","0.0-20.0-7.0","false",""
"null","sound/msl/ding.wav","null","audio-keyboard-response","506","298329","0.0-21.0-0.0","",""
"null","sound/msl/door.wav","null","audio-keyboard-response","507","298839","0.0-21.0-1.0","",""
"null","sound/msl/Water.wav","null","audio-keyboard-response","508","299359","0.0-21.0-2.0","",""
"null","sound/asl/silence.wav","null","audio-keyboard-response","509","299859","0.0-21.0-3.0","",""
"null","sound/msl/ding.wav","null","audio-keyboard-response","510","300379","0.0-21.0-4.0","",""
"null","sound/msl/clock.wav","null","audio-keyboard-response","511","300939","0.0-21.0-5.0","",""
"null","sound/msl/goat.wav","null","audio-keyboard-response","512","301479","0.0-21.0-6.0","",""
"1881","sound/asl/silence.wav","50","audio-keyboard-response","513","303364","0.0-21.0-7.0","true",""
"null","sound/msl/frog.wav","null","audio-keyboard-response","514","303880","0.0-22.0-0.0","",""
"null","sound/msl/dog.wav","null","audio-keyboard-response","515","304400","0.0-22.0-1.0","",""
"null","sound/msl/cat.wav","null","audio-keyboard-response","516","304910","0.0-22.0-2.0","",""
"null","sound/asl/silence.wav","null","audio-keyboard-response","517","305411","0.0-22.0-3.0","",""
"null","sound/msl/frog.wav","null","audio-keyboard-response","518","305920","0.0-22.0-4.0","",""
"null","sound/msl/cow.wav","null","audio-keyboard-response","519","306440","0.0-22.0-5.0","",""
"null","sound/msl/goat.wav","null","audio-keyboard-response","520","306980","0.0-22.0-6.0","",""
"760","sound/asl/silence.wav","49","audio-keyboard-response","521","307748","0.0-22.0-7.0","true",""
"null","sound/msl/boing.wav","null","audio-keyboard-response","522","308250","0.0-23.0-0.0","",""
"null","sound/msl/bird.wav","null","audio-keyboard-response","523","308770","0.0-23.0-1.0","",""
"null","sound/msl/cat.wav","null","audio-keyboard-response","524","309280","0.0-23.0-2.0","",""
"null","sound/asl/silence.wav","null","audio-keyboard-response","525","309782","0.0-23.0-3.0","",""
"null","sound/msl/frog.wav","null","audio-keyboard-response","526","310300","0.0-23.0-4.0","",""
"null","sound/msl/dog.wav","null","audio-keyboard-response","527","310820","0.0-23.0-5.0","",""
"null","sound/msl/cat.wav","null","audio-keyboard-response","528","311330","0.0-23.0-6.0","",""
"972","sound/asl/silence.wav","50","audio-keyboard-response","529","312307","0.0-23.0-7.0","true",""
"null","sound/msl/boing.wav","null","audio-keyboard-response","530","312810","0.0-24.0-0.0","",""
"null","sound/msl/door.wav","null","audio-keyboard-response","531","313321","0.0-24.0-1.0","",""
"null","sound/msl/slide_whistle.wav","null","audio-keyboard-response","532","313831","0.0-24.0-2.0","",""
"null","sound/asl/silence.wav","null","audio-keyboard-response","533","314332","0.0-24.0-3.0","",""
"null","sound/msl/organ.wav","null","audio-keyboard-response","534","314841","0.0-24.0-4.0","",""
"null","sound/msl/dog.wav","null","audio-keyboard-response","535","315351","0.0-24.0-5.0","",""
"null","sound/msl/duck.wav","null","audio-keyboard-response","536","315872","0.0-24.0-6.0","",""
"929","sound/asl/silence.wav","49","audio-keyboard-response","537","316805","0.0-24.0-7.0","true",""
"null","sound/msl/organ.wav","null","audio-keyboard-response","538","317311","0.0-25.0-0.0","",""
"null","sound/msl/bird.wav","null","audio-keyboard-response","539","317832","0.0-25.0-1.0","",""
"null","sound/msl/Water.wav","null","audio-keyboard-response","540","318351","0.0-25.0-2.0","",""
"null","sound/asl/silence.wav","null","audio-keyboard-response","541","318853","0.0-25.0-3.0","",""
"null","sound/msl/door_bell.wav","null","audio-keyboard-response","542","319371","0.0-25.0-4.0","",""
"null","sound/msl/clock.wav","null","audio-keyboard-response","543","319931","0.0-25.0-5.0","",""
"null","sound/msl/slide_whistle.wav","null","audio-keyboard-response","544","320441","0.0-25.0-6.0","",""
"969","sound/asl/silence.wav","50","audio-keyboard-response","545","321417","0.0-25.0-7.0","false",""
"null","sound/msl/boing.wav","null","audio-keyboard-response","546","321924","0.0-26.0-0.0","",""
"null","sound/msl/bird.wav","null","audio-keyboard-response","547","322442","0.0-26.0-1.0","",""
"null","sound/msl/cat.wav","null","audio-keyboard-response","548","322953","0.0-26.0-2.0","",""
"null","sound/asl/silence.wav","null","audio-keyboard-response","549","323454","0.0-26.0-3.0","",""
"null","sound/msl/organ.wav","null","audio-keyboard-response","550","323962","0.0-26.0-4.0","",""
"null","sound/msl/bird.wav","null","audio-keyboard-response","551","324472","0.0-26.0-5.0","",""
"null","sound/msl/Water.wav","null","audio-keyboard-response","552","324994","0.0-26.0-6.0","",""
"908","sound/asl/silence.wav","50","audio-keyboard-response","553","325904","0.0-26.0-7.0","true",""
"null","sound/msl/boing.wav","null","audio-keyboard-response","554","326414","0.0-27.0-0.0","",""
"null","sound/msl/door.wav","null","audio-keyboard-response","555","326923","0.0-27.0-1.0","",""
"null","sound/msl/slide_whistle.wav","null","audio-keyboard-response","556","327432","0.0-27.0-2.0","",""
"null","sound/asl/silence.wav","null","audio-keyboard-response","557","327935","0.0-27.0-3.0","",""
"null","sound/msl/boing.wav","null","audio-keyboard-response","558","328443","0.0-27.0-4.0","",""
"null","sound/msl/bird.wav","null","audio-keyboard-response","559","328963","0.0-27.0-5.0","",""
"null","sound/msl/cat.wav","null","audio-keyboard-response","560","329468","0.0-27.0-6.0","",""
"641","sound/asl/silence.wav","49","audio-keyboard-response","561","330110","0.0-27.0-7.0","true",""
"3254","","","instructions","562","333366","0.0-28.0","","[{""page_index"":0,""viewing_time"":3254}]"
