"rt","stimulus","key_press","trial_type","trial_index","time_elapsed","internal_node_id","correct","view_history"
"15524","alien.jpg","49","image-keyboard-response","0","15528","0.0-0.0","",""
"null","sound/msl/goat.wav","null","audio-keyboard-response","1","16068","0.0-1.0-0.0","",""
"null","sound/msl/door.wav","null","audio-keyboard-response","2","16567","0.0-1.0-1.0","",""
"null","sound/msl/cow.wav","null","audio-keyboard-response","3","17067","0.0-1.0-2.0","",""
"null","sound/msl/organ.wav","null","audio-keyboard-response","4","17570","0.0-1.0-3.0","",""
"null","sound/msl/slide_whistle.wav","null","audio-keyboard-response","5","18065","0.0-1.0-4.0","",""
"null","sound/msl/dog.wav","null","audio-keyboard-response","6","18577","0.0-1.0-5.0","",""
"null","sound/msl/boing.wav","null","audio-keyboard-response","7","19075","0.0-1.0-6.0","",""
"null","sound/msl/Water.wav","null","audio-keyboard-response","8","19587","0.0-1.0-7.0","",""
"null","sound/msl/duck.wav","null","audio-keyboard-response","9","20095","0.0-1.0-8.0","",""
"null","sound/msl/door_bell.wav","null","audio-keyboard-response","10","20597","0.0-1.0-9.0","",""
"null","sound/msl/bird.wav","null","audio-keyboard-response","11","21105","0.0-1.0-10.0","",""
"null","sound/msl/clock.wav","null","audio-keyboard-response","12","21656","0.0-1.0-11.0","",""
"null","sound/msl/organ.wav","null","audio-keyboard-response","13","22155","0.0-1.0-12.0","",""
"null","sound/msl/slide_whistle.wav","null","audio-keyboard-response","14","22656","0.0-1.0-13.0","",""
"null","sound/msl/dog.wav","null","audio-keyboard-response","15","23156","0.0-1.0-14.0","",""
"null","sound/msl/goat.wav","null","audio-keyboard-response","16","23697","0.0-1.0-15.0","",""
"null","sound/msl/door.wav","null","audio-keyboard-response","17","24197","0.0-1.0-16.0","",""
"null","sound/msl/cow.wav","null","audio-keyboard-response","18","24707","0.0-1.0-17.0","",""
"null","sound/msl/ding.wav","null","audio-keyboard-response","19","25215","0.0-1.0-18.0","",""
"null","sound/msl/frog.wav","null","audio-keyboard-response","20","25717","0.0-1.0-19.0","",""
"null","sound/msl/cat.wav","null","audio-keyboard-response","21","26216","0.0-1.0-20.0","",""
"null","sound/msl/door_bell.wav","null","audio-keyboard-response","22","26717","0.0-1.0-21.0","",""
"null","sound/msl/bird.wav","null","audio-keyboard-response","23","27226","0.0-1.0-22.0","",""
"null","sound/msl/clock.wav","null","audio-keyboard-response","24","27777","0.0-1.0-23.0","",""
"null","sound/msl/boing.wav","null","audio-keyboard-response","25","28277","0.0-1.0-24.0","",""
"null","sound/msl/Water.wav","null","audio-keyboard-response","26","28787","0.0-1.0-25.0","",""
"null","sound/msl/duck.wav","null","audio-keyboard-response","27","29297","0.0-1.0-26.0","",""
"null","sound/msl/goat.wav","null","audio-keyboard-response","28","29836","0.0-1.0-27.0","",""
"null","sound/msl/door.wav","null","audio-keyboard-response","29","30335","0.0-1.0-28.0","",""
"null","sound/msl/cow.wav","null","audio-keyboard-response","30","30837","0.0-1.0-29.0","",""
"null","sound/msl/organ.wav","null","audio-keyboard-response","31","31334","0.0-1.0-30.0","",""
"null","sound/msl/slide_whistle.wav","null","audio-keyboard-response","32","31836","0.0-1.0-31.0","",""
"null","sound/msl/dog.wav","null","audio-keyboard-response","33","32347","0.0-1.0-32.0","",""
"null","sound/msl/ding.wav","null","audio-keyboard-response","34","32857","0.0-1.0-33.0","",""
"null","sound/msl/frog.wav","null","audio-keyboard-response","35","33357","0.0-1.0-34.0","",""
"null","sound/msl/cat.wav","null","audio-keyboard-response","36","33857","0.0-1.0-35.0","",""
"null","sound/msl/boing.wav","null","audio-keyboard-response","37","34357","0.0-1.0-36.0","",""
"null","sound/msl/Water.wav","null","audio-keyboard-response","38","34867","0.0-1.0-37.0","",""
"null","sound/msl/duck.wav","null","audio-keyboard-response","39","35377","0.0-1.0-38.0","",""
"null","sound/msl/door_bell.wav","null","audio-keyboard-response","40","35876","0.0-1.0-39.0","",""
"null","sound/msl/bird.wav","null","audio-keyboard-response","41","36386","0.0-1.0-40.0","",""
"null","sound/msl/clock.wav","null","audio-keyboard-response","42","36937","0.0-1.0-41.0","",""
"null","sound/msl/ding.wav","null","audio-keyboard-response","43","37435","0.0-1.0-42.0","",""
"null","sound/msl/frog.wav","null","audio-keyboard-response","44","37947","0.0-1.0-43.0","",""
"null","sound/msl/cat.wav","null","audio-keyboard-response","45","38446","0.0-1.0-44.0","",""
"null","sound/msl/organ.wav","null","audio-keyboard-response","46","38945","0.0-1.0-45.0","",""
"null","sound/msl/slide_whistle.wav","null","audio-keyboard-response","47","39446","0.0-1.0-46.0","",""
"null","sound/msl/dog.wav","null","audio-keyboard-response","48","39945","0.0-1.0-47.0","",""
"null","sound/msl/boing.wav","null","audio-keyboard-response","49","40446","0.0-1.0-48.0","",""
"null","sound/msl/Water.wav","null","audio-keyboard-response","50","40954","0.0-1.0-49.0","",""
"null","sound/msl/duck.wav","null","audio-keyboard-response","51","41467","0.0-1.0-50.0","",""
"null","sound/msl/goat.wav","null","audio-keyboard-response","52","42006","0.0-1.0-51.0","",""
"null","sound/msl/door.wav","null","audio-keyboard-response","53","42507","0.0-1.0-52.0","",""
"null","sound/msl/cow.wav","null","audio-keyboard-response","54","43017","0.0-1.0-53.0","",""
"null","sound/msl/organ.wav","null","audio-keyboard-response","55","43517","0.0-1.0-54.0","",""
"null","sound/msl/slide_whistle.wav","null","audio-keyboard-response","56","44017","0.0-1.0-55.0","",""
"null","sound/msl/dog.wav","null","audio-keyboard-response","57","44517","0.0-1.0-56.0","",""
"null","sound/msl/boing.wav","null","audio-keyboard-response","58","45016","0.0-1.0-57.0","",""
"null","sound/msl/Water.wav","null","audio-keyboard-response","59","45527","0.0-1.0-58.0","",""
"null","sound/msl/duck.wav","null","audio-keyboard-response","60","46028","0.0-1.0-59.0","",""
"null","sound/msl/door_bell.wav","null","audio-keyboard-response","61","46536","0.0-1.0-60.0","",""
"null","sound/msl/bird.wav","null","audio-keyboard-response","62","47036","0.0-1.0-61.0","",""
"null","sound/msl/clock.wav","null","audio-keyboard-response","63","47587","0.0-1.0-62.0","",""
"null","sound/msl/ding.wav","null","audio-keyboard-response","64","48097","0.0-1.0-63.0","",""
"null","sound/msl/frog.wav","null","audio-keyboard-response","65","48596","0.0-1.0-64.0","",""
"null","sound/msl/cat.wav","null","audio-keyboard-response","66","49097","0.0-1.0-65.0","",""
"null","sound/msl/organ.wav","null","audio-keyboard-response","67","49598","0.0-1.0-66.0","",""
"null","sound/msl/slide_whistle.wav","null","audio-keyboard-response","68","50097","0.0-1.0-67.0","",""
"null","sound/msl/dog.wav","null","audio-keyboard-response","69","50597","0.0-1.0-68.0","",""
"null","sound/msl/goat.wav","null","audio-keyboard-response","70","51137","0.0-1.0-69.0","",""
"null","sound/msl/door.wav","null","audio-keyboard-response","71","51637","0.0-1.0-70.0","",""
"null","sound/msl/cow.wav","null","audio-keyboard-response","72","52147","0.0-1.0-71.0","",""
"null","sound/msl/boing.wav","null","audio-keyboard-response","73","52647","0.0-1.0-72.0","",""
"null","sound/msl/Water.wav","null","audio-keyboard-response","74","53157","0.0-1.0-73.0","",""
"null","sound/msl/duck.wav","null","audio-keyboard-response","75","53668","0.0-1.0-74.0","",""
"null","sound/msl/door_bell.wav","null","audio-keyboard-response","76","54177","0.0-1.0-75.0","",""
"null","sound/msl/bird.wav","null","audio-keyboard-response","77","54676","0.0-1.0-76.0","",""
"null","sound/msl/clock.wav","null","audio-keyboard-response","78","55227","0.0-1.0-77.0","",""
"null","sound/msl/boing.wav","null","audio-keyboard-response","79","55727","0.0-1.0-78.0","",""
"null","sound/msl/Water.wav","null","audio-keyboard-response","80","56236","0.0-1.0-79.0","",""
"null","sound/msl/duck.wav","null","audio-keyboard-response","81","56745","0.0-1.0-80.0","",""
"null","sound/msl/ding.wav","null","audio-keyboard-response","82","57257","0.0-1.0-81.0","",""
"null","sound/msl/frog.wav","null","audio-keyboard-response","83","57755","0.0-1.0-82.0","",""
"null","sound/msl/cat.wav","null","audio-keyboard-response","84","58257","0.0-1.0-83.0","",""
"null","sound/msl/goat.wav","null","audio-keyboard-response","85","58796","0.0-1.0-84.0","",""
"null","sound/msl/door.wav","null","audio-keyboard-response","86","59295","0.0-1.0-85.0","",""
"null","sound/msl/cow.wav","null","audio-keyboard-response","87","59795","0.0-1.0-86.0","",""
"null","sound/msl/organ.wav","null","audio-keyboard-response","88","60296","0.0-1.0-87.0","",""
"null","sound/msl/slide_whistle.wav","null","audio-keyboard-response","89","60797","0.0-1.0-88.0","",""
"null","sound/msl/dog.wav","null","audio-keyboard-response","90","61305","0.0-1.0-89.0","",""
"null","sound/msl/ding.wav","null","audio-keyboard-response","91","61817","0.0-1.0-90.0","",""
"null","sound/msl/frog.wav","null","audio-keyboard-response","92","62316","0.0-1.0-91.0","",""
"null","sound/msl/cat.wav","null","audio-keyboard-response","93","62818","0.0-1.0-92.0","",""
"null","sound/msl/door_bell.wav","null","audio-keyboard-response","94","63315","0.0-1.0-93.0","",""
"null","sound/msl/bird.wav","null","audio-keyboard-response","95","63827","0.0-1.0-94.0","",""
"null","sound/msl/clock.wav","null","audio-keyboard-response","96","64377","0.0-1.0-95.0","",""
"null","sound/msl/boing.wav","null","audio-keyboard-response","97","64877","0.0-1.0-96.0","",""
"null","sound/msl/Water.wav","null","audio-keyboard-response","98","65386","0.0-1.0-97.0","",""
"null","sound/msl/duck.wav","null","audio-keyboard-response","99","65898","0.0-1.0-98.0","",""
"null","sound/msl/organ.wav","null","audio-keyboard-response","100","66396","0.0-1.0-99.0","",""
"null","sound/msl/slide_whistle.wav","null","audio-keyboard-response","101","66897","0.0-1.0-100.0","",""
"null","sound/msl/dog.wav","null","audio-keyboard-response","102","67396","0.0-1.0-101.0","",""
"null","sound/msl/ding.wav","null","audio-keyboard-response","103","67907","0.0-1.0-102.0","",""
"null","sound/msl/frog.wav","null","audio-keyboard-response","104","68415","0.0-1.0-103.0","",""
"null","sound/msl/cat.wav","null","audio-keyboard-response","105","68918","0.0-1.0-104.0","",""
"null","sound/msl/goat.wav","null","audio-keyboard-response","106","69456","0.0-1.0-105.0","",""
"null","sound/msl/door.wav","null","audio-keyboard-response","107","69956","0.0-1.0-106.0","",""
"null","sound/msl/cow.wav","null","audio-keyboard-response","108","70467","0.0-1.0-107.0","",""
"null","sound/msl/organ.wav","null","audio-keyboard-response","109","70967","0.0-1.0-108.0","",""
"null","sound/msl/slide_whistle.wav","null","audio-keyboard-response","110","71468","0.0-1.0-109.0","",""
"null","sound/msl/dog.wav","null","audio-keyboard-response","111","71978","0.0-1.0-110.0","",""
"null","sound/msl/door_bell.wav","null","audio-keyboard-response","112","72477","0.0-1.0-111.0","",""
"null","sound/msl/bird.wav","null","audio-keyboard-response","113","72988","0.0-1.0-112.0","",""
"null","sound/msl/clock.wav","null","audio-keyboard-response","114","73537","0.0-1.0-113.0","",""
"null","sound/msl/ding.wav","null","audio-keyboard-response","115","74037","0.0-1.0-114.0","",""
"null","sound/msl/frog.wav","null","audio-keyboard-response","116","74548","0.0-1.0-115.0","",""
"null","sound/msl/cat.wav","null","audio-keyboard-response","117","75047","0.0-1.0-116.0","",""
"null","sound/msl/boing.wav","null","audio-keyboard-response","118","75545","0.0-1.0-117.0","",""
"null","sound/msl/Water.wav","null","audio-keyboard-response","119","76057","0.0-1.0-118.0","",""
"null","sound/msl/duck.wav","null","audio-keyboard-response","120","76556","0.0-1.0-119.0","",""
"null","sound/msl/goat.wav","null","audio-keyboard-response","121","77097","0.0-1.0-120.0","",""
"null","sound/msl/door.wav","null","audio-keyboard-response","122","77595","0.0-1.0-121.0","",""
"null","sound/msl/cow.wav","null","audio-keyboard-response","123","78107","0.0-1.0-122.0","",""
"null","sound/msl/organ.wav","null","audio-keyboard-response","124","78605","0.0-1.0-123.0","",""
"null","sound/msl/slide_whistle.wav","null","audio-keyboard-response","125","79107","0.0-1.0-124.0","",""
"null","sound/msl/dog.wav","null","audio-keyboard-response","126","79617","0.0-1.0-125.0","",""
"null","sound/msl/ding.wav","null","audio-keyboard-response","127","80117","0.0-1.0-126.0","",""
"null","sound/msl/frog.wav","null","audio-keyboard-response","128","80628","0.0-1.0-127.0","",""
"null","sound/msl/cat.wav","null","audio-keyboard-response","129","81125","0.0-1.0-128.0","",""
"null","sound/msl/door_bell.wav","null","audio-keyboard-response","130","81627","0.0-1.0-129.0","",""
"null","sound/msl/bird.wav","null","audio-keyboard-response","131","82137","0.0-1.0-130.0","",""
"null","sound/msl/clock.wav","null","audio-keyboard-response","132","82687","0.0-1.0-131.0","",""
"null","sound/msl/organ.wav","null","audio-keyboard-response","133","83187","0.0-1.0-132.0","",""
"null","sound/msl/slide_whistle.wav","null","audio-keyboard-response","134","83688","0.0-1.0-133.0","",""
"null","sound/msl/dog.wav","null","audio-keyboard-response","135","84187","0.0-1.0-134.0","",""
"null","sound/msl/boing.wav","null","audio-keyboard-response","136","84687","0.0-1.0-135.0","",""
"null","sound/msl/Water.wav","null","audio-keyboard-response","137","85197","0.0-1.0-136.0","",""
"null","sound/msl/duck.wav","null","audio-keyboard-response","138","85705","0.0-1.0-137.0","",""
"null","sound/msl/door_bell.wav","null","audio-keyboard-response","139","86218","0.0-1.0-138.0","",""
"null","sound/msl/bird.wav","null","audio-keyboard-response","140","86717","0.0-1.0-139.0","",""
"null","sound/msl/clock.wav","null","audio-keyboard-response","141","87267","0.0-1.0-140.0","",""
"null","sound/msl/goat.wav","null","audio-keyboard-response","142","87808","0.0-1.0-141.0","",""
"null","sound/msl/door.wav","null","audio-keyboard-response","143","88307","0.0-1.0-142.0","",""
"null","sound/msl/cow.wav","null","audio-keyboard-response","144","88817","0.0-1.0-143.0","",""
"null","sound/msl/ding.wav","null","audio-keyboard-response","145","89317","0.0-1.0-144.0","",""
"null","sound/msl/frog.wav","null","audio-keyboard-response","146","89825","0.0-1.0-145.0","",""
"null","sound/msl/cat.wav","null","audio-keyboard-response","147","90327","0.0-1.0-146.0","",""
"null","sound/msl/boing.wav","null","audio-keyboard-response","148","90827","0.0-1.0-147.0","",""
"null","sound/msl/Water.wav","null","audio-keyboard-response","149","91337","0.0-1.0-148.0","",""
"null","sound/msl/duck.wav","null","audio-keyboard-response","150","91837","0.0-1.0-149.0","",""
"null","sound/msl/goat.wav","null","audio-keyboard-response","151","92376","0.0-1.0-150.0","",""
"null","sound/msl/door.wav","null","audio-keyboard-response","152","92877","0.0-1.0-151.0","",""
"null","sound/msl/cow.wav","null","audio-keyboard-response","153","93386","0.0-1.0-152.0","",""
"null","sound/msl/organ.wav","null","audio-keyboard-response","154","93887","0.0-1.0-153.0","",""
"null","sound/msl/slide_whistle.wav","null","audio-keyboard-response","155","94386","0.0-1.0-154.0","",""
"null","sound/msl/dog.wav","null","audio-keyboard-response","156","94897","0.0-1.0-155.0","",""
"null","sound/msl/door_bell.wav","null","audio-keyboard-response","157","95395","0.0-1.0-156.0","",""
"null","sound/msl/bird.wav","null","audio-keyboard-response","158","95907","0.0-1.0-157.0","",""
"null","sound/msl/clock.wav","null","audio-keyboard-response","159","96455","0.0-1.0-158.0","",""
"null","sound/msl/ding.wav","null","audio-keyboard-response","160","96957","0.0-1.0-159.0","",""
"null","sound/msl/frog.wav","null","audio-keyboard-response","161","97466","0.0-1.0-160.0","",""
"null","sound/msl/cat.wav","null","audio-keyboard-response","162","97967","0.0-1.0-161.0","",""
"null","sound/msl/organ.wav","null","audio-keyboard-response","163","98466","0.0-1.0-162.0","",""
"null","sound/msl/slide_whistle.wav","null","audio-keyboard-response","164","98967","0.0-1.0-163.0","",""
"null","sound/msl/dog.wav","null","audio-keyboard-response","165","99467","0.0-1.0-164.0","",""
"null","sound/msl/door_bell.wav","null","audio-keyboard-response","166","99977","0.0-1.0-165.0","",""
"null","sound/msl/bird.wav","null","audio-keyboard-response","167","100477","0.0-1.0-166.0","",""
"null","sound/msl/clock.wav","null","audio-keyboard-response","168","101027","0.0-1.0-167.0","",""
"null","sound/msl/goat.wav","null","audio-keyboard-response","169","101567","0.0-1.0-168.0","",""
"null","sound/msl/door.wav","null","audio-keyboard-response","170","102067","0.0-1.0-169.0","",""
"null","sound/msl/cow.wav","null","audio-keyboard-response","171","102577","0.0-1.0-170.0","",""
"null","sound/msl/boing.wav","null","audio-keyboard-response","172","103077","0.0-1.0-171.0","",""
"null","sound/msl/Water.wav","null","audio-keyboard-response","173","103587","0.0-1.0-172.0","",""
"null","sound/msl/duck.wav","null","audio-keyboard-response","174","104097","0.0-1.0-173.0","",""
"null","sound/msl/ding.wav","null","audio-keyboard-response","175","104597","0.0-1.0-174.0","",""
"null","sound/msl/frog.wav","null","audio-keyboard-response","176","105107","0.0-1.0-175.0","",""
"null","sound/msl/cat.wav","null","audio-keyboard-response","177","105608","0.0-1.0-176.0","",""
"null","sound/msl/organ.wav","null","audio-keyboard-response","178","106107","0.0-1.0-177.0","",""
"null","sound/msl/slide_whistle.wav","null","audio-keyboard-response","179","106607","0.0-1.0-178.0","",""
"null","sound/msl/dog.wav","null","audio-keyboard-response","180","107107","0.0-1.0-179.0","",""
"null","sound/msl/boing.wav","null","audio-keyboard-response","181","107608","0.0-1.0-180.0","",""
"null","sound/msl/Water.wav","null","audio-keyboard-response","182","108117","0.0-1.0-181.0","",""
"null","sound/msl/duck.wav","null","audio-keyboard-response","183","108627","0.0-1.0-182.0","",""
"null","sound/msl/door_bell.wav","null","audio-keyboard-response","184","109137","0.0-1.0-183.0","",""
"null","sound/msl/bird.wav","null","audio-keyboard-response","185","109637","0.0-1.0-184.0","",""
"null","sound/msl/clock.wav","null","audio-keyboard-response","186","110187","0.0-1.0-185.0","",""
"null","sound/msl/goat.wav","null","audio-keyboard-response","187","110728","0.0-1.0-186.0","",""
"null","sound/msl/door.wav","null","audio-keyboard-response","188","111226","0.0-1.0-187.0","",""
"null","sound/msl/cow.wav","null","audio-keyboard-response","189","111737","0.0-1.0-188.0","",""
"null","sound/msl/ding.wav","null","audio-keyboard-response","190","112238","0.0-1.0-189.0","",""
"null","sound/msl/frog.wav","null","audio-keyboard-response","191","112747","0.0-1.0-190.0","",""
"null","sound/msl/cat.wav","null","audio-keyboard-response","192","113248","0.0-1.0-191.0","",""
"null","sound/msl/organ.wav","null","audio-keyboard-response","193","113747","0.0-1.0-192.0","",""
"null","sound/msl/slide_whistle.wav","null","audio-keyboard-response","194","114246","0.0-1.0-193.0","",""
"null","sound/msl/dog.wav","null","audio-keyboard-response","195","114746","0.0-1.0-194.0","",""
"null","sound/msl/boing.wav","null","audio-keyboard-response","196","115247","0.0-1.0-195.0","",""
"null","sound/msl/Water.wav","null","audio-keyboard-response","197","115755","0.0-1.0-196.0","",""
"null","sound/msl/duck.wav","null","audio-keyboard-response","198","116266","0.0-1.0-197.0","",""
"null","sound/msl/goat.wav","null","audio-keyboard-response","199","116807","0.0-1.0-198.0","",""
"null","sound/msl/door.wav","null","audio-keyboard-response","200","117306","0.0-1.0-199.0","",""
"null","sound/msl/cow.wav","null","audio-keyboard-response","201","117818","0.0-1.0-200.0","",""
"null","sound/msl/door_bell.wav","null","audio-keyboard-response","202","118317","0.0-1.0-201.0","",""
"null","sound/msl/bird.wav","null","audio-keyboard-response","203","118827","0.0-1.0-202.0","",""
"null","sound/msl/clock.wav","null","audio-keyboard-response","204","119376","0.0-1.0-203.0","",""
"null","sound/msl/ding.wav","null","audio-keyboard-response","205","119877","0.0-1.0-204.0","",""
"null","sound/msl/frog.wav","null","audio-keyboard-response","206","120387","0.0-1.0-205.0","",""
"null","sound/msl/cat.wav","null","audio-keyboard-response","207","120887","0.0-1.0-206.0","",""
"null","sound/msl/organ.wav","null","audio-keyboard-response","208","121387","0.0-1.0-207.0","",""
"null","sound/msl/slide_whistle.wav","null","audio-keyboard-response","209","121887","0.0-1.0-208.0","",""
"null","sound/msl/dog.wav","null","audio-keyboard-response","210","122387","0.0-1.0-209.0","",""
"null","sound/msl/goat.wav","null","audio-keyboard-response","211","122927","0.0-1.0-210.0","",""
"null","sound/msl/door.wav","null","audio-keyboard-response","212","123427","0.0-1.0-211.0","",""
"null","sound/msl/cow.wav","null","audio-keyboard-response","213","123936","0.0-1.0-212.0","",""
"null","sound/msl/ding.wav","null","audio-keyboard-response","214","124438","0.0-1.0-213.0","",""
"null","sound/msl/frog.wav","null","audio-keyboard-response","215","124946","0.0-1.0-214.0","",""
"null","sound/msl/cat.wav","null","audio-keyboard-response","216","125447","0.0-1.0-215.0","",""
"null","sound/msl/boing.wav","null","audio-keyboard-response","217","125948","0.0-1.0-216.0","",""
"null","sound/msl/Water.wav","null","audio-keyboard-response","218","126456","0.0-1.0-217.0","",""
"null","sound/msl/duck.wav","null","audio-keyboard-response","219","126957","0.0-1.0-218.0","",""
"null","sound/msl/door_bell.wav","null","audio-keyboard-response","220","127468","0.0-1.0-219.0","",""
"null","sound/msl/bird.wav","null","audio-keyboard-response","221","127977","0.0-1.0-220.0","",""
"null","sound/msl/clock.wav","null","audio-keyboard-response","222","128527","0.0-1.0-221.0","",""
"null","sound/msl/organ.wav","null","audio-keyboard-response","223","129026","0.0-1.0-222.0","",""
"null","sound/msl/slide_whistle.wav","null","audio-keyboard-response","224","129527","0.0-1.0-223.0","",""
"null","sound/msl/dog.wav","null","audio-keyboard-response","225","130027","0.0-1.0-224.0","",""
"null","sound/msl/boing.wav","null","audio-keyboard-response","226","130527","0.0-1.0-225.0","",""
"null","sound/msl/Water.wav","null","audio-keyboard-response","227","131037","0.0-1.0-226.0","",""
"null","sound/msl/duck.wav","null","audio-keyboard-response","228","131547","0.0-1.0-227.0","",""
"null","sound/msl/ding.wav","null","audio-keyboard-response","229","132057","0.0-1.0-228.0","",""
"null","sound/msl/frog.wav","null","audio-keyboard-response","230","132558","0.0-1.0-229.0","",""
"null","sound/msl/cat.wav","null","audio-keyboard-response","231","133055","0.0-1.0-230.0","",""
"null","sound/msl/boing.wav","null","audio-keyboard-response","232","133557","0.0-1.0-231.0","",""
"null","sound/msl/Water.wav","null","audio-keyboard-response","233","134066","0.0-1.0-232.0","",""
"null","sound/msl/duck.wav","null","audio-keyboard-response","234","134577","0.0-1.0-233.0","",""
"null","sound/msl/organ.wav","null","audio-keyboard-response","235","135075","0.0-1.0-234.0","",""
"null","sound/msl/slide_whistle.wav","null","audio-keyboard-response","236","135578","0.0-1.0-235.0","",""
"null","sound/msl/dog.wav","null","audio-keyboard-response","237","136078","0.0-1.0-236.0","",""
"null","sound/msl/door_bell.wav","null","audio-keyboard-response","238","136588","0.0-1.0-237.0","",""
"null","sound/msl/bird.wav","null","audio-keyboard-response","239","137097","0.0-1.0-238.0","",""
"null","sound/msl/clock.wav","null","audio-keyboard-response","240","137648","0.0-1.0-239.0","",""
"null","sound/msl/goat.wav","null","audio-keyboard-response","241","138187","0.0-1.0-240.0","",""
"null","sound/msl/door.wav","null","audio-keyboard-response","242","138687","0.0-1.0-241.0","",""
"null","sound/msl/cow.wav","null","audio-keyboard-response","243","139187","0.0-1.0-242.0","",""
"null","sound/msl/ding.wav","null","audio-keyboard-response","244","139697","0.0-1.0-243.0","",""
"null","sound/msl/frog.wav","null","audio-keyboard-response","245","140198","0.0-1.0-244.0","",""
"null","sound/msl/cat.wav","null","audio-keyboard-response","246","140697","0.0-1.0-245.0","",""
"null","sound/msl/organ.wav","null","audio-keyboard-response","247","141197","0.0-1.0-246.0","",""
"null","sound/msl/slide_whistle.wav","null","audio-keyboard-response","248","141697","0.0-1.0-247.0","",""
"null","sound/msl/dog.wav","null","audio-keyboard-response","249","142197","0.0-1.0-248.0","",""
"null","sound/msl/door_bell.wav","null","audio-keyboard-response","250","142706","0.0-1.0-249.0","",""
"null","sound/msl/bird.wav","null","audio-keyboard-response","251","143219","0.0-1.0-250.0","",""
"null","sound/msl/clock.wav","null","audio-keyboard-response","252","143767","0.0-1.0-251.0","",""
"null","sound/msl/goat.wav","null","audio-keyboard-response","253","144307","0.0-1.0-252.0","",""
"null","sound/msl/door.wav","null","audio-keyboard-response","254","144808","0.0-1.0-253.0","",""
"null","sound/msl/cow.wav","null","audio-keyboard-response","255","145308","0.0-1.0-254.0","",""
"null","sound/msl/boing.wav","null","audio-keyboard-response","256","145807","0.0-1.0-255.0","",""
"null","sound/msl/Water.wav","null","audio-keyboard-response","257","146317","0.0-1.0-256.0","",""
"null","sound/msl/duck.wav","null","audio-keyboard-response","258","146827","0.0-1.0-257.0","",""
"null","sound/msl/ding.wav","null","audio-keyboard-response","259","147337","0.0-1.0-258.0","",""
"null","sound/msl/frog.wav","null","audio-keyboard-response","260","147837","0.0-1.0-259.0","",""
"null","sound/msl/cat.wav","null","audio-keyboard-response","261","148338","0.0-1.0-260.0","",""
"null","sound/msl/goat.wav","null","audio-keyboard-response","262","148877","0.0-1.0-261.0","",""
"null","sound/msl/door.wav","null","audio-keyboard-response","263","149376","0.0-1.0-262.0","",""
"null","sound/msl/cow.wav","null","audio-keyboard-response","264","149877","0.0-1.0-263.0","",""
"null","sound/msl/door_bell.wav","null","audio-keyboard-response","265","150385","0.0-1.0-264.0","",""
"null","sound/msl/bird.wav","null","audio-keyboard-response","266","150897","0.0-1.0-265.0","",""
"null","sound/msl/clock.wav","null","audio-keyboard-response","267","151447","0.0-1.0-266.0","",""
"null","sound/msl/boing.wav","null","audio-keyboard-response","268","151948","0.0-1.0-267.0","",""
"null","sound/msl/Water.wav","null","audio-keyboard-response","269","152456","0.0-1.0-268.0","",""
"null","sound/msl/duck.wav","null","audio-keyboard-response","270","152956","0.0-1.0-269.0","",""
"null","sound/msl/organ.wav","null","audio-keyboard-response","271","153457","0.0-1.0-270.0","",""
"null","sound/msl/slide_whistle.wav","null","audio-keyboard-response","272","153956","0.0-1.0-271.0","",""
"null","sound/msl/dog.wav","null","audio-keyboard-response","273","154467","0.0-1.0-272.0","",""
"null","sound/msl/ding.wav","null","audio-keyboard-response","274","154976","0.0-1.0-273.0","",""
"null","sound/msl/frog.wav","null","audio-keyboard-response","275","155477","0.0-1.0-274.0","",""
"null","sound/msl/cat.wav","null","audio-keyboard-response","276","155976","0.0-1.0-275.0","",""
"null","sound/msl/goat.wav","null","audio-keyboard-response","277","156518","0.0-1.0-276.0","",""
"null","sound/msl/door.wav","null","audio-keyboard-response","278","157018","0.0-1.0-277.0","",""
"null","sound/msl/cow.wav","null","audio-keyboard-response","279","157517","0.0-1.0-278.0","",""
"null","sound/msl/door_bell.wav","null","audio-keyboard-response","280","158027","0.0-1.0-279.0","",""
"null","sound/msl/bird.wav","null","audio-keyboard-response","281","158537","0.0-1.0-280.0","",""
"null","sound/msl/clock.wav","null","audio-keyboard-response","282","159088","0.0-1.0-281.0","",""
"null","sound/msl/organ.wav","null","audio-keyboard-response","283","159588","0.0-1.0-282.0","",""
"null","sound/msl/slide_whistle.wav","null","audio-keyboard-response","284","160087","0.0-1.0-283.0","",""
"null","sound/msl/dog.wav","null","audio-keyboard-response","285","160586","0.0-1.0-284.0","",""
"null","sound/msl/boing.wav","null","audio-keyboard-response","286","161088","0.0-1.0-285.0","",""
"null","sound/msl/Water.wav","null","audio-keyboard-response","287","161598","0.0-1.0-286.0","",""
"null","sound/msl/duck.wav","null","audio-keyboard-response","288","162107","0.0-1.0-287.0","",""
"null","sound/msl/ding.wav","null","audio-keyboard-response","289","162617","0.0-1.0-288.0","",""
"null","sound/msl/frog.wav","null","audio-keyboard-response","290","163117","0.0-1.0-289.0","",""
"null","sound/msl/cat.wav","null","audio-keyboard-response","291","163618","0.0-1.0-290.0","",""
"null","sound/msl/door_bell.wav","null","audio-keyboard-response","292","164117","0.0-1.0-291.0","",""
"null","sound/msl/bird.wav","null","audio-keyboard-response","293","164627","0.0-1.0-292.0","",""
"null","sound/msl/clock.wav","null","audio-keyboard-response","294","165177","0.0-1.0-293.0","",""
"null","sound/msl/goat.wav","null","audio-keyboard-response","295","165716","0.0-1.0-294.0","",""
"null","sound/msl/door.wav","null","audio-keyboard-response","296","166217","0.0-1.0-295.0","",""
"null","sound/msl/cow.wav","null","audio-keyboard-response","297","166717","0.0-1.0-296.0","",""
"null","sound/msl/ding.wav","null","audio-keyboard-response","298","167227","0.0-1.0-297.0","",""
"null","sound/msl/frog.wav","null","audio-keyboard-response","299","167737","0.0-1.0-298.0","",""
"null","sound/msl/cat.wav","null","audio-keyboard-response","300","168238","0.0-1.0-299.0","",""
"null","sound/msl/organ.wav","null","audio-keyboard-response","301","168737","0.0-1.0-300.0","",""
"null","sound/msl/slide_whistle.wav","null","audio-keyboard-response","302","169238","0.0-1.0-301.0","",""
"null","sound/msl/dog.wav","null","audio-keyboard-response","303","169747","0.0-1.0-302.0","",""
"null","sound/msl/door_bell.wav","null","audio-keyboard-response","304","170257","0.0-1.0-303.0","",""
"null","sound/msl/bird.wav","null","audio-keyboard-response","305","170758","0.0-1.0-304.0","",""
"null","sound/msl/clock.wav","null","audio-keyboard-response","306","171307","0.0-1.0-305.0","",""
"null","sound/msl/boing.wav","null","audio-keyboard-response","307","171807","0.0-1.0-306.0","",""
"null","sound/msl/Water.wav","null","audio-keyboard-response","308","172317","0.0-1.0-307.0","",""
"null","sound/msl/duck.wav","null","audio-keyboard-response","309","172827","0.0-1.0-308.0","",""
"null","sound/msl/goat.wav","null","audio-keyboard-response","310","173366","0.0-1.0-309.0","",""
"null","sound/msl/door.wav","null","audio-keyboard-response","311","173867","0.0-1.0-310.0","",""
"null","sound/msl/cow.wav","null","audio-keyboard-response","312","174375","0.0-1.0-311.0","",""
"null","sound/msl/ding.wav","null","audio-keyboard-response","313","174876","0.0-1.0-312.0","",""
"null","sound/msl/frog.wav","null","audio-keyboard-response","314","175386","0.0-1.0-313.0","",""
"null","sound/msl/cat.wav","null","audio-keyboard-response","315","175886","0.0-1.0-314.0","",""
"null","sound/msl/organ.wav","null","audio-keyboard-response","316","176385","0.0-1.0-315.0","",""
"null","sound/msl/slide_whistle.wav","null","audio-keyboard-response","317","176885","0.0-1.0-316.0","",""
"null","sound/msl/dog.wav","null","audio-keyboard-response","318","177386","0.0-1.0-317.0","",""
"null","sound/msl/door_bell.wav","null","audio-keyboard-response","319","177897","0.0-1.0-318.0","",""
"null","sound/msl/bird.wav","null","audio-keyboard-response","320","178396","0.0-1.0-319.0","",""
"null","sound/msl/clock.wav","null","audio-keyboard-response","321","178947","0.0-1.0-320.0","",""
"null","sound/msl/goat.wav","null","audio-keyboard-response","322","179486","0.0-1.0-321.0","",""
"null","sound/msl/door.wav","null","audio-keyboard-response","323","179987","0.0-1.0-322.0","",""
"null","sound/msl/cow.wav","null","audio-keyboard-response","324","180497","0.0-1.0-323.0","",""
"null","sound/msl/organ.wav","null","audio-keyboard-response","325","180997","0.0-1.0-324.0","",""
"null","sound/msl/slide_whistle.wav","null","audio-keyboard-response","326","181497","0.0-1.0-325.0","",""
"null","sound/msl/dog.wav","null","audio-keyboard-response","327","181997","0.0-1.0-326.0","",""
"null","sound/msl/boing.wav","null","audio-keyboard-response","328","182497","0.0-1.0-327.0","",""
"null","sound/msl/Water.wav","null","audio-keyboard-response","329","183007","0.0-1.0-328.0","",""
"null","sound/msl/duck.wav","null","audio-keyboard-response","330","183507","0.0-1.0-329.0","",""
"null","sound/msl/ding.wav","null","audio-keyboard-response","331","184018","0.0-1.0-330.0","",""
"null","sound/msl/frog.wav","null","audio-keyboard-response","332","184517","0.0-1.0-331.0","",""
"null","sound/msl/cat.wav","null","audio-keyboard-response","333","185017","0.0-1.0-332.0","",""
"null","sound/msl/door_bell.wav","null","audio-keyboard-response","334","185518","0.0-1.0-333.0","",""
"null","sound/msl/bird.wav","null","audio-keyboard-response","335","186027","0.0-1.0-334.0","",""
"null","sound/msl/clock.wav","null","audio-keyboard-response","336","186578","0.0-1.0-335.0","",""
"null","sound/msl/boing.wav","null","audio-keyboard-response","337","187077","0.0-1.0-336.0","",""
"null","sound/msl/Water.wav","null","audio-keyboard-response","338","187588","0.0-1.0-337.0","",""
"null","sound/msl/duck.wav","null","audio-keyboard-response","339","188097","0.0-1.0-338.0","",""
"null","sound/msl/goat.wav","null","audio-keyboard-response","340","188637","0.0-1.0-339.0","",""
"null","sound/msl/door.wav","null","audio-keyboard-response","341","189136","0.0-1.0-340.0","",""
"null","sound/msl/cow.wav","null","audio-keyboard-response","342","189637","0.0-1.0-341.0","",""
"null","sound/msl/door_bell.wav","null","audio-keyboard-response","343","190147","0.0-1.0-342.0","",""
"null","sound/msl/bird.wav","null","audio-keyboard-response","344","190657","0.0-1.0-343.0","",""
"null","sound/msl/clock.wav","null","audio-keyboard-response","345","191207","0.0-1.0-344.0","",""
"null","sound/msl/goat.wav","null","audio-keyboard-response","346","191747","0.0-1.0-345.0","",""
"null","sound/msl/door.wav","null","audio-keyboard-response","347","192247","0.0-1.0-346.0","",""
"null","sound/msl/cow.wav","null","audio-keyboard-response","348","192747","0.0-1.0-347.0","",""
"null","sound/msl/boing.wav","null","audio-keyboard-response","349","193247","0.0-1.0-348.0","",""
"null","sound/msl/Water.wav","null","audio-keyboard-response","350","193758","0.0-1.0-349.0","",""
"null","sound/msl/duck.wav","null","audio-keyboard-response","351","194268","0.0-1.0-350.0","",""
"null","sound/msl/ding.wav","null","audio-keyboard-response","352","194777","0.0-1.0-351.0","",""
"null","sound/msl/frog.wav","null","audio-keyboard-response","353","195277","0.0-1.0-352.0","",""
"null","sound/msl/cat.wav","null","audio-keyboard-response","354","195776","0.0-1.0-353.0","",""
"null","sound/msl/door_bell.wav","null","audio-keyboard-response","355","196278","0.0-1.0-354.0","",""
"null","sound/msl/bird.wav","null","audio-keyboard-response","356","196786","0.0-1.0-355.0","",""
"null","sound/msl/clock.wav","null","audio-keyboard-response","357","197337","0.0-1.0-356.0","",""
"null","sound/msl/goat.wav","null","audio-keyboard-response","358","197875","0.0-1.0-357.0","",""
"null","sound/msl/door.wav","null","audio-keyboard-response","359","198375","0.0-1.0-358.0","",""
"null","sound/msl/cow.wav","null","audio-keyboard-response","360","198875","0.0-1.0-359.0","",""
"10737","Instructions2-eng.png","49","image-keyboard-response","361","209615","0.0-2.0","",""
"null","sound/msl/door_bell.wav","null","audio-keyboard-response","362","210108","0.0-3.0-0.0","",""
"null","sound/msl/bird.wav","null","audio-keyboard-response","363","210615","0.0-3.0-1.0","",""
"null","sound/msl/clock.wav","null","audio-keyboard-response","364","211167","0.0-3.0-2.0","",""
"null","sound/asl/silence.wav","null","audio-keyboard-response","365","211669","0.0-3.0-3.0","",""
"null","sound/msl/door_bell.wav","null","audio-keyboard-response","366","212177","0.0-3.0-4.0","",""
"null","sound/msl/frog.wav","null","audio-keyboard-response","367","212677","0.0-3.0-5.0","",""
"null","sound/msl/cow.wav","null","audio-keyboard-response","368","213186","0.0-3.0-6.0","",""
"2560","sound/asl/silence.wav","49","audio-keyboard-response","369","215749","0.0-3.0-7.0","true",""
"null","sound/msl/boing.wav","null","audio-keyboard-response","370","216246","0.0-4.0-0.0","",""
"null","sound/msl/Water.wav","null","audio-keyboard-response","371","216756","0.0-4.0-1.0","",""
"null","sound/msl/duck.wav","null","audio-keyboard-response","372","217265","0.0-4.0-2.0","",""
"null","sound/asl/silence.wav","null","audio-keyboard-response","373","217766","0.0-4.0-3.0","",""
"null","sound/msl/ding.wav","null","audio-keyboard-response","374","218268","0.0-4.0-4.0","",""
"null","sound/msl/door.wav","null","audio-keyboard-response","375","218765","0.0-4.0-5.0","",""
"null","sound/msl/dog.wav","null","audio-keyboard-response","376","219267","0.0-4.0-6.0","",""
"979","sound/asl/silence.wav","49","audio-keyboard-response","377","220254","0.0-4.0-7.0","true",""
"null","sound/msl/boing.wav","null","audio-keyboard-response","378","220757","0.0-5.0-0.0","",""
"null","sound/msl/bird.wav","null","audio-keyboard-response","379","221267","0.0-5.0-1.0","",""
"null","sound/msl/cat.wav","null","audio-keyboard-response","380","221767","0.0-5.0-2.0","",""
"null","sound/asl/silence.wav","null","audio-keyboard-response","381","222268","0.0-5.0-3.0","",""
"null","sound/msl/door_bell.wav","null","audio-keyboard-response","382","222777","0.0-5.0-4.0","",""
"null","sound/msl/bird.wav","null","audio-keyboard-response","383","223277","0.0-5.0-5.0","",""
"null","sound/msl/clock.wav","null","audio-keyboard-response","384","223827","0.0-5.0-6.0","",""
"1011","sound/asl/silence.wav","50","audio-keyboard-response","385","224847","0.0-5.0-7.0","true",""
"null","sound/msl/goat.wav","null","audio-keyboard-response","386","225386","0.0-6.0-0.0","",""
"null","sound/msl/slide_whistle.wav","null","audio-keyboard-response","387","225887","0.0-6.0-1.0","",""
"null","sound/msl/duck.wav","null","audio-keyboard-response","388","226386","0.0-6.0-2.0","",""
"null","sound/asl/silence.wav","null","audio-keyboard-response","389","226887","0.0-6.0-3.0","",""
"null","sound/msl/ding.wav","null","audio-keyboard-response","390","227386","0.0-6.0-4.0","",""
"null","sound/msl/frog.wav","null","audio-keyboard-response","391","227898","0.0-6.0-5.0","",""
"null","sound/msl/cat.wav","null","audio-keyboard-response","392","228396","0.0-6.0-6.0","",""
"7248","sound/asl/silence.wav","49","audio-keyboard-response","393","235654","0.0-6.0-7.0","false",""
"null","sound/msl/organ.wav","null","audio-keyboard-response","394","236148","0.0-7.0-0.0","",""
"null","sound/msl/slide_whistle.wav","null","audio-keyboard-response","395","236648","0.0-7.0-1.0","",""
"null","sound/msl/dog.wav","null","audio-keyboard-response","396","237147","0.0-7.0-2.0","",""
"null","sound/asl/silence.wav","null","audio-keyboard-response","397","237648","0.0-7.0-3.0","",""
"null","sound/msl/organ.wav","null","audio-keyboard-response","398","238147","0.0-7.0-4.0","",""
"null","sound/msl/Water.wav","null","audio-keyboard-response","399","238656","0.0-7.0-5.0","",""
"null","sound/msl/clock.wav","null","audio-keyboard-response","400","239208","0.0-7.0-6.0","",""
"901","sound/asl/silence.wav","50","audio-keyboard-response","401","240110","0.0-7.0-7.0","false",""
"null","sound/msl/door_bell.wav","null","audio-keyboard-response","402","240617","0.0-8.0-0.0","",""
"null","sound/msl/bird.wav","null","audio-keyboard-response","403","241117","0.0-8.0-1.0","",""
"null","sound/msl/clock.wav","null","audio-keyboard-response","404","241667","0.0-8.0-2.0","",""
"null","sound/asl/silence.wav","null","audio-keyboard-response","405","242169","0.0-8.0-3.0","",""
"null","sound/msl/ding.wav","null","audio-keyboard-response","406","242666","0.0-8.0-4.0","",""
"null","sound/msl/door.wav","null","audio-keyboard-response","407","243167","0.0-8.0-5.0","",""
"null","sound/msl/dog.wav","null","audio-keyboard-response","408","243667","0.0-8.0-6.0","",""
"779","sound/asl/silence.wav","49","audio-keyboard-response","409","244453","0.0-8.0-7.0","true",""
"null","sound/msl/goat.wav","null","audio-keyboard-response","410","244987","0.0-9.0-0.0","",""
"null","sound/msl/door.wav","null","audio-keyboard-response","411","245486","0.0-9.0-1.0","",""
"null","sound/msl/cow.wav","null","audio-keyboard-response","412","245986","0.0-9.0-2.0","",""
"null","sound/asl/silence.wav","null","audio-keyboard-response","413","246487","0.0-9.0-3.0","",""
"null","sound/msl/ding.wav","null","audio-keyboard-response","414","246986","0.0-9.0-4.0","",""
"null","sound/msl/door.wav","null","audio-keyboard-response","415","247486","0.0-9.0-5.0","",""
"null","sound/msl/dog.wav","null","audio-keyboard-response","416","247986","0.0-9.0-6.0","",""
"731","sound/asl/silence.wav","49","audio-keyboard-response","417","248718","0.0-9.0-7.0","true",""
"null","sound/msl/boing.wav","null","audio-keyboard-response","418","249218","0.0-10.0-0.0","",""
"null","sound/msl/bird.wav","null","audio-keyboard-response","419","249718","0.0-10.0-1.0","",""
"null","sound/msl/cat.wav","null","audio-keyboard-response","420","250218","0.0-10.0-2.0","",""
"null","sound/asl/silence.wav","null","audio-keyboard-response","421","250719","0.0-10.0-3.0","",""
"null","sound/msl/boing.wav","null","audio-keyboard-response","422","251216","0.0-10.0-4.0","",""
"null","sound/msl/Water.wav","null","audio-keyboard-response","423","251727","0.0-10.0-5.0","",""
"null","sound/msl/duck.wav","null","audio-keyboard-response","424","252226","0.0-10.0-6.0","",""
"931","sound/asl/silence.wav","50","audio-keyboard-response","425","253166","0.0-10.0-7.0","true",""
"null","sound/msl/goat.wav","null","audio-keyboard-response","426","253708","0.0-11.0-0.0","",""
"null","sound/msl/door.wav","null","audio-keyboard-response","427","254207","0.0-11.0-1.0","",""
"null","sound/msl/cow.wav","null","audio-keyboard-response","428","254708","0.0-11.0-2.0","",""
"null","sound/asl/silence.wav","null","audio-keyboard-response","429","255210","0.0-11.0-3.0","",""
"null","sound/msl/door_bell.wav","null","audio-keyboard-response","430","255706","0.0-11.0-4.0","",""
"null","sound/msl/frog.wav","null","audio-keyboard-response","431","256217","0.0-11.0-5.0","",""
"null","sound/msl/cow.wav","null","audio-keyboard-response","432","256717","0.0-11.0-6.0","",""
"4680","sound/asl/silence.wav","49","audio-keyboard-response","433","261397","0.0-11.0-7.0","true",""
"null","sound/msl/goat.wav","null","audio-keyboard-response","434","261937","0.0-12.0-0.0","",""
"null","sound/msl/slide_whistle.wav","null","audio-keyboard-response","435","262435","0.0-12.0-1.0","",""
"null","sound/msl/duck.wav","null","audio-keyboard-response","436","262946","0.0-12.0-2.0","",""
"null","sound/asl/silence.wav","null","audio-keyboard-response","437","263448","0.0-12.0-3.0","",""
"null","sound/msl/goat.wav","null","audio-keyboard-response","438","263987","0.0-12.0-4.0","",""
"null","sound/msl/door.wav","null","audio-keyboard-response","439","264487","0.0-12.0-5.0","",""
"null","sound/msl/cow.wav","null","audio-keyboard-response","440","264987","0.0-12.0-6.0","",""
"720","sound/asl/silence.wav","50","audio-keyboard-response","441","265710","0.0-12.0-7.0","true",""
"null","sound/msl/organ.wav","null","audio-keyboard-response","442","266207","0.0-13.0-0.0","",""
"null","sound/msl/Water.wav","null","audio-keyboard-response","443","266718","0.0-13.0-1.0","",""
"null","sound/msl/clock.wav","null","audio-keyboard-response","444","267267","0.0-13.0-2.0","",""
"null","sound/asl/silence.wav","null","audio-keyboard-response","445","267770","0.0-13.0-3.0","",""
"null","sound/msl/boing.wav","null","audio-keyboard-response","446","268267","0.0-13.0-4.0","",""
"null","sound/msl/Water.wav","null","audio-keyboard-response","447","268777","0.0-13.0-5.0","",""
"null","sound/msl/duck.wav","null","audio-keyboard-response","448","269277","0.0-13.0-6.0","",""
"880","sound/asl/silence.wav","49","audio-keyboard-response","449","270158","0.0-13.0-7.0","false",""
"null","sound/msl/ding.wav","null","audio-keyboard-response","450","270667","0.0-14.0-0.0","",""
"null","sound/msl/frog.wav","null","audio-keyboard-response","451","271178","0.0-14.0-1.0","",""
"null","sound/msl/cat.wav","null","audio-keyboard-response","452","271677","0.0-14.0-2.0","",""
"null","sound/asl/silence.wav","null","audio-keyboard-response","453","272178","0.0-14.0-3.0","",""
"null","sound/msl/door_bell.wav","null","audio-keyboard-response","454","272677","0.0-14.0-4.0","",""
"null","sound/msl/frog.wav","null","audio-keyboard-response","455","273186","0.0-14.0-5.0","",""
"null","sound/msl/cow.wav","null","audio-keyboard-response","456","273697","0.0-14.0-6.0","",""
"731","sound/asl/silence.wav","49","audio-keyboard-response","457","274429","0.0-14.0-7.0","true",""
"null","sound/msl/ding.wav","null","audio-keyboard-response","458","274938","0.0-15.0-0.0","",""
"null","sound/msl/frog.wav","null","audio-keyboard-response","459","275435","0.0-15.0-1.0","",""
"null","sound/msl/cat.wav","null","audio-keyboard-response","460","275937","0.0-15.0-2.0","",""
"null","sound/asl/silence.wav","null","audio-keyboard-response","461","276439","0.0-15.0-3.0","",""
"null","sound/msl/ding.wav","null","audio-keyboard-response","462","276947","0.0-15.0-4.0","",""
"null","sound/msl/door.wav","null","audio-keyboard-response","463","277445","0.0-15.0-5.0","",""
"null","sound/msl/dog.wav","null","audio-keyboard-response","464","277948","0.0-15.0-6.0","",""
"931","sound/asl/silence.wav","49","audio-keyboard-response","465","278886","0.0-15.0-7.0","true",""
"null","sound/msl/goat.wav","null","audio-keyboard-response","466","279425","0.0-16.0-0.0","",""
"null","sound/msl/slide_whistle.wav","null","audio-keyboard-response","467","279927","0.0-16.0-1.0","",""
"null","sound/msl/duck.wav","null","audio-keyboard-response","468","280426","0.0-16.0-2.0","",""
"null","sound/asl/silence.wav","null","audio-keyboard-response","469","280927","0.0-16.0-3.0","",""
"null","sound/msl/door_bell.wav","null","audio-keyboard-response","470","281426","0.0-16.0-4.0","",""
"null","sound/msl/bird.wav","null","audio-keyboard-response","471","281937","0.0-16.0-5.0","",""
"null","sound/msl/clock.wav","null","audio-keyboard-response","472","282485","0.0-16.0-6.0","",""
"581","sound/asl/silence.wav","50","audio-keyboard-response","473","283069","0.0-16.0-7.0","true",""
"null","sound/msl/organ.wav","null","audio-keyboard-response","474","283565","0.0-17.0-0.0","",""
"null","sound/msl/slide_whistle.wav","null","audio-keyboard-response","475","284067","0.0-17.0-1.0","",""
"null","sound/msl/dog.wav","null","audio-keyboard-response","476","284577","0.0-17.0-2.0","",""
"null","sound/asl/silence.wav","null","audio-keyboard-response","477","285078","0.0-17.0-3.0","",""
"null","sound/msl/goat.wav","null","audio-keyboard-response","478","285616","0.0-17.0-4.0","",""
"null","sound/msl/slide_whistle.wav","null","audio-keyboard-response","479","286117","0.0-17.0-5.0","",""
"null","sound/msl/duck.wav","null","audio-keyboard-response","480","286627","0.0-17.0-6.0","",""
"840","sound/asl/silence.wav","50","audio-keyboard-response","481","287468","0.0-17.0-7.0","false",""
"null","sound/msl/organ.wav","null","audio-keyboard-response","482","287967","0.0-18.0-0.0","",""
"null","sound/msl/slide_whistle.wav","null","audio-keyboard-response","483","288466","0.0-18.0-1.0","",""
"null","sound/msl/dog.wav","null","audio-keyboard-response","484","288978","0.0-18.0-2.0","",""
"null","sound/asl/silence.wav","null","audio-keyboard-response","485","289479","0.0-18.0-3.0","",""
"null","sound/msl/boing.wav","null","audio-keyboard-response","486","289976","0.0-18.0-4.0","",""
"null","sound/msl/bird.wav","null","audio-keyboard-response","487","290475","0.0-18.0-5.0","",""
"null","sound/msl/cat.wav","null","audio-keyboard-response","488","290977","0.0-18.0-6.0","",""
"3469","sound/asl/silence.wav","49","audio-keyboard-response","489","294453","0.0-18.0-7.0","true",""
"null","sound/msl/organ.wav","null","audio-keyboard-response","490","294947","0.0-19.0-0.0","",""
"null","sound/msl/Water.wav","null","audio-keyboard-response","491","295455","0.0-19.0-1.0","",""
"null","sound/msl/clock.wav","null","audio-keyboard-response","492","296007","0.0-19.0-2.0","",""
"null","sound/asl/silence.wav","null","audio-keyboard-response","493","296509","0.0-19.0-3.0","",""
"null","sound/msl/goat.wav","null","audio-keyboard-response","494","297047","0.0-19.0-4.0","",""
"null","sound/msl/door.wav","null","audio-keyboard-response","495","297548","0.0-19.0-5.0","",""
"null","sound/msl/cow.wav","null","audio-keyboard-response","496","298057","0.0-19.0-6.0","",""
"1120","sound/asl/silence.wav","50","audio-keyboard-response","497","299182","0.0-19.0-7.0","true",""
"null","sound/msl/boing.wav","null","audio-keyboard-response","498","299677","0.0-20.0-0.0","",""
"null","sound/msl/Water.wav","null","audio-keyboard-response","499","300187","0.0-20.0-1.0","",""
"null","sound/msl/duck.wav","null","audio-keyboard-response","500","300697","0.0-20.0-2.0","",""
"null","sound/asl/silence.wav","null","audio-keyboard-response","501","301199","0.0-20.0-3.0","",""
"null","sound/msl/goat.wav","null","audio-keyboard-response","502","301737","0.0-20.0-4.0","",""
"null","sound/msl/slide_whistle.wav","null","audio-keyboard-response","503","302237","0.0-20.0-5.0","",""
"null","sound/msl/duck.wav","null","audio-keyboard-response","504","302747","0.0-20.0-6.0","",""
"2299","sound/asl/silence.wav","49","audio-keyboard-response","505","305054","0.0-20.0-7.0","true",""
"null","sound/msl/door_bell.wav","null","audio-keyboard-response","506","305546","0.0-21.0-0.0","",""
"null","sound/msl/frog.wav","null","audio-keyboard-response","507","306058","0.0-21.0-1.0","",""
"null","sound/msl/cow.wav","null","audio-keyboard-response","508","306555","0.0-21.0-2.0","",""
"null","sound/asl/silence.wav","null","audio-keyboard-response","509","307057","0.0-21.0-3.0","",""
"null","sound/msl/boing.wav","null","audio-keyboard-response","510","307557","0.0-21.0-4.0","",""
"null","sound/msl/Water.wav","null","audio-keyboard-response","511","308067","0.0-21.0-5.0","",""
"null","sound/msl/duck.wav","null","audio-keyboard-response","512","308578","0.0-21.0-6.0","",""
"3040","sound/asl/silence.wav","49","audio-keyboard-response","513","311621","0.0-21.0-7.0","false",""
"null","sound/msl/ding.wav","null","audio-keyboard-response","514","312118","0.0-22.0-0.0","",""
"null","sound/msl/door.wav","null","audio-keyboard-response","515","312617","0.0-22.0-1.0","",""
"null","sound/msl/dog.wav","null","audio-keyboard-response","516","313118","0.0-22.0-2.0","",""
"null","sound/asl/silence.wav","null","audio-keyboard-response","517","313620","0.0-22.0-3.0","",""
"null","sound/msl/organ.wav","null","audio-keyboard-response","518","314117","0.0-22.0-4.0","",""
"null","sound/msl/slide_whistle.wav","null","audio-keyboard-response","519","314617","0.0-22.0-5.0","",""
"null","sound/msl/dog.wav","null","audio-keyboard-response","520","315117","0.0-22.0-6.0","",""
"1989","sound/asl/silence.wav","49","audio-keyboard-response","521","317110","0.0-22.0-7.0","false",""
"null","sound/msl/boing.wav","null","audio-keyboard-response","522","317607","0.0-23.0-0.0","",""
"null","sound/msl/bird.wav","null","audio-keyboard-response","523","318105","0.0-23.0-1.0","",""
"null","sound/msl/cat.wav","null","audio-keyboard-response","524","318608","0.0-23.0-2.0","",""
"null","sound/asl/silence.wav","null","audio-keyboard-response","525","319109","0.0-23.0-3.0","",""
"null","sound/msl/goat.wav","null","audio-keyboard-response","526","319648","0.0-23.0-4.0","",""
"null","sound/msl/door.wav","null","audio-keyboard-response","527","320146","0.0-23.0-5.0","",""
"null","sound/msl/cow.wav","null","audio-keyboard-response","528","320657","0.0-23.0-6.0","",""
"600","sound/asl/silence.wav","50","audio-keyboard-response","529","321260","0.0-23.0-7.0","true",""
"null","sound/msl/door_bell.wav","null","audio-keyboard-response","530","321757","0.0-24.0-0.0","",""
"null","sound/msl/frog.wav","null","audio-keyboard-response","531","322266","0.0-24.0-1.0","",""
"null","sound/msl/cow.wav","null","audio-keyboard-response","532","322777","0.0-24.0-2.0","",""
"null","sound/asl/silence.wav","null","audio-keyboard-response","533","323278","0.0-24.0-3.0","",""
"null","sound/msl/organ.wav","null","audio-keyboard-response","534","323777","0.0-24.0-4.0","",""
"null","sound/msl/slide_whistle.wav","null","audio-keyboard-response","535","324277","0.0-24.0-5.0","",""
"null","sound/msl/dog.wav","null","audio-keyboard-response","536","324787","0.0-24.0-6.0","",""
"1099","sound/asl/silence.wav","50","audio-keyboard-response","537","325893","0.0-24.0-7.0","true",""
"null","sound/msl/ding.wav","null","audio-keyboard-response","538","326387","0.0-25.0-0.0","",""
"null","sound/msl/frog.wav","null","audio-keyboard-response","539","326897","0.0-25.0-1.0","",""
"null","sound/msl/cat.wav","null","audio-keyboard-response","540","327395","0.0-25.0-2.0","",""
"null","sound/asl/silence.wav","null","audio-keyboard-response","541","327896","0.0-25.0-3.0","",""
"null","sound/msl/organ.wav","null","audio-keyboard-response","542","328395","0.0-25.0-4.0","",""
"null","sound/msl/Water.wav","null","audio-keyboard-response","543","328907","0.0-25.0-5.0","",""
"null","sound/msl/clock.wav","null","audio-keyboard-response","544","329456","0.0-25.0-6.0","",""
"360","sound/asl/silence.wav","49","audio-keyboard-response","545","329821","0.0-25.0-7.0","true",""
"null","sound/msl/boing.wav","null","audio-keyboard-response","546","330318","0.0-26.0-0.0","",""
"null","sound/msl/bird.wav","null","audio-keyboard-response","547","330827","0.0-26.0-1.0","",""
"null","sound/msl/cat.wav","null","audio-keyboard-response","548","331327","0.0-26.0-2.0","",""
"null","sound/asl/silence.wav","null","audio-keyboard-response","549","331828","0.0-26.0-3.0","",""
"null","sound/msl/ding.wav","null","audio-keyboard-response","550","332337","0.0-26.0-4.0","",""
"null","sound/msl/frog.wav","null","audio-keyboard-response","551","332837","0.0-26.0-5.0","",""
"null","sound/msl/cat.wav","null","audio-keyboard-response","552","333338","0.0-26.0-6.0","",""
"1461","sound/asl/silence.wav","49","audio-keyboard-response","553","334797","0.0-26.0-7.0","false",""
"null","sound/msl/organ.wav","null","audio-keyboard-response","554","335298","0.0-27.0-0.0","",""
"null","sound/msl/Water.wav","null","audio-keyboard-response","555","335806","0.0-27.0-1.0","",""
"null","sound/msl/clock.wav","null","audio-keyboard-response","556","336358","0.0-27.0-2.0","",""
"null","sound/asl/silence.wav","null","audio-keyboard-response","557","336859","0.0-27.0-3.0","",""
"null","sound/msl/door_bell.wav","null","audio-keyboard-response","558","337359","0.0-27.0-4.0","",""
"null","sound/msl/bird.wav","null","audio-keyboard-response","559","337867","0.0-27.0-5.0","",""
"null","sound/msl/clock.wav","null","audio-keyboard-response","560","338415","0.0-27.0-6.0","",""
"1301","sound/asl/silence.wav","49","audio-keyboard-response","561","339726","0.0-27.0-7.0","false",""
"4659","","","instructions","562","344386","0.0-28.0","","[{""page_index"":0,""viewing_time"":4659}]"
