"rt","stimulus","key_press","trial_type","trial_index","time_elapsed","internal_node_id","correct","view_history"
"5824","alien.jpg","49","image-keyboard-response","0","5825","0.0-0.0","",""
"null","sound/msl/door_bell.wav","null","audio-keyboard-response","1","6328","0.0-1.0-0.0","",""
"null","sound/msl/slide_whistle.wav","null","audio-keyboard-response","2","6828","0.0-1.0-1.0","",""
"null","sound/msl/ding.wav","null","audio-keyboard-response","3","7332","0.0-1.0-2.0","",""
"null","sound/msl/dog.wav","null","audio-keyboard-response","4","7838","0.0-1.0-3.0","",""
"null","sound/msl/cow.wav","null","audio-keyboard-response","5","8342","0.0-1.0-4.0","",""
"null","sound/msl/organ.wav","null","audio-keyboard-response","6","8842","0.0-1.0-5.0","",""
"null","sound/msl/duck.wav","null","audio-keyboard-response","7","9347","0.0-1.0-6.0","",""
"null","sound/msl/goat.wav","null","audio-keyboard-response","8","9881","0.0-1.0-7.0","",""
"null","sound/msl/boing.wav","null","audio-keyboard-response","9","10380","0.0-1.0-8.0","",""
"null","sound/msl/cat.wav","null","audio-keyboard-response","10","10874","0.0-1.0-9.0","",""
"null","sound/msl/bird.wav","null","audio-keyboard-response","11","11378","0.0-1.0-10.0","",""
"null","sound/msl/clock.wav","null","audio-keyboard-response","12","11930","0.0-1.0-11.0","",""
"null","sound/msl/dog.wav","null","audio-keyboard-response","13","12435","0.0-1.0-12.0","",""
"null","sound/msl/cow.wav","null","audio-keyboard-response","14","12940","0.0-1.0-13.0","",""
"null","sound/msl/organ.wav","null","audio-keyboard-response","15","13439","0.0-1.0-14.0","",""
"null","sound/msl/door_bell.wav","null","audio-keyboard-response","16","13944","0.0-1.0-15.0","",""
"null","sound/msl/slide_whistle.wav","null","audio-keyboard-response","17","14444","0.0-1.0-16.0","",""
"null","sound/msl/ding.wav","null","audio-keyboard-response","18","14948","0.0-1.0-17.0","",""
"null","sound/msl/frog.wav","null","audio-keyboard-response","19","15454","0.0-1.0-18.0","",""
"null","sound/msl/Water.wav","null","audio-keyboard-response","20","15964","0.0-1.0-19.0","",""
"null","sound/msl/door.wav","null","audio-keyboard-response","21","16464","0.0-1.0-20.0","",""
"null","sound/msl/cat.wav","null","audio-keyboard-response","22","16957","0.0-1.0-21.0","",""
"null","sound/msl/bird.wav","null","audio-keyboard-response","23","17463","0.0-1.0-22.0","",""
"null","sound/msl/clock.wav","null","audio-keyboard-response","24","18014","0.0-1.0-23.0","",""
"null","sound/msl/duck.wav","null","audio-keyboard-response","25","18519","0.0-1.0-24.0","",""
"null","sound/msl/goat.wav","null","audio-keyboard-response","26","19053","0.0-1.0-25.0","",""
"null","sound/msl/boing.wav","null","audio-keyboard-response","27","19552","0.0-1.0-26.0","",""
"null","sound/msl/door_bell.wav","null","audio-keyboard-response","28","20057","0.0-1.0-27.0","",""
"null","sound/msl/slide_whistle.wav","null","audio-keyboard-response","29","20557","0.0-1.0-28.0","",""
"null","sound/msl/ding.wav","null","audio-keyboard-response","30","21061","0.0-1.0-29.0","",""
"null","sound/msl/dog.wav","null","audio-keyboard-response","31","21567","0.0-1.0-30.0","",""
"null","sound/msl/cow.wav","null","audio-keyboard-response","32","22071","0.0-1.0-31.0","",""
"null","sound/msl/organ.wav","null","audio-keyboard-response","33","22572","0.0-1.0-32.0","",""
"null","sound/msl/frog.wav","null","audio-keyboard-response","34","23076","0.0-1.0-33.0","",""
"null","sound/msl/Water.wav","null","audio-keyboard-response","35","23587","0.0-1.0-34.0","",""
"null","sound/msl/door.wav","null","audio-keyboard-response","36","24086","0.0-1.0-35.0","",""
"null","sound/msl/duck.wav","null","audio-keyboard-response","37","24592","0.0-1.0-36.0","",""
"null","sound/msl/goat.wav","null","audio-keyboard-response","38","25125","0.0-1.0-37.0","",""
"null","sound/msl/boing.wav","null","audio-keyboard-response","39","25624","0.0-1.0-38.0","",""
"null","sound/msl/cat.wav","null","audio-keyboard-response","40","26117","0.0-1.0-39.0","",""
"null","sound/msl/bird.wav","null","audio-keyboard-response","41","26623","0.0-1.0-40.0","",""
"null","sound/msl/clock.wav","null","audio-keyboard-response","42","27175","0.0-1.0-41.0","",""
"null","sound/msl/frog.wav","null","audio-keyboard-response","43","27680","0.0-1.0-42.0","",""
"null","sound/msl/Water.wav","null","audio-keyboard-response","44","28191","0.0-1.0-43.0","",""
"null","sound/msl/door.wav","null","audio-keyboard-response","45","28689","0.0-1.0-44.0","",""
"null","sound/msl/dog.wav","null","audio-keyboard-response","46","29194","0.0-1.0-45.0","",""
"null","sound/msl/cow.wav","null","audio-keyboard-response","47","29700","0.0-1.0-46.0","",""
"null","sound/msl/organ.wav","null","audio-keyboard-response","48","30199","0.0-1.0-47.0","",""
"null","sound/msl/duck.wav","null","audio-keyboard-response","49","30704","0.0-1.0-48.0","",""
"null","sound/msl/goat.wav","null","audio-keyboard-response","50","31238","0.0-1.0-49.0","",""
"null","sound/msl/boing.wav","null","audio-keyboard-response","51","31737","0.0-1.0-50.0","",""
"null","sound/msl/door_bell.wav","null","audio-keyboard-response","52","32242","0.0-1.0-51.0","",""
"null","sound/msl/slide_whistle.wav","null","audio-keyboard-response","53","32742","0.0-1.0-52.0","",""
"null","sound/msl/ding.wav","null","audio-keyboard-response","54","33247","0.0-1.0-53.0","",""
"null","sound/msl/dog.wav","null","audio-keyboard-response","55","33751","0.0-1.0-54.0","",""
"null","sound/msl/cow.wav","null","audio-keyboard-response","56","34257","0.0-1.0-55.0","",""
"null","sound/msl/organ.wav","null","audio-keyboard-response","57","34756","0.0-1.0-56.0","",""
"null","sound/msl/duck.wav","null","audio-keyboard-response","58","35261","0.0-1.0-57.0","",""
"null","sound/msl/goat.wav","null","audio-keyboard-response","59","35795","0.0-1.0-58.0","",""
"null","sound/msl/boing.wav","null","audio-keyboard-response","60","36294","0.0-1.0-59.0","",""
"null","sound/msl/cat.wav","null","audio-keyboard-response","61","36788","0.0-1.0-60.0","",""
"null","sound/msl/bird.wav","null","audio-keyboard-response","62","37293","0.0-1.0-61.0","",""
"null","sound/msl/clock.wav","null","audio-keyboard-response","63","37844","0.0-1.0-62.0","",""
"null","sound/msl/frog.wav","null","audio-keyboard-response","64","38349","0.0-1.0-63.0","",""
"null","sound/msl/Water.wav","null","audio-keyboard-response","65","38860","0.0-1.0-64.0","",""
"null","sound/msl/door.wav","null","audio-keyboard-response","66","39359","0.0-1.0-65.0","",""
"null","sound/msl/dog.wav","null","audio-keyboard-response","67","39864","0.0-1.0-66.0","",""
"null","sound/msl/cow.wav","null","audio-keyboard-response","68","40369","0.0-1.0-67.0","",""
"null","sound/msl/organ.wav","null","audio-keyboard-response","69","40869","0.0-1.0-68.0","",""
"null","sound/msl/door_bell.wav","null","audio-keyboard-response","70","41374","0.0-1.0-69.0","",""
"null","sound/msl/slide_whistle.wav","null","audio-keyboard-response","71","41874","0.0-1.0-70.0","",""
"null","sound/msl/ding.wav","null","audio-keyboard-response","72","42379","0.0-1.0-71.0","",""
"null","sound/msl/duck.wav","null","audio-keyboard-response","73","42884","0.0-1.0-72.0","",""
"null","sound/msl/goat.wav","null","audio-keyboard-response","74","43417","0.0-1.0-73.0","",""
"null","sound/msl/boing.wav","null","audio-keyboard-response","75","43917","0.0-1.0-74.0","",""
"null","sound/msl/cat.wav","null","audio-keyboard-response","76","44410","0.0-1.0-75.0","",""
"null","sound/msl/bird.wav","null","audio-keyboard-response","77","44915","0.0-1.0-76.0","",""
"null","sound/msl/clock.wav","null","audio-keyboard-response","78","45466","0.0-1.0-77.0","",""
"null","sound/msl/duck.wav","null","audio-keyboard-response","79","45972","0.0-1.0-78.0","",""
"null","sound/msl/goat.wav","null","audio-keyboard-response","80","46506","0.0-1.0-79.0","",""
"null","sound/msl/boing.wav","null","audio-keyboard-response","81","47005","0.0-1.0-80.0","",""
"null","sound/msl/frog.wav","null","audio-keyboard-response","82","47510","0.0-1.0-81.0","",""
"null","sound/msl/Water.wav","null","audio-keyboard-response","83","48020","0.0-1.0-82.0","",""
"null","sound/msl/door.wav","null","audio-keyboard-response","84","48520","0.0-1.0-83.0","",""
"null","sound/msl/door_bell.wav","null","audio-keyboard-response","85","49025","0.0-1.0-84.0","",""
"null","sound/msl/slide_whistle.wav","null","audio-keyboard-response","86","49524","0.0-1.0-85.0","",""
"null","sound/msl/ding.wav","null","audio-keyboard-response","87","50029","0.0-1.0-86.0","",""
"null","sound/msl/dog.wav","null","audio-keyboard-response","88","50535","0.0-1.0-87.0","",""
"null","sound/msl/cow.wav","null","audio-keyboard-response","89","51039","0.0-1.0-88.0","",""
"null","sound/msl/organ.wav","null","audio-keyboard-response","90","51539","0.0-1.0-89.0","",""
"null","sound/msl/frog.wav","null","audio-keyboard-response","91","52044","0.0-1.0-90.0","",""
"null","sound/msl/Water.wav","null","audio-keyboard-response","92","52554","0.0-1.0-91.0","",""
"null","sound/msl/door.wav","null","audio-keyboard-response","93","53054","0.0-1.0-92.0","",""
"null","sound/msl/cat.wav","null","audio-keyboard-response","94","53548","0.0-1.0-93.0","",""
"null","sound/msl/bird.wav","null","audio-keyboard-response","95","54052","0.0-1.0-94.0","",""
"null","sound/msl/clock.wav","null","audio-keyboard-response","96","54604","0.0-1.0-95.0","",""
"null","sound/msl/duck.wav","null","audio-keyboard-response","97","55109","0.0-1.0-96.0","",""
"null","sound/msl/goat.wav","null","audio-keyboard-response","98","55643","0.0-1.0-97.0","",""
"null","sound/msl/boing.wav","null","audio-keyboard-response","99","56142","0.0-1.0-98.0","",""
"null","sound/msl/dog.wav","null","audio-keyboard-response","100","56648","0.0-1.0-99.0","",""
"null","sound/msl/cow.wav","null","audio-keyboard-response","101","57153","0.0-1.0-100.0","",""
"null","sound/msl/organ.wav","null","audio-keyboard-response","102","57651","0.0-1.0-101.0","",""
"null","sound/msl/frog.wav","null","audio-keyboard-response","103","58156","0.0-1.0-102.0","",""
"null","sound/msl/Water.wav","null","audio-keyboard-response","104","58667","0.0-1.0-103.0","",""
"null","sound/msl/door.wav","null","audio-keyboard-response","105","59166","0.0-1.0-104.0","",""
"null","sound/msl/door_bell.wav","null","audio-keyboard-response","106","59672","0.0-1.0-105.0","",""
"null","sound/msl/slide_whistle.wav","null","audio-keyboard-response","107","60171","0.0-1.0-106.0","",""
"null","sound/msl/ding.wav","null","audio-keyboard-response","108","60676","0.0-1.0-107.0","",""
"null","sound/msl/dog.wav","null","audio-keyboard-response","109","61181","0.0-1.0-108.0","",""
"null","sound/msl/cow.wav","null","audio-keyboard-response","110","61686","0.0-1.0-109.0","",""
"null","sound/msl/organ.wav","null","audio-keyboard-response","111","62185","0.0-1.0-110.0","",""
"null","sound/msl/cat.wav","null","audio-keyboard-response","112","62678","0.0-1.0-111.0","",""
"null","sound/msl/bird.wav","null","audio-keyboard-response","113","63184","0.0-1.0-112.0","",""
"null","sound/msl/clock.wav","null","audio-keyboard-response","114","63735","0.0-1.0-113.0","",""
"null","sound/msl/frog.wav","null","audio-keyboard-response","115","64240","0.0-1.0-114.0","",""
"null","sound/msl/Water.wav","null","audio-keyboard-response","116","64751","0.0-1.0-115.0","",""
"null","sound/msl/door.wav","null","audio-keyboard-response","117","65251","0.0-1.0-116.0","",""
"null","sound/msl/duck.wav","null","audio-keyboard-response","118","65756","0.0-1.0-117.0","",""
"null","sound/msl/goat.wav","null","audio-keyboard-response","119","66290","0.0-1.0-118.0","",""
"null","sound/msl/boing.wav","null","audio-keyboard-response","120","66789","0.0-1.0-119.0","",""
"null","sound/msl/door_bell.wav","null","audio-keyboard-response","121","67294","0.0-1.0-120.0","",""
"null","sound/msl/slide_whistle.wav","null","audio-keyboard-response","122","67794","0.0-1.0-121.0","",""
"null","sound/msl/ding.wav","null","audio-keyboard-response","123","68298","0.0-1.0-122.0","",""
"null","sound/msl/dog.wav","null","audio-keyboard-response","124","68803","0.0-1.0-123.0","",""
"null","sound/msl/cow.wav","null","audio-keyboard-response","125","69308","0.0-1.0-124.0","",""
"null","sound/msl/organ.wav","null","audio-keyboard-response","126","69807","0.0-1.0-125.0","",""
"null","sound/msl/frog.wav","null","audio-keyboard-response","127","70312","0.0-1.0-126.0","",""
"null","sound/msl/Water.wav","null","audio-keyboard-response","128","70824","0.0-1.0-127.0","",""
"null","sound/msl/door.wav","null","audio-keyboard-response","129","71323","0.0-1.0-128.0","",""
"null","sound/msl/cat.wav","null","audio-keyboard-response","130","71816","0.0-1.0-129.0","",""
"null","sound/msl/bird.wav","null","audio-keyboard-response","131","72321","0.0-1.0-130.0","",""
"null","sound/msl/clock.wav","null","audio-keyboard-response","132","72873","0.0-1.0-131.0","",""
"null","sound/msl/dog.wav","null","audio-keyboard-response","133","73378","0.0-1.0-132.0","",""
"null","sound/msl/cow.wav","null","audio-keyboard-response","134","73883","0.0-1.0-133.0","",""
"null","sound/msl/organ.wav","null","audio-keyboard-response","135","74382","0.0-1.0-134.0","",""
"null","sound/msl/duck.wav","null","audio-keyboard-response","136","74887","0.0-1.0-135.0","",""
"null","sound/msl/goat.wav","null","audio-keyboard-response","137","75422","0.0-1.0-136.0","",""
"null","sound/msl/boing.wav","null","audio-keyboard-response","138","75921","0.0-1.0-137.0","",""
"null","sound/msl/cat.wav","null","audio-keyboard-response","139","76415","0.0-1.0-138.0","",""
"null","sound/msl/bird.wav","null","audio-keyboard-response","140","76919","0.0-1.0-139.0","",""
"null","sound/msl/clock.wav","null","audio-keyboard-response","141","77471","0.0-1.0-140.0","",""
"null","sound/msl/door_bell.wav","null","audio-keyboard-response","142","77976","0.0-1.0-141.0","",""
"null","sound/msl/slide_whistle.wav","null","audio-keyboard-response","143","78475","0.0-1.0-142.0","",""
"null","sound/msl/ding.wav","null","audio-keyboard-response","144","78979","0.0-1.0-143.0","",""
"null","sound/msl/frog.wav","null","audio-keyboard-response","145","79485","0.0-1.0-144.0","",""
"null","sound/msl/Water.wav","null","audio-keyboard-response","146","79995","0.0-1.0-145.0","",""
"null","sound/msl/door.wav","null","audio-keyboard-response","147","80495","0.0-1.0-146.0","",""
"null","sound/msl/duck.wav","null","audio-keyboard-response","148","80999","0.0-1.0-147.0","",""
"null","sound/msl/goat.wav","null","audio-keyboard-response","149","81534","0.0-1.0-148.0","",""
"null","sound/msl/boing.wav","null","audio-keyboard-response","150","82033","0.0-1.0-149.0","",""
"null","sound/msl/door_bell.wav","null","audio-keyboard-response","151","82538","0.0-1.0-150.0","",""
"null","sound/msl/slide_whistle.wav","null","audio-keyboard-response","152","83038","0.0-1.0-151.0","",""
"null","sound/msl/ding.wav","null","audio-keyboard-response","153","83543","0.0-1.0-152.0","",""
"null","sound/msl/dog.wav","null","audio-keyboard-response","154","84048","0.0-1.0-153.0","",""
"null","sound/msl/cow.wav","null","audio-keyboard-response","155","84553","0.0-1.0-154.0","",""
"null","sound/msl/organ.wav","null","audio-keyboard-response","156","85052","0.0-1.0-155.0","",""
"null","sound/msl/cat.wav","null","audio-keyboard-response","157","85546","0.0-1.0-156.0","",""
"null","sound/msl/bird.wav","null","audio-keyboard-response","158","86050","0.0-1.0-157.0","",""
"null","sound/msl/clock.wav","null","audio-keyboard-response","159","86602","0.0-1.0-158.0","",""
"null","sound/msl/frog.wav","null","audio-keyboard-response","160","87107","0.0-1.0-159.0","",""
"null","sound/msl/Water.wav","null","audio-keyboard-response","161","87618","0.0-1.0-160.0","",""
"null","sound/msl/door.wav","null","audio-keyboard-response","162","88117","0.0-1.0-161.0","",""
"null","sound/msl/dog.wav","null","audio-keyboard-response","163","88622","0.0-1.0-162.0","",""
"null","sound/msl/cow.wav","null","audio-keyboard-response","164","89127","0.0-1.0-163.0","",""
"null","sound/msl/organ.wav","null","audio-keyboard-response","165","89626","0.0-1.0-164.0","",""
"null","sound/msl/cat.wav","null","audio-keyboard-response","166","90120","0.0-1.0-165.0","",""
"null","sound/msl/bird.wav","null","audio-keyboard-response","167","90625","0.0-1.0-166.0","",""
"null","sound/msl/clock.wav","null","audio-keyboard-response","168","91177","0.0-1.0-167.0","",""
"null","sound/msl/door_bell.wav","null","audio-keyboard-response","169","91681","0.0-1.0-168.0","",""
"null","sound/msl/slide_whistle.wav","null","audio-keyboard-response","170","92181","0.0-1.0-169.0","",""
"null","sound/msl/ding.wav","null","audio-keyboard-response","171","92685","0.0-1.0-170.0","",""
"null","sound/msl/duck.wav","null","audio-keyboard-response","172","93190","0.0-1.0-171.0","",""
"null","sound/msl/goat.wav","null","audio-keyboard-response","173","93725","0.0-1.0-172.0","",""
"null","sound/msl/boing.wav","null","audio-keyboard-response","174","94224","0.0-1.0-173.0","",""
"null","sound/msl/frog.wav","null","audio-keyboard-response","175","94730","0.0-1.0-174.0","",""
"null","sound/msl/Water.wav","null","audio-keyboard-response","176","95240","0.0-1.0-175.0","",""
"null","sound/msl/door.wav","null","audio-keyboard-response","177","95739","0.0-1.0-176.0","",""
"null","sound/msl/dog.wav","null","audio-keyboard-response","178","96244","0.0-1.0-177.0","",""
"null","sound/msl/cow.wav","null","audio-keyboard-response","179","96749","0.0-1.0-178.0","",""
"null","sound/msl/organ.wav","null","audio-keyboard-response","180","97249","0.0-1.0-179.0","",""
"null","sound/msl/duck.wav","null","audio-keyboard-response","181","97754","0.0-1.0-180.0","",""
"null","sound/msl/goat.wav","null","audio-keyboard-response","182","98288","0.0-1.0-181.0","",""
"null","sound/msl/boing.wav","null","audio-keyboard-response","183","98787","0.0-1.0-182.0","",""
"null","sound/msl/cat.wav","null","audio-keyboard-response","184","99280","0.0-1.0-183.0","",""
"null","sound/msl/bird.wav","null","audio-keyboard-response","185","99785","0.0-1.0-184.0","",""
"null","sound/msl/clock.wav","null","audio-keyboard-response","186","100337","0.0-1.0-185.0","",""
"null","sound/msl/door_bell.wav","null","audio-keyboard-response","187","100842","0.0-1.0-186.0","",""
"null","sound/msl/slide_whistle.wav","null","audio-keyboard-response","188","101341","0.0-1.0-187.0","",""
"null","sound/msl/ding.wav","null","audio-keyboard-response","189","101846","0.0-1.0-188.0","",""
"null","sound/msl/frog.wav","null","audio-keyboard-response","190","102351","0.0-1.0-189.0","",""
"null","sound/msl/Water.wav","null","audio-keyboard-response","191","102862","0.0-1.0-190.0","",""
"null","sound/msl/door.wav","null","audio-keyboard-response","192","103361","0.0-1.0-191.0","",""
"null","sound/msl/dog.wav","null","audio-keyboard-response","193","103867","0.0-1.0-192.0","",""
"null","sound/msl/cow.wav","null","audio-keyboard-response","194","104372","0.0-1.0-193.0","",""
"null","sound/msl/organ.wav","null","audio-keyboard-response","195","104871","0.0-1.0-194.0","",""
"null","sound/msl/duck.wav","null","audio-keyboard-response","196","105376","0.0-1.0-195.0","",""
"null","sound/msl/goat.wav","null","audio-keyboard-response","197","105910","0.0-1.0-196.0","",""
"null","sound/msl/boing.wav","null","audio-keyboard-response","198","106409","0.0-1.0-197.0","",""
"null","sound/msl/door_bell.wav","null","audio-keyboard-response","199","106914","0.0-1.0-198.0","",""
"null","sound/msl/slide_whistle.wav","null","audio-keyboard-response","200","107413","0.0-1.0-199.0","",""
"null","sound/msl/ding.wav","null","audio-keyboard-response","201","107918","0.0-1.0-200.0","",""
"null","sound/msl/cat.wav","null","audio-keyboard-response","202","108412","0.0-1.0-201.0","",""
"null","sound/msl/bird.wav","null","audio-keyboard-response","203","108917","0.0-1.0-202.0","",""
"null","sound/msl/clock.wav","null","audio-keyboard-response","204","109469","0.0-1.0-203.0","",""
"null","sound/msl/frog.wav","null","audio-keyboard-response","205","109973","0.0-1.0-204.0","",""
"null","sound/msl/Water.wav","null","audio-keyboard-response","206","110485","0.0-1.0-205.0","",""
"null","sound/msl/door.wav","null","audio-keyboard-response","207","110984","0.0-1.0-206.0","",""
"null","sound/msl/dog.wav","null","audio-keyboard-response","208","111489","0.0-1.0-207.0","",""
"null","sound/msl/cow.wav","null","audio-keyboard-response","209","111993","0.0-1.0-208.0","",""
"null","sound/msl/organ.wav","null","audio-keyboard-response","210","112493","0.0-1.0-209.0","",""
"null","sound/msl/door_bell.wav","null","audio-keyboard-response","211","112998","0.0-1.0-210.0","",""
"null","sound/msl/slide_whistle.wav","null","audio-keyboard-response","212","113497","0.0-1.0-211.0","",""
"null","sound/msl/ding.wav","null","audio-keyboard-response","213","114002","0.0-1.0-212.0","",""
"null","sound/msl/frog.wav","null","audio-keyboard-response","214","114507","0.0-1.0-213.0","",""
"null","sound/msl/Water.wav","null","audio-keyboard-response","215","115018","0.0-1.0-214.0","",""
"null","sound/msl/door.wav","null","audio-keyboard-response","216","115517","0.0-1.0-215.0","",""
"null","sound/msl/duck.wav","null","audio-keyboard-response","217","116022","0.0-1.0-216.0","",""
"null","sound/msl/goat.wav","null","audio-keyboard-response","218","116556","0.0-1.0-217.0","",""
"null","sound/msl/boing.wav","null","audio-keyboard-response","219","117056","0.0-1.0-218.0","",""
"null","sound/msl/cat.wav","null","audio-keyboard-response","220","117549","0.0-1.0-219.0","",""
"null","sound/msl/bird.wav","null","audio-keyboard-response","221","118054","0.0-1.0-220.0","",""
"null","sound/msl/clock.wav","null","audio-keyboard-response","222","118606","0.0-1.0-221.0","",""
"null","sound/msl/dog.wav","null","audio-keyboard-response","223","119111","0.0-1.0-222.0","",""
"null","sound/msl/cow.wav","null","audio-keyboard-response","224","119615","0.0-1.0-223.0","",""
"null","sound/msl/organ.wav","null","audio-keyboard-response","225","120115","0.0-1.0-224.0","",""
"null","sound/msl/duck.wav","null","audio-keyboard-response","226","120620","0.0-1.0-225.0","",""
"null","sound/msl/goat.wav","null","audio-keyboard-response","227","121154","0.0-1.0-226.0","",""
"null","sound/msl/boing.wav","null","audio-keyboard-response","228","121653","0.0-1.0-227.0","",""
"null","sound/msl/frog.wav","null","audio-keyboard-response","229","122159","0.0-1.0-228.0","",""
"null","sound/msl/Water.wav","null","audio-keyboard-response","230","122670","0.0-1.0-229.0","",""
"null","sound/msl/door.wav","null","audio-keyboard-response","231","123169","0.0-1.0-230.0","",""
"null","sound/msl/duck.wav","null","audio-keyboard-response","232","123674","0.0-1.0-231.0","",""
"null","sound/msl/goat.wav","null","audio-keyboard-response","233","124208","0.0-1.0-232.0","",""
"null","sound/msl/boing.wav","null","audio-keyboard-response","234","124707","0.0-1.0-233.0","",""
"null","sound/msl/dog.wav","null","audio-keyboard-response","235","125212","0.0-1.0-234.0","",""
"null","sound/msl/cow.wav","null","audio-keyboard-response","236","125717","0.0-1.0-235.0","",""
"null","sound/msl/organ.wav","null","audio-keyboard-response","237","126216","0.0-1.0-236.0","",""
"null","sound/msl/cat.wav","null","audio-keyboard-response","238","126710","0.0-1.0-237.0","",""
"null","sound/msl/bird.wav","null","audio-keyboard-response","239","127214","0.0-1.0-238.0","",""
"null","sound/msl/clock.wav","null","audio-keyboard-response","240","127767","0.0-1.0-239.0","",""
"null","sound/msl/door_bell.wav","null","audio-keyboard-response","241","128271","0.0-1.0-240.0","",""
"null","sound/msl/slide_whistle.wav","null","audio-keyboard-response","242","128771","0.0-1.0-241.0","",""
"null","sound/msl/ding.wav","null","audio-keyboard-response","243","129275","0.0-1.0-242.0","",""
"null","sound/msl/frog.wav","null","audio-keyboard-response","244","129780","0.0-1.0-243.0","",""
"null","sound/msl/Water.wav","null","audio-keyboard-response","245","130292","0.0-1.0-244.0","",""
"null","sound/msl/door.wav","null","audio-keyboard-response","246","130791","0.0-1.0-245.0","",""
"null","sound/msl/dog.wav","null","audio-keyboard-response","247","131295","0.0-1.0-246.0","",""
"null","sound/msl/cow.wav","null","audio-keyboard-response","248","131801","0.0-1.0-247.0","",""
"null","sound/msl/organ.wav","null","audio-keyboard-response","249","132300","0.0-1.0-248.0","",""
"null","sound/msl/cat.wav","null","audio-keyboard-response","250","132794","0.0-1.0-249.0","",""
"null","sound/msl/bird.wav","null","audio-keyboard-response","251","133298","0.0-1.0-250.0","",""
"null","sound/msl/clock.wav","null","audio-keyboard-response","252","133851","0.0-1.0-251.0","",""
"null","sound/msl/door_bell.wav","null","audio-keyboard-response","253","134355","0.0-1.0-252.0","",""
"null","sound/msl/slide_whistle.wav","null","audio-keyboard-response","254","134855","0.0-1.0-253.0","",""
"null","sound/msl/ding.wav","null","audio-keyboard-response","255","135359","0.0-1.0-254.0","",""
"null","sound/msl/duck.wav","null","audio-keyboard-response","256","135864","0.0-1.0-255.0","",""
"null","sound/msl/goat.wav","null","audio-keyboard-response","257","136399","0.0-1.0-256.0","",""
"null","sound/msl/boing.wav","null","audio-keyboard-response","258","136898","0.0-1.0-257.0","",""
"null","sound/msl/frog.wav","null","audio-keyboard-response","259","137403","0.0-1.0-258.0","",""
"null","sound/msl/Water.wav","null","audio-keyboard-response","260","137913","0.0-1.0-259.0","",""
"null","sound/msl/door.wav","null","audio-keyboard-response","261","138413","0.0-1.0-260.0","",""
"null","sound/msl/door_bell.wav","null","audio-keyboard-response","262","138918","0.0-1.0-261.0","",""
"null","sound/msl/slide_whistle.wav","null","audio-keyboard-response","263","139417","0.0-1.0-262.0","",""
"null","sound/msl/ding.wav","null","audio-keyboard-response","264","139922","0.0-1.0-263.0","",""
"null","sound/msl/cat.wav","null","audio-keyboard-response","265","140416","0.0-1.0-264.0","",""
"null","sound/msl/bird.wav","null","audio-keyboard-response","266","140921","0.0-1.0-265.0","",""
"null","sound/msl/clock.wav","null","audio-keyboard-response","267","141472","0.0-1.0-266.0","",""
"null","sound/msl/duck.wav","null","audio-keyboard-response","268","141977","0.0-1.0-267.0","",""
"null","sound/msl/goat.wav","null","audio-keyboard-response","269","142511","0.0-1.0-268.0","",""
"null","sound/msl/boing.wav","null","audio-keyboard-response","270","143010","0.0-1.0-269.0","",""
"null","sound/msl/dog.wav","null","audio-keyboard-response","271","143515","0.0-1.0-270.0","",""
"null","sound/msl/cow.wav","null","audio-keyboard-response","272","144021","0.0-1.0-271.0","",""
"null","sound/msl/organ.wav","null","audio-keyboard-response","273","144520","0.0-1.0-272.0","",""
"null","sound/msl/frog.wav","null","audio-keyboard-response","274","145024","0.0-1.0-273.0","",""
"null","sound/msl/Water.wav","null","audio-keyboard-response","275","145536","0.0-1.0-274.0","",""
"null","sound/msl/door.wav","null","audio-keyboard-response","276","146035","0.0-1.0-275.0","",""
"null","sound/msl/door_bell.wav","null","audio-keyboard-response","277","146540","0.0-1.0-276.0","",""
"null","sound/msl/slide_whistle.wav","null","audio-keyboard-response","278","147040","0.0-1.0-277.0","",""
"null","sound/msl/ding.wav","null","audio-keyboard-response","279","147544","0.0-1.0-278.0","",""
"null","sound/msl/cat.wav","null","audio-keyboard-response","280","148038","0.0-1.0-279.0","",""
"null","sound/msl/bird.wav","null","audio-keyboard-response","281","148542","0.0-1.0-280.0","",""
"null","sound/msl/clock.wav","null","audio-keyboard-response","282","149095","0.0-1.0-281.0","",""
"null","sound/msl/dog.wav","null","audio-keyboard-response","283","149599","0.0-1.0-282.0","",""
"null","sound/msl/cow.wav","null","audio-keyboard-response","284","150104","0.0-1.0-283.0","",""
"null","sound/msl/organ.wav","null","audio-keyboard-response","285","150604","0.0-1.0-284.0","",""
"null","sound/msl/duck.wav","null","audio-keyboard-response","286","151108","0.0-1.0-285.0","",""
"null","sound/msl/goat.wav","null","audio-keyboard-response","287","151643","0.0-1.0-286.0","",""
"null","sound/msl/boing.wav","null","audio-keyboard-response","288","152142","0.0-1.0-287.0","",""
"null","sound/msl/frog.wav","null","audio-keyboard-response","289","152647","0.0-1.0-288.0","",""
"null","sound/msl/Water.wav","null","audio-keyboard-response","290","153158","0.0-1.0-289.0","",""
"null","sound/msl/door.wav","null","audio-keyboard-response","291","153657","0.0-1.0-290.0","",""
"null","sound/msl/cat.wav","null","audio-keyboard-response","292","154151","0.0-1.0-291.0","",""
"null","sound/msl/bird.wav","null","audio-keyboard-response","293","154656","0.0-1.0-292.0","",""
"null","sound/msl/clock.wav","null","audio-keyboard-response","294","155207","0.0-1.0-293.0","",""
"null","sound/msl/door_bell.wav","null","audio-keyboard-response","295","155713","0.0-1.0-294.0","",""
"null","sound/msl/slide_whistle.wav","null","audio-keyboard-response","296","156211","0.0-1.0-295.0","",""
"null","sound/msl/ding.wav","null","audio-keyboard-response","297","156716","0.0-1.0-296.0","",""
"null","sound/msl/frog.wav","null","audio-keyboard-response","298","157221","0.0-1.0-297.0","",""
"null","sound/msl/Water.wav","null","audio-keyboard-response","299","157732","0.0-1.0-298.0","",""
"null","sound/msl/door.wav","null","audio-keyboard-response","300","158232","0.0-1.0-299.0","",""
"null","sound/msl/dog.wav","null","audio-keyboard-response","301","158737","0.0-1.0-300.0","",""
"null","sound/msl/cow.wav","null","audio-keyboard-response","302","159241","0.0-1.0-301.0","",""
"null","sound/msl/organ.wav","null","audio-keyboard-response","303","159741","0.0-1.0-302.0","",""
"null","sound/msl/cat.wav","null","audio-keyboard-response","304","160235","0.0-1.0-303.0","",""
"null","sound/msl/bird.wav","null","audio-keyboard-response","305","160739","0.0-1.0-304.0","",""
"null","sound/msl/clock.wav","null","audio-keyboard-response","306","161291","0.0-1.0-305.0","",""
"null","sound/msl/duck.wav","null","audio-keyboard-response","307","161795","0.0-1.0-306.0","",""
"null","sound/msl/goat.wav","null","audio-keyboard-response","308","162330","0.0-1.0-307.0","",""
"null","sound/msl/boing.wav","null","audio-keyboard-response","309","162829","0.0-1.0-308.0","",""
"null","sound/msl/door_bell.wav","null","audio-keyboard-response","310","163335","0.0-1.0-309.0","",""
"null","sound/msl/slide_whistle.wav","null","audio-keyboard-response","311","163833","0.0-1.0-310.0","",""
"null","sound/msl/ding.wav","null","audio-keyboard-response","312","164339","0.0-1.0-311.0","",""
"null","sound/msl/frog.wav","null","audio-keyboard-response","313","164844","0.0-1.0-312.0","",""
"null","sound/msl/Water.wav","null","audio-keyboard-response","314","165355","0.0-1.0-313.0","",""
"null","sound/msl/door.wav","null","audio-keyboard-response","315","165853","0.0-1.0-314.0","",""
"null","sound/msl/dog.wav","null","audio-keyboard-response","316","166359","0.0-1.0-315.0","",""
"null","sound/msl/cow.wav","null","audio-keyboard-response","317","166864","0.0-1.0-316.0","",""
"null","sound/msl/organ.wav","null","audio-keyboard-response","318","167363","0.0-1.0-317.0","",""
"null","sound/msl/cat.wav","null","audio-keyboard-response","319","167857","0.0-1.0-318.0","",""
"null","sound/msl/bird.wav","null","audio-keyboard-response","320","168361","0.0-1.0-319.0","",""
"null","sound/msl/clock.wav","null","audio-keyboard-response","321","168913","0.0-1.0-320.0","",""
"null","sound/msl/door_bell.wav","null","audio-keyboard-response","322","169418","0.0-1.0-321.0","",""
"null","sound/msl/slide_whistle.wav","null","audio-keyboard-response","323","169917","0.0-1.0-322.0","",""
"null","sound/msl/ding.wav","null","audio-keyboard-response","324","170422","0.0-1.0-323.0","",""
"null","sound/msl/dog.wav","null","audio-keyboard-response","325","170928","0.0-1.0-324.0","",""
"null","sound/msl/cow.wav","null","audio-keyboard-response","326","171433","0.0-1.0-325.0","",""
"null","sound/msl/organ.wav","null","audio-keyboard-response","327","171932","0.0-1.0-326.0","",""
"null","sound/msl/duck.wav","null","audio-keyboard-response","328","172437","0.0-1.0-327.0","",""
"null","sound/msl/goat.wav","null","audio-keyboard-response","329","172971","0.0-1.0-328.0","",""
"null","sound/msl/boing.wav","null","audio-keyboard-response","330","173470","0.0-1.0-329.0","",""
"null","sound/msl/frog.wav","null","audio-keyboard-response","331","173975","0.0-1.0-330.0","",""
"null","sound/msl/Water.wav","null","audio-keyboard-response","332","174486","0.0-1.0-331.0","",""
"null","sound/msl/door.wav","null","audio-keyboard-response","333","174985","0.0-1.0-332.0","",""
"null","sound/msl/cat.wav","null","audio-keyboard-response","334","175479","0.0-1.0-333.0","",""
"null","sound/msl/bird.wav","null","audio-keyboard-response","335","175984","0.0-1.0-334.0","",""
"null","sound/msl/clock.wav","null","audio-keyboard-response","336","176536","0.0-1.0-335.0","",""
"null","sound/msl/duck.wav","null","audio-keyboard-response","337","177041","0.0-1.0-336.0","",""
"null","sound/msl/goat.wav","null","audio-keyboard-response","338","177574","0.0-1.0-337.0","",""
"null","sound/msl/boing.wav","null","audio-keyboard-response","339","178074","0.0-1.0-338.0","",""
"null","sound/msl/door_bell.wav","null","audio-keyboard-response","340","178579","0.0-1.0-339.0","",""
"null","sound/msl/slide_whistle.wav","null","audio-keyboard-response","341","179078","0.0-1.0-340.0","",""
"null","sound/msl/ding.wav","null","audio-keyboard-response","342","179583","0.0-1.0-341.0","",""
"null","sound/msl/cat.wav","null","audio-keyboard-response","343","180077","0.0-1.0-342.0","",""
"null","sound/msl/bird.wav","null","audio-keyboard-response","344","180581","0.0-1.0-343.0","",""
"null","sound/msl/clock.wav","null","audio-keyboard-response","345","181133","0.0-1.0-344.0","",""
"null","sound/msl/door_bell.wav","null","audio-keyboard-response","346","181638","0.0-1.0-345.0","",""
"null","sound/msl/slide_whistle.wav","null","audio-keyboard-response","347","182138","0.0-1.0-346.0","",""
"null","sound/msl/ding.wav","null","audio-keyboard-response","348","182642","0.0-1.0-347.0","",""
"null","sound/msl/duck.wav","null","audio-keyboard-response","349","183147","0.0-1.0-348.0","",""
"null","sound/msl/goat.wav","null","audio-keyboard-response","350","183682","0.0-1.0-349.0","",""
"null","sound/msl/boing.wav","null","audio-keyboard-response","351","184180","0.0-1.0-350.0","",""
"null","sound/msl/frog.wav","null","audio-keyboard-response","352","184686","0.0-1.0-351.0","",""
"null","sound/msl/Water.wav","null","audio-keyboard-response","353","185197","0.0-1.0-352.0","",""
"null","sound/msl/door.wav","null","audio-keyboard-response","354","185696","0.0-1.0-353.0","",""
"null","sound/msl/cat.wav","null","audio-keyboard-response","355","186190","0.0-1.0-354.0","",""
"null","sound/msl/bird.wav","null","audio-keyboard-response","356","186695","0.0-1.0-355.0","",""
"null","sound/msl/clock.wav","null","audio-keyboard-response","357","187246","0.0-1.0-356.0","",""
"null","sound/msl/door_bell.wav","null","audio-keyboard-response","358","187751","0.0-1.0-357.0","",""
"null","sound/msl/slide_whistle.wav","null","audio-keyboard-response","359","188250","0.0-1.0-358.0","",""
"null","sound/msl/ding.wav","null","audio-keyboard-response","360","188755","0.0-1.0-359.0","",""
"8146","Instructions2-eng.png","49","image-keyboard-response","361","196903","0.0-2.0","",""
"null","sound/msl/duck.wav","null","audio-keyboard-response","362","197405","0.0-3.0-0.0","",""
"null","sound/msl/goat.wav","null","audio-keyboard-response","363","197939","0.0-3.0-1.0","",""
"null","sound/msl/boing.wav","null","audio-keyboard-response","364","198438","0.0-3.0-2.0","",""
"null","sound/asl/silence.wav","null","audio-keyboard-response","365","198943","0.0-3.0-3.0","",""
"null","sound/msl/door_bell.wav","null","audio-keyboard-response","366","199443","0.0-3.0-4.0","",""
"null","sound/msl/cow.wav","null","audio-keyboard-response","367","199947","0.0-3.0-5.0","",""
"null","sound/msl/boing.wav","null","audio-keyboard-response","368","200447","0.0-3.0-6.0","",""
"348","sound/asl/silence.wav","49","audio-keyboard-response","369","200797","0.0-3.0-7.0","true",""
"null","sound/msl/dog.wav","null","audio-keyboard-response","370","201300","0.0-4.0-0.0","",""
"null","sound/msl/goat.wav","null","audio-keyboard-response","371","201834","0.0-4.0-1.0","",""
"null","sound/msl/clock.wav","null","audio-keyboard-response","372","202386","0.0-4.0-2.0","",""
"null","sound/asl/silence.wav","null","audio-keyboard-response","373","202890","0.0-4.0-3.0","",""
"null","sound/msl/duck.wav","null","audio-keyboard-response","374","203396","0.0-4.0-4.0","",""
"null","sound/msl/goat.wav","null","audio-keyboard-response","375","203930","0.0-4.0-5.0","",""
"null","sound/msl/boing.wav","null","audio-keyboard-response","376","204429","0.0-4.0-6.0","",""
"621","sound/asl/silence.wav","49","audio-keyboard-response","377","205051","0.0-4.0-7.0","false",""
"null","sound/msl/duck.wav","null","audio-keyboard-response","378","205555","0.0-5.0-0.0","",""
"null","sound/msl/bird.wav","null","audio-keyboard-response","379","206060","0.0-5.0-1.0","",""
"null","sound/msl/door.wav","null","audio-keyboard-response","380","206560","0.0-5.0-2.0","",""
"null","sound/asl/silence.wav","null","audio-keyboard-response","381","207063","0.0-5.0-3.0","",""
"null","sound/msl/duck.wav","null","audio-keyboard-response","382","207564","0.0-5.0-4.0","",""
"null","sound/msl/goat.wav","null","audio-keyboard-response","383","208098","0.0-5.0-5.0","",""
"null","sound/msl/boing.wav","null","audio-keyboard-response","384","208598","0.0-5.0-6.0","",""
"151","sound/asl/silence.wav","49","audio-keyboard-response","385","208749","0.0-5.0-7.0","false",""
"null","sound/msl/door_bell.wav","null","audio-keyboard-response","386","209253","0.0-6.0-0.0","",""
"null","sound/msl/cow.wav","null","audio-keyboard-response","387","209758","0.0-6.0-1.0","",""
"null","sound/msl/boing.wav","null","audio-keyboard-response","388","210257","0.0-6.0-2.0","",""
"null","sound/asl/silence.wav","null","audio-keyboard-response","389","210762","0.0-6.0-3.0","",""
"null","sound/msl/door_bell.wav","null","audio-keyboard-response","390","211268","0.0-6.0-4.0","",""
"null","sound/msl/slide_whistle.wav","null","audio-keyboard-response","391","211767","0.0-6.0-5.0","",""
"null","sound/msl/ding.wav","null","audio-keyboard-response","392","212272","0.0-6.0-6.0","",""
"731","sound/asl/silence.wav","50","audio-keyboard-response","393","213005","0.0-6.0-7.0","true",""
"null","sound/msl/duck.wav","null","audio-keyboard-response","394","213509","0.0-7.0-0.0","",""
"null","sound/msl/bird.wav","null","audio-keyboard-response","395","214013","0.0-7.0-1.0","",""
"null","sound/msl/door.wav","null","audio-keyboard-response","396","214513","0.0-7.0-2.0","",""
"null","sound/asl/silence.wav","null","audio-keyboard-response","397","215017","0.0-7.0-3.0","",""
"null","sound/msl/door_bell.wav","null","audio-keyboard-response","398","215523","0.0-7.0-4.0","",""
"null","sound/msl/slide_whistle.wav","null","audio-keyboard-response","399","216022","0.0-7.0-5.0","",""
"null","sound/msl/ding.wav","null","audio-keyboard-response","400","216527","0.0-7.0-6.0","",""
"470","sound/asl/silence.wav","49","audio-keyboard-response","401","216999","0.0-7.0-7.0","false",""
"null","sound/msl/frog.wav","null","audio-keyboard-response","402","217503","0.0-8.0-0.0","",""
"null","sound/msl/Water.wav","null","audio-keyboard-response","403","218013","0.0-8.0-1.0","",""
"null","sound/msl/door.wav","null","audio-keyboard-response","404","218513","0.0-8.0-2.0","",""
"null","sound/asl/silence.wav","null","audio-keyboard-response","405","219018","0.0-8.0-3.0","",""
"null","sound/msl/frog.wav","null","audio-keyboard-response","406","219522","0.0-8.0-4.0","",""
"null","sound/msl/slide_whistle.wav","null","audio-keyboard-response","407","220022","0.0-8.0-5.0","",""
"null","sound/msl/organ.wav","null","audio-keyboard-response","408","220521","0.0-8.0-6.0","",""
"499","sound/asl/silence.wav","50","audio-keyboard-response","409","221022","0.0-8.0-7.0","false",""
"null","sound/msl/cat.wav","null","audio-keyboard-response","410","221513","0.0-9.0-0.0","",""
"null","sound/msl/bird.wav","null","audio-keyboard-response","411","222019","0.0-9.0-1.0","",""
"null","sound/msl/clock.wav","null","audio-keyboard-response","412","222570","0.0-9.0-2.0","",""
"null","sound/asl/silence.wav","null","audio-keyboard-response","413","223076","0.0-9.0-3.0","",""
"null","sound/msl/frog.wav","null","audio-keyboard-response","414","223580","0.0-9.0-4.0","",""
"null","sound/msl/slide_whistle.wav","null","audio-keyboard-response","415","224080","0.0-9.0-5.0","",""
"null","sound/msl/organ.wav","null","audio-keyboard-response","416","224579","0.0-9.0-6.0","",""
"145","sound/asl/silence.wav","49","audio-keyboard-response","417","224724","0.0-9.0-7.0","true",""
"null","sound/msl/frog.wav","null","audio-keyboard-response","418","225229","0.0-10.0-0.0","",""
"null","sound/msl/Water.wav","null","audio-keyboard-response","419","225740","0.0-10.0-1.0","",""
"null","sound/msl/door.wav","null","audio-keyboard-response","420","226239","0.0-10.0-2.0","",""
"null","sound/asl/silence.wav","null","audio-keyboard-response","421","226743","0.0-10.0-3.0","",""
"null","sound/msl/dog.wav","null","audio-keyboard-response","422","227243","0.0-10.0-4.0","",""
"null","sound/msl/goat.wav","null","audio-keyboard-response","423","227777","0.0-10.0-5.0","",""
"null","sound/msl/clock.wav","null","audio-keyboard-response","424","228329","0.0-10.0-6.0","",""
"279","sound/asl/silence.wav","49","audio-keyboard-response","425","228609","0.0-10.0-7.0","true",""
"null","sound/msl/door_bell.wav","null","audio-keyboard-response","426","229113","0.0-11.0-0.0","",""
"null","sound/msl/slide_whistle.wav","null","audio-keyboard-response","427","229612","0.0-11.0-1.0","",""
"null","sound/msl/ding.wav","null","audio-keyboard-response","428","230117","0.0-11.0-2.0","",""
"null","sound/asl/silence.wav","null","audio-keyboard-response","429","230622","0.0-11.0-3.0","",""
"null","sound/msl/cat.wav","null","audio-keyboard-response","430","231116","0.0-11.0-4.0","",""
"null","sound/msl/Water.wav","null","audio-keyboard-response","431","231626","0.0-11.0-5.0","",""
"null","sound/msl/ding.wav","null","audio-keyboard-response","432","232131","0.0-11.0-6.0","",""
"145","sound/asl/silence.wav","50","audio-keyboard-response","433","232277","0.0-11.0-7.0","false",""
"null","sound/msl/frog.wav","null","audio-keyboard-response","434","232781","0.0-12.0-0.0","",""
"null","sound/msl/slide_whistle.wav","null","audio-keyboard-response","435","233281","0.0-12.0-1.0","",""
"null","sound/msl/organ.wav","null","audio-keyboard-response","436","233780","0.0-12.0-2.0","",""
"null","sound/asl/silence.wav","null","audio-keyboard-response","437","234285","0.0-12.0-3.0","",""
"null","sound/msl/dog.wav","null","audio-keyboard-response","438","234790","0.0-12.0-4.0","",""
"null","sound/msl/cow.wav","null","audio-keyboard-response","439","235295","0.0-12.0-5.0","",""
"null","sound/msl/organ.wav","null","audio-keyboard-response","440","235794","0.0-12.0-6.0","",""
"1265","sound/asl/silence.wav","49","audio-keyboard-response","441","237060","0.0-12.0-7.0","false",""
"null","sound/msl/cat.wav","null","audio-keyboard-response","442","237553","0.0-13.0-0.0","",""
"null","sound/msl/Water.wav","null","audio-keyboard-response","443","238064","0.0-13.0-1.0","",""
"null","sound/msl/ding.wav","null","audio-keyboard-response","444","238570","0.0-13.0-2.0","",""
"null","sound/asl/silence.wav","null","audio-keyboard-response","445","239074","0.0-13.0-3.0","",""
"null","sound/msl/duck.wav","null","audio-keyboard-response","446","239579","0.0-13.0-4.0","",""
"null","sound/msl/goat.wav","null","audio-keyboard-response","447","240113","0.0-13.0-5.0","",""
"null","sound/msl/boing.wav","null","audio-keyboard-response","448","240612","0.0-13.0-6.0","",""
"203","sound/asl/silence.wav","50","audio-keyboard-response","449","240818","0.0-13.0-7.0","true",""
"null","sound/msl/frog.wav","null","audio-keyboard-response","450","241321","0.0-14.0-0.0","",""
"null","sound/msl/Water.wav","null","audio-keyboard-response","451","241831","0.0-14.0-1.0","",""
"null","sound/msl/door.wav","null","audio-keyboard-response","452","242331","0.0-14.0-2.0","",""
"null","sound/asl/silence.wav","null","audio-keyboard-response","453","242836","0.0-14.0-3.0","",""
"null","sound/msl/cat.wav","null","audio-keyboard-response","454","243330","0.0-14.0-4.0","",""
"null","sound/msl/Water.wav","null","audio-keyboard-response","455","243840","0.0-14.0-5.0","",""
"null","sound/msl/ding.wav","null","audio-keyboard-response","456","244346","0.0-14.0-6.0","",""
"110","sound/asl/silence.wav","49","audio-keyboard-response","457","244457","0.0-14.0-7.0","true",""
"null","sound/msl/dog.wav","null","audio-keyboard-response","458","244961","0.0-15.0-0.0","",""
"null","sound/msl/cow.wav","null","audio-keyboard-response","459","245466","0.0-15.0-1.0","",""
"null","sound/msl/organ.wav","null","audio-keyboard-response","460","245965","0.0-15.0-2.0","",""
"null","sound/asl/silence.wav","null","audio-keyboard-response","461","246469","0.0-15.0-3.0","",""
"null","sound/msl/door_bell.wav","null","audio-keyboard-response","462","246975","0.0-15.0-4.0","",""
"null","sound/msl/cow.wav","null","audio-keyboard-response","463","247480","0.0-15.0-5.0","",""
"null","sound/msl/boing.wav","null","audio-keyboard-response","464","247980","0.0-15.0-6.0","",""
"401","sound/asl/silence.wav","49","audio-keyboard-response","465","248380","0.0-15.0-7.0","true",""
"null","sound/msl/dog.wav","null","audio-keyboard-response","466","248885","0.0-16.0-0.0","",""
"null","sound/msl/goat.wav","null","audio-keyboard-response","467","249419","0.0-16.0-1.0","",""
"null","sound/msl/clock.wav","null","audio-keyboard-response","468","249971","0.0-16.0-2.0","",""
"null","sound/asl/silence.wav","null","audio-keyboard-response","469","250476","0.0-16.0-3.0","",""
"null","sound/msl/door_bell.wav","null","audio-keyboard-response","470","250981","0.0-16.0-4.0","",""
"null","sound/msl/slide_whistle.wav","null","audio-keyboard-response","471","251479","0.0-16.0-5.0","",""
"null","sound/msl/ding.wav","null","audio-keyboard-response","472","251985","0.0-16.0-6.0","",""
"1637","sound/asl/silence.wav","50","audio-keyboard-response","473","253625","0.0-16.0-7.0","true",""
"null","sound/msl/door_bell.wav","null","audio-keyboard-response","474","254127","0.0-17.0-0.0","",""
"null","sound/msl/cow.wav","null","audio-keyboard-response","475","254632","0.0-17.0-1.0","",""
"null","sound/msl/boing.wav","null","audio-keyboard-response","476","255131","0.0-17.0-2.0","",""
"null","sound/asl/silence.wav","null","audio-keyboard-response","477","255636","0.0-17.0-3.0","",""
"null","sound/msl/cat.wav","null","audio-keyboard-response","478","256130","0.0-17.0-4.0","",""
"null","sound/msl/bird.wav","null","audio-keyboard-response","479","256634","0.0-17.0-5.0","",""
"null","sound/msl/clock.wav","null","audio-keyboard-response","480","257186","0.0-17.0-6.0","",""
"186","sound/asl/silence.wav","50","audio-keyboard-response","481","257373","0.0-17.0-7.0","true",""
"null","sound/msl/cat.wav","null","audio-keyboard-response","482","257866","0.0-18.0-0.0","",""
"null","sound/msl/Water.wav","null","audio-keyboard-response","483","258377","0.0-18.0-1.0","",""
"null","sound/msl/ding.wav","null","audio-keyboard-response","484","258881","0.0-18.0-2.0","",""
"null","sound/asl/silence.wav","null","audio-keyboard-response","485","259384","0.0-18.0-3.0","",""
"null","sound/msl/dog.wav","null","audio-keyboard-response","486","259885","0.0-18.0-4.0","",""
"null","sound/msl/cow.wav","null","audio-keyboard-response","487","260391","0.0-18.0-5.0","",""
"null","sound/msl/organ.wav","null","audio-keyboard-response","488","260890","0.0-18.0-6.0","",""
"348","sound/asl/silence.wav","50","audio-keyboard-response","489","261238","0.0-18.0-7.0","true",""
"null","sound/msl/duck.wav","null","audio-keyboard-response","490","261743","0.0-19.0-0.0","",""
"null","sound/msl/goat.wav","null","audio-keyboard-response","491","262278","0.0-19.0-1.0","",""
"null","sound/msl/boing.wav","null","audio-keyboard-response","492","262776","0.0-19.0-2.0","",""
"null","sound/asl/silence.wav","null","audio-keyboard-response","493","263282","0.0-19.0-3.0","",""
"null","sound/msl/frog.wav","null","audio-keyboard-response","494","263787","0.0-19.0-4.0","",""
"null","sound/msl/slide_whistle.wav","null","audio-keyboard-response","495","264286","0.0-19.0-5.0","",""
"null","sound/msl/organ.wav","null","audio-keyboard-response","496","264785","0.0-19.0-6.0","",""
"221","sound/asl/silence.wav","50","audio-keyboard-response","497","265008","0.0-19.0-7.0","false",""
"null","sound/msl/door_bell.wav","null","audio-keyboard-response","498","265511","0.0-20.0-0.0","",""
"null","sound/msl/slide_whistle.wav","null","audio-keyboard-response","499","266010","0.0-20.0-1.0","",""
"null","sound/msl/ding.wav","null","audio-keyboard-response","500","266515","0.0-20.0-2.0","",""
"null","sound/asl/silence.wav","null","audio-keyboard-response","501","267020","0.0-20.0-3.0","",""
"null","sound/msl/frog.wav","null","audio-keyboard-response","502","267525","0.0-20.0-4.0","",""
"null","sound/msl/slide_whistle.wav","null","audio-keyboard-response","503","268024","0.0-20.0-5.0","",""
"null","sound/msl/organ.wav","null","audio-keyboard-response","504","268524","0.0-20.0-6.0","",""
"9218","sound/asl/silence.wav","49","audio-keyboard-response","505","277743","0.0-20.0-7.0","true",""
"null","sound/msl/cat.wav","null","audio-keyboard-response","506","278236","0.0-21.0-0.0","",""
"null","sound/msl/bird.wav","null","audio-keyboard-response","507","278741","0.0-21.0-1.0","",""
"null","sound/msl/clock.wav","null","audio-keyboard-response","508","279293","0.0-21.0-2.0","",""
"null","sound/asl/silence.wav","null","audio-keyboard-response","509","279798","0.0-21.0-3.0","",""
"null","sound/msl/cat.wav","null","audio-keyboard-response","510","280291","0.0-21.0-4.0","",""
"null","sound/msl/Water.wav","null","audio-keyboard-response","511","280802","0.0-21.0-5.0","",""
"null","sound/msl/ding.wav","null","audio-keyboard-response","512","281307","0.0-21.0-6.0","",""
"2252","sound/asl/silence.wav","49","audio-keyboard-response","513","283559","0.0-21.0-7.0","true",""
"null","sound/msl/door_bell.wav","null","audio-keyboard-response","514","284064","0.0-22.0-0.0","",""
"null","sound/msl/cow.wav","null","audio-keyboard-response","515","284569","0.0-22.0-1.0","",""
"null","sound/msl/boing.wav","null","audio-keyboard-response","516","285068","0.0-22.0-2.0","",""
"null","sound/asl/silence.wav","null","audio-keyboard-response","517","285569","0.0-22.0-3.0","",""
"null","sound/msl/frog.wav","null","audio-keyboard-response","518","286073","0.0-22.0-4.0","",""
"null","sound/msl/Water.wav","null","audio-keyboard-response","519","286583","0.0-22.0-5.0","",""
"null","sound/msl/door.wav","null","audio-keyboard-response","520","287082","0.0-22.0-6.0","",""
"250","sound/asl/silence.wav","50","audio-keyboard-response","521","287333","0.0-22.0-7.0","true",""
"null","sound/msl/dog.wav","null","audio-keyboard-response","522","287837","0.0-23.0-0.0","",""
"null","sound/msl/cow.wav","null","audio-keyboard-response","523","288343","0.0-23.0-1.0","",""
"null","sound/msl/organ.wav","null","audio-keyboard-response","524","288841","0.0-23.0-2.0","",""
"null","sound/asl/silence.wav","null","audio-keyboard-response","525","289345","0.0-23.0-3.0","",""
"null","sound/msl/duck.wav","null","audio-keyboard-response","526","289847","0.0-23.0-4.0","",""
"null","sound/msl/bird.wav","null","audio-keyboard-response","527","290352","0.0-23.0-5.0","",""
"null","sound/msl/door.wav","null","audio-keyboard-response","528","290850","0.0-23.0-6.0","",""
"900","sound/asl/silence.wav","50","audio-keyboard-response","529","291751","0.0-23.0-7.0","false",""
"null","sound/msl/duck.wav","null","audio-keyboard-response","530","292255","0.0-24.0-0.0","",""
"null","sound/msl/bird.wav","null","audio-keyboard-response","531","292760","0.0-24.0-1.0","",""
"null","sound/msl/door.wav","null","audio-keyboard-response","532","293260","0.0-24.0-2.0","",""
"null","sound/asl/silence.wav","null","audio-keyboard-response","533","293765","0.0-24.0-3.0","",""
"null","sound/msl/frog.wav","null","audio-keyboard-response","534","294270","0.0-24.0-4.0","",""
"null","sound/msl/Water.wav","null","audio-keyboard-response","535","294781","0.0-24.0-5.0","",""
"null","sound/msl/door.wav","null","audio-keyboard-response","536","295280","0.0-24.0-6.0","",""
"1823","sound/asl/silence.wav","50","audio-keyboard-response","537","297104","0.0-24.0-7.0","true",""
"null","sound/msl/duck.wav","null","audio-keyboard-response","538","297608","0.0-25.0-0.0","",""
"null","sound/msl/bird.wav","null","audio-keyboard-response","539","298112","0.0-25.0-1.0","",""
"null","sound/msl/door.wav","null","audio-keyboard-response","540","298612","0.0-25.0-2.0","",""
"null","sound/asl/silence.wav","null","audio-keyboard-response","541","299113","0.0-25.0-3.0","",""
"null","sound/msl/cat.wav","null","audio-keyboard-response","542","299604","0.0-25.0-4.0","",""
"null","sound/msl/bird.wav","null","audio-keyboard-response","543","300109","0.0-25.0-5.0","",""
"null","sound/msl/clock.wav","null","audio-keyboard-response","544","300661","0.0-25.0-6.0","",""
"116","sound/asl/silence.wav","49","audio-keyboard-response","545","300780","0.0-25.0-7.0","false",""
"null","sound/msl/dog.wav","null","audio-keyboard-response","546","301282","0.0-26.0-0.0","",""
"null","sound/msl/cow.wav","null","audio-keyboard-response","547","301787","0.0-26.0-1.0","",""
"null","sound/msl/organ.wav","null","audio-keyboard-response","548","302287","0.0-26.0-2.0","",""
"null","sound/asl/silence.wav","null","audio-keyboard-response","549","302791","0.0-26.0-3.0","",""
"null","sound/msl/dog.wav","null","audio-keyboard-response","550","303297","0.0-26.0-4.0","",""
"null","sound/msl/goat.wav","null","audio-keyboard-response","551","303831","0.0-26.0-5.0","",""
"null","sound/msl/clock.wav","null","audio-keyboard-response","552","304383","0.0-26.0-6.0","",""
"1045","sound/asl/silence.wav","49","audio-keyboard-response","553","305430","0.0-26.0-7.0","true",""
"null","sound/msl/dog.wav","null","audio-keyboard-response","554","305932","0.0-27.0-0.0","",""
"null","sound/msl/goat.wav","null","audio-keyboard-response","555","306467","0.0-27.0-1.0","",""
"null","sound/msl/clock.wav","null","audio-keyboard-response","556","307018","0.0-27.0-2.0","",""
"null","sound/asl/silence.wav","null","audio-keyboard-response","557","307522","0.0-27.0-3.0","",""
"null","sound/msl/cat.wav","null","audio-keyboard-response","558","308017","0.0-27.0-4.0","",""
"null","sound/msl/bird.wav","null","audio-keyboard-response","559","308522","0.0-27.0-5.0","",""
"null","sound/msl/clock.wav","null","audio-keyboard-response","560","309073","0.0-27.0-6.0","",""
"389","sound/asl/silence.wav","50","audio-keyboard-response","561","309466","0.0-27.0-7.0","true",""
"2936","","","instructions","562","312402","0.0-28.0","","[{""page_index"":0,""viewing_time"":2936}]"
