"rt","stimulus","key_press","trial_type","trial_index","time_elapsed","internal_node_id","correct","view_history"
"12986","alien.jpg","49","image-keyboard-response","0","12988","0.0-0.0","",""
"null","sound/msl/door_bell.wav","null","audio-keyboard-response","1","13494","0.0-1.0-0.0","",""
"null","sound/msl/duck.wav","null","audio-keyboard-response","2","13998","0.0-1.0-1.0","",""
"null","sound/msl/Water.wav","null","audio-keyboard-response","3","14509","0.0-1.0-2.0","",""
"null","sound/msl/bird.wav","null","audio-keyboard-response","4","15014","0.0-1.0-3.0","",""
"null","sound/msl/clock.wav","null","audio-keyboard-response","5","15566","0.0-1.0-4.0","",""
"null","sound/msl/organ.wav","null","audio-keyboard-response","6","16065","0.0-1.0-5.0","",""
"null","sound/msl/goat.wav","null","audio-keyboard-response","7","16600","0.0-1.0-6.0","",""
"null","sound/msl/slide_whistle.wav","null","audio-keyboard-response","8","17098","0.0-1.0-7.0","",""
"null","sound/msl/boing.wav","null","audio-keyboard-response","9","17598","0.0-1.0-8.0","",""
"null","sound/msl/cow.wav","null","audio-keyboard-response","10","18102","0.0-1.0-9.0","",""
"null","sound/msl/ding.wav","null","audio-keyboard-response","11","18608","0.0-1.0-10.0","",""
"null","sound/msl/frog.wav","null","audio-keyboard-response","12","19113","0.0-1.0-11.0","",""
"null","sound/msl/bird.wav","null","audio-keyboard-response","13","19618","0.0-1.0-12.0","",""
"null","sound/msl/clock.wav","null","audio-keyboard-response","14","20169","0.0-1.0-13.0","",""
"null","sound/msl/organ.wav","null","audio-keyboard-response","15","20669","0.0-1.0-14.0","",""
"null","sound/msl/door_bell.wav","null","audio-keyboard-response","16","21174","0.0-1.0-15.0","",""
"null","sound/msl/duck.wav","null","audio-keyboard-response","17","21678","0.0-1.0-16.0","",""
"null","sound/msl/Water.wav","null","audio-keyboard-response","18","22189","0.0-1.0-17.0","",""
"null","sound/msl/door.wav","null","audio-keyboard-response","19","22689","0.0-1.0-18.0","",""
"null","sound/msl/dog.wav","null","audio-keyboard-response","20","23194","0.0-1.0-19.0","",""
"null","sound/msl/cat.wav","null","audio-keyboard-response","21","23688","0.0-1.0-20.0","",""
"null","sound/msl/cow.wav","null","audio-keyboard-response","22","24193","0.0-1.0-21.0","",""
"null","sound/msl/ding.wav","null","audio-keyboard-response","23","24697","0.0-1.0-22.0","",""
"null","sound/msl/frog.wav","null","audio-keyboard-response","24","25202","0.0-1.0-23.0","",""
"null","sound/msl/goat.wav","null","audio-keyboard-response","25","25736","0.0-1.0-24.0","",""
"null","sound/msl/slide_whistle.wav","null","audio-keyboard-response","26","26236","0.0-1.0-25.0","",""
"null","sound/msl/boing.wav","null","audio-keyboard-response","27","26735","0.0-1.0-26.0","",""
"null","sound/msl/door_bell.wav","null","audio-keyboard-response","28","27240","0.0-1.0-27.0","",""
"null","sound/msl/duck.wav","null","audio-keyboard-response","29","27745","0.0-1.0-28.0","",""
"null","sound/msl/Water.wav","null","audio-keyboard-response","30","28256","0.0-1.0-29.0","",""
"null","sound/msl/bird.wav","null","audio-keyboard-response","31","28762","0.0-1.0-30.0","",""
"null","sound/msl/clock.wav","null","audio-keyboard-response","32","29312","0.0-1.0-31.0","",""
"null","sound/msl/organ.wav","null","audio-keyboard-response","33","29812","0.0-1.0-32.0","",""
"null","sound/msl/door.wav","null","audio-keyboard-response","34","30310","0.0-1.0-33.0","",""
"null","sound/msl/dog.wav","null","audio-keyboard-response","35","30816","0.0-1.0-34.0","",""
"null","sound/msl/cat.wav","null","audio-keyboard-response","36","31309","0.0-1.0-35.0","",""
"null","sound/msl/goat.wav","null","audio-keyboard-response","37","31843","0.0-1.0-36.0","",""
"null","sound/msl/slide_whistle.wav","null","audio-keyboard-response","38","32343","0.0-1.0-37.0","",""
"null","sound/msl/boing.wav","null","audio-keyboard-response","39","32842","0.0-1.0-38.0","",""
"null","sound/msl/cow.wav","null","audio-keyboard-response","40","33347","0.0-1.0-39.0","",""
"null","sound/msl/ding.wav","null","audio-keyboard-response","41","33852","0.0-1.0-40.0","",""
"null","sound/msl/frog.wav","null","audio-keyboard-response","42","34357","0.0-1.0-41.0","",""
"null","sound/msl/door.wav","null","audio-keyboard-response","43","34856","0.0-1.0-42.0","",""
"null","sound/msl/dog.wav","null","audio-keyboard-response","44","35362","0.0-1.0-43.0","",""
"null","sound/msl/cat.wav","null","audio-keyboard-response","45","35854","0.0-1.0-44.0","",""
"null","sound/msl/bird.wav","null","audio-keyboard-response","46","36360","0.0-1.0-45.0","",""
"null","sound/msl/clock.wav","null","audio-keyboard-response","47","36911","0.0-1.0-46.0","",""
"null","sound/msl/organ.wav","null","audio-keyboard-response","48","37410","0.0-1.0-47.0","",""
"null","sound/msl/goat.wav","null","audio-keyboard-response","49","37945","0.0-1.0-48.0","",""
"null","sound/msl/slide_whistle.wav","null","audio-keyboard-response","50","38445","0.0-1.0-49.0","",""
"null","sound/msl/boing.wav","null","audio-keyboard-response","51","38943","0.0-1.0-50.0","",""
"null","sound/msl/door_bell.wav","null","audio-keyboard-response","52","39448","0.0-1.0-51.0","",""
"null","sound/msl/duck.wav","null","audio-keyboard-response","53","39953","0.0-1.0-52.0","",""
"null","sound/msl/Water.wav","null","audio-keyboard-response","54","40464","0.0-1.0-53.0","",""
"null","sound/msl/bird.wav","null","audio-keyboard-response","55","40969","0.0-1.0-54.0","",""
"null","sound/msl/clock.wav","null","audio-keyboard-response","56","41521","0.0-1.0-55.0","",""
"null","sound/msl/organ.wav","null","audio-keyboard-response","57","42020","0.0-1.0-56.0","",""
"null","sound/msl/goat.wav","null","audio-keyboard-response","58","42554","0.0-1.0-57.0","",""
"null","sound/msl/slide_whistle.wav","null","audio-keyboard-response","59","43053","0.0-1.0-58.0","",""
"null","sound/msl/boing.wav","null","audio-keyboard-response","60","43552","0.0-1.0-59.0","",""
"null","sound/msl/cow.wav","null","audio-keyboard-response","61","44057","0.0-1.0-60.0","",""
"null","sound/msl/ding.wav","null","audio-keyboard-response","62","44562","0.0-1.0-61.0","",""
"null","sound/msl/frog.wav","null","audio-keyboard-response","63","45067","0.0-1.0-62.0","",""
"null","sound/msl/door.wav","null","audio-keyboard-response","64","45567","0.0-1.0-63.0","",""
"null","sound/msl/dog.wav","null","audio-keyboard-response","65","46072","0.0-1.0-64.0","",""
"null","sound/msl/cat.wav","null","audio-keyboard-response","66","46565","0.0-1.0-65.0","",""
"null","sound/msl/bird.wav","null","audio-keyboard-response","67","47070","0.0-1.0-66.0","",""
"null","sound/msl/clock.wav","null","audio-keyboard-response","68","47622","0.0-1.0-67.0","",""
"null","sound/msl/organ.wav","null","audio-keyboard-response","69","48121","0.0-1.0-68.0","",""
"null","sound/msl/door_bell.wav","null","audio-keyboard-response","70","48626","0.0-1.0-69.0","",""
"null","sound/msl/duck.wav","null","audio-keyboard-response","71","49131","0.0-1.0-70.0","",""
"null","sound/msl/Water.wav","null","audio-keyboard-response","72","49642","0.0-1.0-71.0","",""
"null","sound/msl/goat.wav","null","audio-keyboard-response","73","50176","0.0-1.0-72.0","",""
"null","sound/msl/slide_whistle.wav","null","audio-keyboard-response","74","50675","0.0-1.0-73.0","",""
"null","sound/msl/boing.wav","null","audio-keyboard-response","75","51175","0.0-1.0-74.0","",""
"null","sound/msl/cow.wav","null","audio-keyboard-response","76","51680","0.0-1.0-75.0","",""
"null","sound/msl/ding.wav","null","audio-keyboard-response","77","52185","0.0-1.0-76.0","",""
"null","sound/msl/frog.wav","null","audio-keyboard-response","78","52689","0.0-1.0-77.0","",""
"null","sound/msl/goat.wav","null","audio-keyboard-response","79","53224","0.0-1.0-78.0","",""
"null","sound/msl/slide_whistle.wav","null","audio-keyboard-response","80","53723","0.0-1.0-79.0","",""
"null","sound/msl/boing.wav","null","audio-keyboard-response","81","54222","0.0-1.0-80.0","",""
"null","sound/msl/door.wav","null","audio-keyboard-response","82","54722","0.0-1.0-81.0","",""
"null","sound/msl/dog.wav","null","audio-keyboard-response","83","55226","0.0-1.0-82.0","",""
"null","sound/msl/cat.wav","null","audio-keyboard-response","84","55720","0.0-1.0-83.0","",""
"null","sound/msl/door_bell.wav","null","audio-keyboard-response","85","56224","0.0-1.0-84.0","",""
"null","sound/msl/duck.wav","null","audio-keyboard-response","86","56730","0.0-1.0-85.0","",""
"null","sound/msl/Water.wav","null","audio-keyboard-response","87","57241","0.0-1.0-86.0","",""
"null","sound/msl/bird.wav","null","audio-keyboard-response","88","57746","0.0-1.0-87.0","",""
"null","sound/msl/clock.wav","null","audio-keyboard-response","89","58297","0.0-1.0-88.0","",""
"null","sound/msl/organ.wav","null","audio-keyboard-response","90","58796","0.0-1.0-89.0","",""
"null","sound/msl/door.wav","null","audio-keyboard-response","91","59296","0.0-1.0-90.0","",""
"null","sound/msl/dog.wav","null","audio-keyboard-response","92","59801","0.0-1.0-91.0","",""
"null","sound/msl/cat.wav","null","audio-keyboard-response","93","60294","0.0-1.0-92.0","",""
"null","sound/msl/cow.wav","null","audio-keyboard-response","94","60799","0.0-1.0-93.0","",""
"null","sound/msl/ding.wav","null","audio-keyboard-response","95","61305","0.0-1.0-94.0","",""
"null","sound/msl/frog.wav","null","audio-keyboard-response","96","61809","0.0-1.0-95.0","",""
"null","sound/msl/goat.wav","null","audio-keyboard-response","97","62344","0.0-1.0-96.0","",""
"null","sound/msl/slide_whistle.wav","null","audio-keyboard-response","98","62843","0.0-1.0-97.0","",""
"null","sound/msl/boing.wav","null","audio-keyboard-response","99","63342","0.0-1.0-98.0","",""
"null","sound/msl/bird.wav","null","audio-keyboard-response","100","63848","0.0-1.0-99.0","",""
"null","sound/msl/clock.wav","null","audio-keyboard-response","101","64399","0.0-1.0-100.0","",""
"null","sound/msl/organ.wav","null","audio-keyboard-response","102","64898","0.0-1.0-101.0","",""
"null","sound/msl/door.wav","null","audio-keyboard-response","103","65397","0.0-1.0-102.0","",""
"null","sound/msl/dog.wav","null","audio-keyboard-response","104","65902","0.0-1.0-103.0","",""
"null","sound/msl/cat.wav","null","audio-keyboard-response","105","66396","0.0-1.0-104.0","",""
"null","sound/msl/door_bell.wav","null","audio-keyboard-response","106","66901","0.0-1.0-105.0","",""
"null","sound/msl/duck.wav","null","audio-keyboard-response","107","67406","0.0-1.0-106.0","",""
"null","sound/msl/Water.wav","null","audio-keyboard-response","108","67917","0.0-1.0-107.0","",""
"null","sound/msl/bird.wav","null","audio-keyboard-response","109","68422","0.0-1.0-108.0","",""
"null","sound/msl/clock.wav","null","audio-keyboard-response","110","68973","0.0-1.0-109.0","",""
"null","sound/msl/organ.wav","null","audio-keyboard-response","111","69472","0.0-1.0-110.0","",""
"null","sound/msl/cow.wav","null","audio-keyboard-response","112","69977","0.0-1.0-111.0","",""
"null","sound/msl/ding.wav","null","audio-keyboard-response","113","70482","0.0-1.0-112.0","",""
"null","sound/msl/frog.wav","null","audio-keyboard-response","114","70988","0.0-1.0-113.0","",""
"null","sound/msl/door.wav","null","audio-keyboard-response","115","71487","0.0-1.0-114.0","",""
"null","sound/msl/dog.wav","null","audio-keyboard-response","116","71992","0.0-1.0-115.0","",""
"null","sound/msl/cat.wav","null","audio-keyboard-response","117","72485","0.0-1.0-116.0","",""
"null","sound/msl/goat.wav","null","audio-keyboard-response","118","73020","0.0-1.0-117.0","",""
"null","sound/msl/slide_whistle.wav","null","audio-keyboard-response","119","73519","0.0-1.0-118.0","",""
"null","sound/msl/boing.wav","null","audio-keyboard-response","120","74018","0.0-1.0-119.0","",""
"null","sound/msl/door_bell.wav","null","audio-keyboard-response","121","74523","0.0-1.0-120.0","",""
"null","sound/msl/duck.wav","null","audio-keyboard-response","122","75028","0.0-1.0-121.0","",""
"null","sound/msl/Water.wav","null","audio-keyboard-response","123","75539","0.0-1.0-122.0","",""
"null","sound/msl/bird.wav","null","audio-keyboard-response","124","76044","0.0-1.0-123.0","",""
"null","sound/msl/clock.wav","null","audio-keyboard-response","125","76595","0.0-1.0-124.0","",""
"null","sound/msl/organ.wav","null","audio-keyboard-response","126","77094","0.0-1.0-125.0","",""
"null","sound/msl/door.wav","null","audio-keyboard-response","127","77594","0.0-1.0-126.0","",""
"null","sound/msl/dog.wav","null","audio-keyboard-response","128","78099","0.0-1.0-127.0","",""
"null","sound/msl/cat.wav","null","audio-keyboard-response","129","78592","0.0-1.0-128.0","",""
"null","sound/msl/cow.wav","null","audio-keyboard-response","130","79098","0.0-1.0-129.0","",""
"null","sound/msl/ding.wav","null","audio-keyboard-response","131","79603","0.0-1.0-130.0","",""
"null","sound/msl/frog.wav","null","audio-keyboard-response","132","80107","0.0-1.0-131.0","",""
"null","sound/msl/bird.wav","null","audio-keyboard-response","133","80613","0.0-1.0-132.0","",""
"null","sound/msl/clock.wav","null","audio-keyboard-response","134","81164","0.0-1.0-133.0","",""
"null","sound/msl/organ.wav","null","audio-keyboard-response","135","81663","0.0-1.0-134.0","",""
"null","sound/msl/goat.wav","null","audio-keyboard-response","136","82197","0.0-1.0-135.0","",""
"null","sound/msl/slide_whistle.wav","null","audio-keyboard-response","137","82697","0.0-1.0-136.0","",""
"null","sound/msl/boing.wav","null","audio-keyboard-response","138","83195","0.0-1.0-137.0","",""
"null","sound/msl/cow.wav","null","audio-keyboard-response","139","83701","0.0-1.0-138.0","",""
"null","sound/msl/ding.wav","null","audio-keyboard-response","140","84206","0.0-1.0-139.0","",""
"null","sound/msl/frog.wav","null","audio-keyboard-response","141","84711","0.0-1.0-140.0","",""
"null","sound/msl/door_bell.wav","null","audio-keyboard-response","142","85216","0.0-1.0-141.0","",""
"null","sound/msl/duck.wav","null","audio-keyboard-response","143","85721","0.0-1.0-142.0","",""
"null","sound/msl/Water.wav","null","audio-keyboard-response","144","86231","0.0-1.0-143.0","",""
"null","sound/msl/door.wav","null","audio-keyboard-response","145","86731","0.0-1.0-144.0","",""
"null","sound/msl/dog.wav","null","audio-keyboard-response","146","87236","0.0-1.0-145.0","",""
"null","sound/msl/cat.wav","null","audio-keyboard-response","147","87730","0.0-1.0-146.0","",""
"null","sound/msl/goat.wav","null","audio-keyboard-response","148","88263","0.0-1.0-147.0","",""
"null","sound/msl/slide_whistle.wav","null","audio-keyboard-response","149","88763","0.0-1.0-148.0","",""
"null","sound/msl/boing.wav","null","audio-keyboard-response","150","89262","0.0-1.0-149.0","",""
"null","sound/msl/door_bell.wav","null","audio-keyboard-response","151","89767","0.0-1.0-150.0","",""
"null","sound/msl/duck.wav","null","audio-keyboard-response","152","90272","0.0-1.0-151.0","",""
"null","sound/msl/Water.wav","null","audio-keyboard-response","153","90783","0.0-1.0-152.0","",""
"null","sound/msl/bird.wav","null","audio-keyboard-response","154","91288","0.0-1.0-153.0","",""
"null","sound/msl/clock.wav","null","audio-keyboard-response","155","91840","0.0-1.0-154.0","",""
"null","sound/msl/organ.wav","null","audio-keyboard-response","156","92339","0.0-1.0-155.0","",""
"null","sound/msl/cow.wav","null","audio-keyboard-response","157","92844","0.0-1.0-156.0","",""
"null","sound/msl/ding.wav","null","audio-keyboard-response","158","93349","0.0-1.0-157.0","",""
"null","sound/msl/frog.wav","null","audio-keyboard-response","159","93854","0.0-1.0-158.0","",""
"null","sound/msl/door.wav","null","audio-keyboard-response","160","94353","0.0-1.0-159.0","",""
"null","sound/msl/dog.wav","null","audio-keyboard-response","161","94859","0.0-1.0-160.0","",""
"null","sound/msl/cat.wav","null","audio-keyboard-response","162","95352","0.0-1.0-161.0","",""
"null","sound/msl/bird.wav","null","audio-keyboard-response","163","95857","0.0-1.0-162.0","",""
"null","sound/msl/clock.wav","null","audio-keyboard-response","164","96409","0.0-1.0-163.0","",""
"null","sound/msl/organ.wav","null","audio-keyboard-response","165","96907","0.0-1.0-164.0","",""
"null","sound/msl/cow.wav","null","audio-keyboard-response","166","97413","0.0-1.0-165.0","",""
"null","sound/msl/ding.wav","null","audio-keyboard-response","167","97917","0.0-1.0-166.0","",""
"null","sound/msl/frog.wav","null","audio-keyboard-response","168","98423","0.0-1.0-167.0","",""
"null","sound/msl/door_bell.wav","null","audio-keyboard-response","169","98928","0.0-1.0-168.0","",""
"null","sound/msl/duck.wav","null","audio-keyboard-response","170","99433","0.0-1.0-169.0","",""
"null","sound/msl/Water.wav","null","audio-keyboard-response","171","99943","0.0-1.0-170.0","",""
"null","sound/msl/goat.wav","null","audio-keyboard-response","172","100478","0.0-1.0-171.0","",""
"null","sound/msl/slide_whistle.wav","null","audio-keyboard-response","173","100977","0.0-1.0-172.0","",""
"null","sound/msl/boing.wav","null","audio-keyboard-response","174","101476","0.0-1.0-173.0","",""
"null","sound/msl/door.wav","null","audio-keyboard-response","175","101976","0.0-1.0-174.0","",""
"null","sound/msl/dog.wav","null","audio-keyboard-response","176","102481","0.0-1.0-175.0","",""
"null","sound/msl/cat.wav","null","audio-keyboard-response","177","102974","0.0-1.0-176.0","",""
"null","sound/msl/bird.wav","null","audio-keyboard-response","178","103479","0.0-1.0-177.0","",""
"null","sound/msl/clock.wav","null","audio-keyboard-response","179","104030","0.0-1.0-178.0","",""
"null","sound/msl/organ.wav","null","audio-keyboard-response","180","104530","0.0-1.0-179.0","",""
"null","sound/msl/goat.wav","null","audio-keyboard-response","181","105064","0.0-1.0-180.0","",""
"null","sound/msl/slide_whistle.wav","null","audio-keyboard-response","182","105564","0.0-1.0-181.0","",""
"null","sound/msl/boing.wav","null","audio-keyboard-response","183","106062","0.0-1.0-182.0","",""
"null","sound/msl/cow.wav","null","audio-keyboard-response","184","106568","0.0-1.0-183.0","",""
"null","sound/msl/ding.wav","null","audio-keyboard-response","185","107073","0.0-1.0-184.0","",""
"null","sound/msl/frog.wav","null","audio-keyboard-response","186","107577","0.0-1.0-185.0","",""
"null","sound/msl/door_bell.wav","null","audio-keyboard-response","187","108082","0.0-1.0-186.0","",""
"null","sound/msl/duck.wav","null","audio-keyboard-response","188","108587","0.0-1.0-187.0","",""
"null","sound/msl/Water.wav","null","audio-keyboard-response","189","109099","0.0-1.0-188.0","",""
"null","sound/msl/door.wav","null","audio-keyboard-response","190","109598","0.0-1.0-189.0","",""
"null","sound/msl/dog.wav","null","audio-keyboard-response","191","110103","0.0-1.0-190.0","",""
"null","sound/msl/cat.wav","null","audio-keyboard-response","192","110596","0.0-1.0-191.0","",""
"null","sound/msl/bird.wav","null","audio-keyboard-response","193","111102","0.0-1.0-192.0","",""
"null","sound/msl/clock.wav","null","audio-keyboard-response","194","111653","0.0-1.0-193.0","",""
"null","sound/msl/organ.wav","null","audio-keyboard-response","195","112152","0.0-1.0-194.0","",""
"null","sound/msl/goat.wav","null","audio-keyboard-response","196","112687","0.0-1.0-195.0","",""
"null","sound/msl/slide_whistle.wav","null","audio-keyboard-response","197","113185","0.0-1.0-196.0","",""
"null","sound/msl/boing.wav","null","audio-keyboard-response","198","113685","0.0-1.0-197.0","",""
"null","sound/msl/door_bell.wav","null","audio-keyboard-response","199","114189","0.0-1.0-198.0","",""
"null","sound/msl/duck.wav","null","audio-keyboard-response","200","114694","0.0-1.0-199.0","",""
"null","sound/msl/Water.wav","null","audio-keyboard-response","201","115205","0.0-1.0-200.0","",""
"null","sound/msl/cow.wav","null","audio-keyboard-response","202","115710","0.0-1.0-201.0","",""
"null","sound/msl/ding.wav","null","audio-keyboard-response","203","116216","0.0-1.0-202.0","",""
"null","sound/msl/frog.wav","null","audio-keyboard-response","204","116720","0.0-1.0-203.0","",""
"null","sound/msl/door.wav","null","audio-keyboard-response","205","117220","0.0-1.0-204.0","",""
"null","sound/msl/dog.wav","null","audio-keyboard-response","206","117725","0.0-1.0-205.0","",""
"null","sound/msl/cat.wav","null","audio-keyboard-response","207","118219","0.0-1.0-206.0","",""
"null","sound/msl/bird.wav","null","audio-keyboard-response","208","118723","0.0-1.0-207.0","",""
"null","sound/msl/clock.wav","null","audio-keyboard-response","209","119275","0.0-1.0-208.0","",""
"null","sound/msl/organ.wav","null","audio-keyboard-response","210","119774","0.0-1.0-209.0","",""
"null","sound/msl/door_bell.wav","null","audio-keyboard-response","211","120279","0.0-1.0-210.0","",""
"null","sound/msl/duck.wav","null","audio-keyboard-response","212","120784","0.0-1.0-211.0","",""
"null","sound/msl/Water.wav","null","audio-keyboard-response","213","121295","0.0-1.0-212.0","",""
"null","sound/msl/door.wav","null","audio-keyboard-response","214","121794","0.0-1.0-213.0","",""
"null","sound/msl/dog.wav","null","audio-keyboard-response","215","122299","0.0-1.0-214.0","",""
"null","sound/msl/cat.wav","null","audio-keyboard-response","216","122793","0.0-1.0-215.0","",""
"null","sound/msl/goat.wav","null","audio-keyboard-response","217","123327","0.0-1.0-216.0","",""
"null","sound/msl/slide_whistle.wav","null","audio-keyboard-response","218","123827","0.0-1.0-217.0","",""
"null","sound/msl/boing.wav","null","audio-keyboard-response","219","124325","0.0-1.0-218.0","",""
"null","sound/msl/cow.wav","null","audio-keyboard-response","220","124830","0.0-1.0-219.0","",""
"null","sound/msl/ding.wav","null","audio-keyboard-response","221","125335","0.0-1.0-220.0","",""
"null","sound/msl/frog.wav","null","audio-keyboard-response","222","125840","0.0-1.0-221.0","",""
"null","sound/msl/bird.wav","null","audio-keyboard-response","223","126346","0.0-1.0-222.0","",""
"null","sound/msl/clock.wav","null","audio-keyboard-response","224","126897","0.0-1.0-223.0","",""
"null","sound/msl/organ.wav","null","audio-keyboard-response","225","127396","0.0-1.0-224.0","",""
"null","sound/msl/goat.wav","null","audio-keyboard-response","226","127931","0.0-1.0-225.0","",""
"null","sound/msl/slide_whistle.wav","null","audio-keyboard-response","227","128430","0.0-1.0-226.0","",""
"null","sound/msl/boing.wav","null","audio-keyboard-response","228","128929","0.0-1.0-227.0","",""
"null","sound/msl/door.wav","null","audio-keyboard-response","229","129428","0.0-1.0-228.0","",""
"null","sound/msl/dog.wav","null","audio-keyboard-response","230","129933","0.0-1.0-229.0","",""
"null","sound/msl/cat.wav","null","audio-keyboard-response","231","130427","0.0-1.0-230.0","",""
"null","sound/msl/goat.wav","null","audio-keyboard-response","232","130960","0.0-1.0-231.0","",""
"null","sound/msl/slide_whistle.wav","null","audio-keyboard-response","233","131460","0.0-1.0-232.0","",""
"null","sound/msl/boing.wav","null","audio-keyboard-response","234","131959","0.0-1.0-233.0","",""
"null","sound/msl/bird.wav","null","audio-keyboard-response","235","132464","0.0-1.0-234.0","",""
"null","sound/msl/clock.wav","null","audio-keyboard-response","236","133016","0.0-1.0-235.0","",""
"null","sound/msl/organ.wav","null","audio-keyboard-response","237","133514","0.0-1.0-236.0","",""
"null","sound/msl/cow.wav","null","audio-keyboard-response","238","134019","0.0-1.0-237.0","",""
"null","sound/msl/ding.wav","null","audio-keyboard-response","239","134525","0.0-1.0-238.0","",""
"null","sound/msl/frog.wav","null","audio-keyboard-response","240","135030","0.0-1.0-239.0","",""
"null","sound/msl/door_bell.wav","null","audio-keyboard-response","241","135535","0.0-1.0-240.0","",""
"null","sound/msl/duck.wav","null","audio-keyboard-response","242","136040","0.0-1.0-241.0","",""
"null","sound/msl/Water.wav","null","audio-keyboard-response","243","136550","0.0-1.0-242.0","",""
"null","sound/msl/door.wav","null","audio-keyboard-response","244","137051","0.0-1.0-243.0","",""
"null","sound/msl/dog.wav","null","audio-keyboard-response","245","137555","0.0-1.0-244.0","",""
"null","sound/msl/cat.wav","null","audio-keyboard-response","246","138048","0.0-1.0-245.0","",""
"null","sound/msl/bird.wav","null","audio-keyboard-response","247","138554","0.0-1.0-246.0","",""
"null","sound/msl/clock.wav","null","audio-keyboard-response","248","139105","0.0-1.0-247.0","",""
"null","sound/msl/organ.wav","null","audio-keyboard-response","249","139604","0.0-1.0-248.0","",""
"null","sound/msl/cow.wav","null","audio-keyboard-response","250","140110","0.0-1.0-249.0","",""
"null","sound/msl/ding.wav","null","audio-keyboard-response","251","140616","0.0-1.0-250.0","",""
"null","sound/msl/frog.wav","null","audio-keyboard-response","252","141120","0.0-1.0-251.0","",""
"null","sound/msl/door_bell.wav","null","audio-keyboard-response","253","141625","0.0-1.0-252.0","",""
"null","sound/msl/duck.wav","null","audio-keyboard-response","254","142130","0.0-1.0-253.0","",""
"null","sound/msl/Water.wav","null","audio-keyboard-response","255","142641","0.0-1.0-254.0","",""
"null","sound/msl/goat.wav","null","audio-keyboard-response","256","143174","0.0-1.0-255.0","",""
"null","sound/msl/slide_whistle.wav","null","audio-keyboard-response","257","143674","0.0-1.0-256.0","",""
"null","sound/msl/boing.wav","null","audio-keyboard-response","258","144173","0.0-1.0-257.0","",""
"null","sound/msl/door.wav","null","audio-keyboard-response","259","144672","0.0-1.0-258.0","",""
"null","sound/msl/dog.wav","null","audio-keyboard-response","260","145177","0.0-1.0-259.0","",""
"null","sound/msl/cat.wav","null","audio-keyboard-response","261","145671","0.0-1.0-260.0","",""
"null","sound/msl/door_bell.wav","null","audio-keyboard-response","262","146176","0.0-1.0-261.0","",""
"null","sound/msl/duck.wav","null","audio-keyboard-response","263","146682","0.0-1.0-262.0","",""
"null","sound/msl/Water.wav","null","audio-keyboard-response","264","147192","0.0-1.0-263.0","",""
"null","sound/msl/cow.wav","null","audio-keyboard-response","265","147697","0.0-1.0-264.0","",""
"null","sound/msl/ding.wav","null","audio-keyboard-response","266","148202","0.0-1.0-265.0","",""
"null","sound/msl/frog.wav","null","audio-keyboard-response","267","148708","0.0-1.0-266.0","",""
"null","sound/msl/goat.wav","null","audio-keyboard-response","268","149241","0.0-1.0-267.0","",""
"null","sound/msl/slide_whistle.wav","null","audio-keyboard-response","269","149741","0.0-1.0-268.0","",""
"null","sound/msl/boing.wav","null","audio-keyboard-response","270","150240","0.0-1.0-269.0","",""
"null","sound/msl/bird.wav","null","audio-keyboard-response","271","150745","0.0-1.0-270.0","",""
"null","sound/msl/clock.wav","null","audio-keyboard-response","272","151296","0.0-1.0-271.0","",""
"null","sound/msl/organ.wav","null","audio-keyboard-response","273","151795","0.0-1.0-272.0","",""
"null","sound/msl/door.wav","null","audio-keyboard-response","274","152294","0.0-1.0-273.0","",""
"null","sound/msl/dog.wav","null","audio-keyboard-response","275","152799","0.0-1.0-274.0","",""
"null","sound/msl/cat.wav","null","audio-keyboard-response","276","153293","0.0-1.0-275.0","",""
"null","sound/msl/door_bell.wav","null","audio-keyboard-response","277","153798","0.0-1.0-276.0","",""
"null","sound/msl/duck.wav","null","audio-keyboard-response","278","154303","0.0-1.0-277.0","",""
"null","sound/msl/Water.wav","null","audio-keyboard-response","279","154814","0.0-1.0-278.0","",""
"null","sound/msl/cow.wav","null","audio-keyboard-response","280","155319","0.0-1.0-279.0","",""
"null","sound/msl/ding.wav","null","audio-keyboard-response","281","155824","0.0-1.0-280.0","",""
"null","sound/msl/frog.wav","null","audio-keyboard-response","282","156329","0.0-1.0-281.0","",""
"null","sound/msl/bird.wav","null","audio-keyboard-response","283","156834","0.0-1.0-282.0","",""
"null","sound/msl/clock.wav","null","audio-keyboard-response","284","157386","0.0-1.0-283.0","",""
"null","sound/msl/organ.wav","null","audio-keyboard-response","285","157885","0.0-1.0-284.0","",""
"null","sound/msl/goat.wav","null","audio-keyboard-response","286","158419","0.0-1.0-285.0","",""
"null","sound/msl/slide_whistle.wav","null","audio-keyboard-response","287","158919","0.0-1.0-286.0","",""
"null","sound/msl/boing.wav","null","audio-keyboard-response","288","159418","0.0-1.0-287.0","",""
"null","sound/msl/door.wav","null","audio-keyboard-response","289","159917","0.0-1.0-288.0","",""
"null","sound/msl/dog.wav","null","audio-keyboard-response","290","160422","0.0-1.0-289.0","",""
"null","sound/msl/cat.wav","null","audio-keyboard-response","291","160915","0.0-1.0-290.0","",""
"null","sound/msl/cow.wav","null","audio-keyboard-response","292","161420","0.0-1.0-291.0","",""
"null","sound/msl/ding.wav","null","audio-keyboard-response","293","161925","0.0-1.0-292.0","",""
"null","sound/msl/frog.wav","null","audio-keyboard-response","294","162431","0.0-1.0-293.0","",""
"null","sound/msl/door_bell.wav","null","audio-keyboard-response","295","162936","0.0-1.0-294.0","",""
"null","sound/msl/duck.wav","null","audio-keyboard-response","296","163441","0.0-1.0-295.0","",""
"null","sound/msl/Water.wav","null","audio-keyboard-response","297","163951","0.0-1.0-296.0","",""
"null","sound/msl/door.wav","null","audio-keyboard-response","298","164450","0.0-1.0-297.0","",""
"null","sound/msl/dog.wav","null","audio-keyboard-response","299","164955","0.0-1.0-298.0","",""
"null","sound/msl/cat.wav","null","audio-keyboard-response","300","165449","0.0-1.0-299.0","",""
"null","sound/msl/bird.wav","null","audio-keyboard-response","301","165954","0.0-1.0-300.0","",""
"null","sound/msl/clock.wav","null","audio-keyboard-response","302","166506","0.0-1.0-301.0","",""
"null","sound/msl/organ.wav","null","audio-keyboard-response","303","167005","0.0-1.0-302.0","",""
"null","sound/msl/cow.wav","null","audio-keyboard-response","304","167510","0.0-1.0-303.0","",""
"null","sound/msl/ding.wav","null","audio-keyboard-response","305","168015","0.0-1.0-304.0","",""
"null","sound/msl/frog.wav","null","audio-keyboard-response","306","168520","0.0-1.0-305.0","",""
"null","sound/msl/goat.wav","null","audio-keyboard-response","307","169054","0.0-1.0-306.0","",""
"null","sound/msl/slide_whistle.wav","null","audio-keyboard-response","308","169553","0.0-1.0-307.0","",""
"null","sound/msl/boing.wav","null","audio-keyboard-response","309","170052","0.0-1.0-308.0","",""
"null","sound/msl/door_bell.wav","null","audio-keyboard-response","310","170558","0.0-1.0-309.0","",""
"null","sound/msl/duck.wav","null","audio-keyboard-response","311","171062","0.0-1.0-310.0","",""
"null","sound/msl/Water.wav","null","audio-keyboard-response","312","171573","0.0-1.0-311.0","",""
"null","sound/msl/door.wav","null","audio-keyboard-response","313","172073","0.0-1.0-312.0","",""
"null","sound/msl/dog.wav","null","audio-keyboard-response","314","172577","0.0-1.0-313.0","",""
"null","sound/msl/cat.wav","null","audio-keyboard-response","315","173071","0.0-1.0-314.0","",""
"null","sound/msl/bird.wav","null","audio-keyboard-response","316","173576","0.0-1.0-315.0","",""
"null","sound/msl/clock.wav","null","audio-keyboard-response","317","174128","0.0-1.0-316.0","",""
"null","sound/msl/organ.wav","null","audio-keyboard-response","318","174627","0.0-1.0-317.0","",""
"null","sound/msl/cow.wav","null","audio-keyboard-response","319","175132","0.0-1.0-318.0","",""
"null","sound/msl/ding.wav","null","audio-keyboard-response","320","175637","0.0-1.0-319.0","",""
"null","sound/msl/frog.wav","null","audio-keyboard-response","321","176142","0.0-1.0-320.0","",""
"null","sound/msl/door_bell.wav","null","audio-keyboard-response","322","176647","0.0-1.0-321.0","",""
"null","sound/msl/duck.wav","null","audio-keyboard-response","323","177153","0.0-1.0-322.0","",""
"null","sound/msl/Water.wav","null","audio-keyboard-response","324","177663","0.0-1.0-323.0","",""
"null","sound/msl/bird.wav","null","audio-keyboard-response","325","178169","0.0-1.0-324.0","",""
"null","sound/msl/clock.wav","null","audio-keyboard-response","326","178720","0.0-1.0-325.0","",""
"null","sound/msl/organ.wav","null","audio-keyboard-response","327","179219","0.0-1.0-326.0","",""
"null","sound/msl/goat.wav","null","audio-keyboard-response","328","179753","0.0-1.0-327.0","",""
"null","sound/msl/slide_whistle.wav","null","audio-keyboard-response","329","180252","0.0-1.0-328.0","",""
"null","sound/msl/boing.wav","null","audio-keyboard-response","330","180751","0.0-1.0-329.0","",""
"null","sound/msl/door.wav","null","audio-keyboard-response","331","181251","0.0-1.0-330.0","",""
"null","sound/msl/dog.wav","null","audio-keyboard-response","332","181756","0.0-1.0-331.0","",""
"null","sound/msl/cat.wav","null","audio-keyboard-response","333","182249","0.0-1.0-332.0","",""
"null","sound/msl/cow.wav","null","audio-keyboard-response","334","182754","0.0-1.0-333.0","",""
"null","sound/msl/ding.wav","null","audio-keyboard-response","335","183259","0.0-1.0-334.0","",""
"null","sound/msl/frog.wav","null","audio-keyboard-response","336","183765","0.0-1.0-335.0","",""
"null","sound/msl/goat.wav","null","audio-keyboard-response","337","184298","0.0-1.0-336.0","",""
"null","sound/msl/slide_whistle.wav","null","audio-keyboard-response","338","184798","0.0-1.0-337.0","",""
"null","sound/msl/boing.wav","null","audio-keyboard-response","339","185297","0.0-1.0-338.0","",""
"null","sound/msl/door_bell.wav","null","audio-keyboard-response","340","185802","0.0-1.0-339.0","",""
"null","sound/msl/duck.wav","null","audio-keyboard-response","341","186306","0.0-1.0-340.0","",""
"null","sound/msl/Water.wav","null","audio-keyboard-response","342","186818","0.0-1.0-341.0","",""
"null","sound/msl/cow.wav","null","audio-keyboard-response","343","187323","0.0-1.0-342.0","",""
"null","sound/msl/ding.wav","null","audio-keyboard-response","344","187828","0.0-1.0-343.0","",""
"null","sound/msl/frog.wav","null","audio-keyboard-response","345","188334","0.0-1.0-344.0","",""
"null","sound/msl/door_bell.wav","null","audio-keyboard-response","346","188838","0.0-1.0-345.0","",""
"null","sound/msl/duck.wav","null","audio-keyboard-response","347","189344","0.0-1.0-346.0","",""
"null","sound/msl/Water.wav","null","audio-keyboard-response","348","189854","0.0-1.0-347.0","",""
"null","sound/msl/goat.wav","null","audio-keyboard-response","349","190388","0.0-1.0-348.0","",""
"null","sound/msl/slide_whistle.wav","null","audio-keyboard-response","350","190887","0.0-1.0-349.0","",""
"null","sound/msl/boing.wav","null","audio-keyboard-response","351","191387","0.0-1.0-350.0","",""
"null","sound/msl/door.wav","null","audio-keyboard-response","352","191886","0.0-1.0-351.0","",""
"null","sound/msl/dog.wav","null","audio-keyboard-response","353","192390","0.0-1.0-352.0","",""
"null","sound/msl/cat.wav","null","audio-keyboard-response","354","192884","0.0-1.0-353.0","",""
"null","sound/msl/cow.wav","null","audio-keyboard-response","355","193390","0.0-1.0-354.0","",""
"null","sound/msl/ding.wav","null","audio-keyboard-response","356","193894","0.0-1.0-355.0","",""
"null","sound/msl/frog.wav","null","audio-keyboard-response","357","194400","0.0-1.0-356.0","",""
"null","sound/msl/door_bell.wav","null","audio-keyboard-response","358","194904","0.0-1.0-357.0","",""
"null","sound/msl/duck.wav","null","audio-keyboard-response","359","195409","0.0-1.0-358.0","",""
"null","sound/msl/Water.wav","null","audio-keyboard-response","360","195920","0.0-1.0-359.0","",""
"23527","Instructions2-eng.png","49","image-keyboard-response","361","219449","0.0-2.0","",""
"null","sound/msl/cow.wav","null","audio-keyboard-response","362","219954","0.0-3.0-0.0","",""
"null","sound/msl/dog.wav","null","audio-keyboard-response","363","220459","0.0-3.0-1.0","",""
"null","sound/msl/Water.wav","null","audio-keyboard-response","364","220970","0.0-3.0-2.0","",""
"null","sound/asl/silence.wav","null","audio-keyboard-response","365","221472","0.0-3.0-3.0","",""
"null","sound/msl/goat.wav","null","audio-keyboard-response","366","222003","0.0-3.0-4.0","",""
"null","sound/msl/slide_whistle.wav","null","audio-keyboard-response","367","222502","0.0-3.0-5.0","",""
"null","sound/msl/boing.wav","null","audio-keyboard-response","368","223002","0.0-3.0-6.0","",""
"10844","sound/asl/silence.wav","50","audio-keyboard-response","369","233851","0.0-3.0-7.0","true",""
"null","sound/msl/bird.wav","null","audio-keyboard-response","370","234357","0.0-4.0-0.0","",""
"null","sound/msl/slide_whistle.wav","null","audio-keyboard-response","371","234855","0.0-4.0-1.0","",""
"null","sound/msl/frog.wav","null","audio-keyboard-response","372","235361","0.0-4.0-2.0","",""
"null","sound/asl/silence.wav","null","audio-keyboard-response","373","235863","0.0-4.0-3.0","",""
"null","sound/msl/door_bell.wav","null","audio-keyboard-response","374","236365","0.0-4.0-4.0","",""
"null","sound/msl/duck.wav","null","audio-keyboard-response","375","236869","0.0-4.0-5.0","",""
"null","sound/msl/Water.wav","null","audio-keyboard-response","376","237381","0.0-4.0-6.0","",""
"1155","sound/asl/silence.wav","50","audio-keyboard-response","377","238538","0.0-4.0-7.0","true",""
"null","sound/msl/cow.wav","null","audio-keyboard-response","378","239041","0.0-5.0-0.0","",""
"null","sound/msl/dog.wav","null","audio-keyboard-response","379","239547","0.0-5.0-1.0","",""
"null","sound/msl/Water.wav","null","audio-keyboard-response","380","240057","0.0-5.0-2.0","",""
"null","sound/asl/silence.wav","null","audio-keyboard-response","381","240561","0.0-5.0-3.0","",""
"null","sound/msl/bird.wav","null","audio-keyboard-response","382","241067","0.0-5.0-4.0","",""
"null","sound/msl/clock.wav","null","audio-keyboard-response","383","241619","0.0-5.0-5.0","",""
"null","sound/msl/organ.wav","null","audio-keyboard-response","384","242118","0.0-5.0-6.0","",""
"865","sound/asl/silence.wav","50","audio-keyboard-response","385","242985","0.0-5.0-7.0","true",""
"null","sound/msl/door.wav","null","audio-keyboard-response","386","243482","0.0-6.0-0.0","",""
"null","sound/msl/dog.wav","null","audio-keyboard-response","387","243987","0.0-6.0-1.0","",""
"null","sound/msl/cat.wav","null","audio-keyboard-response","388","244481","0.0-6.0-2.0","",""
"null","sound/asl/silence.wav","null","audio-keyboard-response","389","244986","0.0-6.0-3.0","",""
"null","sound/msl/cow.wav","null","audio-keyboard-response","390","245491","0.0-6.0-4.0","",""
"null","sound/msl/dog.wav","null","audio-keyboard-response","391","245996","0.0-6.0-5.0","",""
"null","sound/msl/Water.wav","null","audio-keyboard-response","392","246507","0.0-6.0-6.0","",""
"3239","sound/asl/silence.wav","49","audio-keyboard-response","393","249749","0.0-6.0-7.0","true",""
"null","sound/msl/door_bell.wav","null","audio-keyboard-response","394","250251","0.0-7.0-0.0","",""
"null","sound/msl/clock.wav","null","audio-keyboard-response","395","250802","0.0-7.0-1.0","",""
"null","sound/msl/boing.wav","null","audio-keyboard-response","396","251302","0.0-7.0-2.0","",""
"null","sound/asl/silence.wav","null","audio-keyboard-response","397","251807","0.0-7.0-3.0","",""
"null","sound/msl/door.wav","null","audio-keyboard-response","398","252306","0.0-7.0-4.0","",""
"null","sound/msl/dog.wav","null","audio-keyboard-response","399","252811","0.0-7.0-5.0","",""
"null","sound/msl/cat.wav","null","audio-keyboard-response","400","253304","0.0-7.0-6.0","",""
"5939","sound/asl/silence.wav","49","audio-keyboard-response","401","259245","0.0-7.0-7.0","false",""
"null","sound/msl/goat.wav","null","audio-keyboard-response","402","259777","0.0-8.0-0.0","",""
"null","sound/msl/ding.wav","null","audio-keyboard-response","403","260282","0.0-8.0-1.0","",""
"null","sound/msl/cat.wav","null","audio-keyboard-response","404","260776","0.0-8.0-2.0","",""
"null","sound/asl/silence.wav","null","audio-keyboard-response","405","261280","0.0-8.0-3.0","",""
"null","sound/msl/cow.wav","null","audio-keyboard-response","406","261786","0.0-8.0-4.0","",""
"null","sound/msl/ding.wav","null","audio-keyboard-response","407","262291","0.0-8.0-5.0","",""
"null","sound/msl/frog.wav","null","audio-keyboard-response","408","262796","0.0-8.0-6.0","",""
"1440","sound/asl/silence.wav","49","audio-keyboard-response","409","264240","0.0-8.0-7.0","false",""
"null","sound/msl/bird.wav","null","audio-keyboard-response","410","264746","0.0-9.0-0.0","",""
"null","sound/msl/slide_whistle.wav","null","audio-keyboard-response","411","265245","0.0-9.0-1.0","",""
"null","sound/msl/frog.wav","null","audio-keyboard-response","412","265751","0.0-9.0-2.0","",""
"null","sound/asl/silence.wav","null","audio-keyboard-response","413","266256","0.0-9.0-3.0","",""
"null","sound/msl/cow.wav","null","audio-keyboard-response","414","266761","0.0-9.0-4.0","",""
"null","sound/msl/ding.wav","null","audio-keyboard-response","415","267266","0.0-9.0-5.0","",""
"null","sound/msl/frog.wav","null","audio-keyboard-response","416","267771","0.0-9.0-6.0","",""
"7448","sound/asl/silence.wav","50","audio-keyboard-response","417","275220","0.0-9.0-7.0","true",""
"null","sound/msl/door_bell.wav","null","audio-keyboard-response","418","275724","0.0-10.0-0.0","",""
"null","sound/msl/clock.wav","null","audio-keyboard-response","419","276276","0.0-10.0-1.0","",""
"null","sound/msl/boing.wav","null","audio-keyboard-response","420","276775","0.0-10.0-2.0","",""
"null","sound/asl/silence.wav","null","audio-keyboard-response","421","277279","0.0-10.0-3.0","",""
"null","sound/msl/cow.wav","null","audio-keyboard-response","422","277785","0.0-10.0-4.0","",""
"null","sound/msl/ding.wav","null","audio-keyboard-response","423","278289","0.0-10.0-5.0","",""
"null","sound/msl/frog.wav","null","audio-keyboard-response","424","278795","0.0-10.0-6.0","",""
"1010","sound/asl/silence.wav","50","audio-keyboard-response","425","279808","0.0-10.0-7.0","true",""
"null","sound/msl/door_bell.wav","null","audio-keyboard-response","426","280310","0.0-11.0-0.0","",""
"null","sound/msl/duck.wav","null","audio-keyboard-response","427","280815","0.0-11.0-1.0","",""
"null","sound/msl/Water.wav","null","audio-keyboard-response","428","281325","0.0-11.0-2.0","",""
"null","sound/asl/silence.wav","null","audio-keyboard-response","429","281830","0.0-11.0-3.0","",""
"null","sound/msl/door.wav","null","audio-keyboard-response","430","282324","0.0-11.0-4.0","",""
"null","sound/msl/duck.wav","null","audio-keyboard-response","431","282829","0.0-11.0-5.0","",""
"null","sound/msl/organ.wav","null","audio-keyboard-response","432","283328","0.0-11.0-6.0","",""
"853","sound/asl/silence.wav","49","audio-keyboard-response","433","284185","0.0-11.0-7.0","true",""
"null","sound/msl/cow.wav","null","audio-keyboard-response","434","284687","0.0-12.0-0.0","",""
"null","sound/msl/ding.wav","null","audio-keyboard-response","435","285192","0.0-12.0-1.0","",""
"null","sound/msl/frog.wav","null","audio-keyboard-response","436","285698","0.0-12.0-2.0","",""
"null","sound/asl/silence.wav","null","audio-keyboard-response","437","286203","0.0-12.0-3.0","",""
"null","sound/msl/door.wav","null","audio-keyboard-response","438","286702","0.0-12.0-4.0","",""
"null","sound/msl/duck.wav","null","audio-keyboard-response","439","287206","0.0-12.0-5.0","",""
"null","sound/msl/organ.wav","null","audio-keyboard-response","440","287706","0.0-12.0-6.0","",""
"813","sound/asl/silence.wav","49","audio-keyboard-response","441","288523","0.0-12.0-7.0","true",""
"null","sound/msl/bird.wav","null","audio-keyboard-response","442","289024","0.0-13.0-0.0","",""
"null","sound/msl/slide_whistle.wav","null","audio-keyboard-response","443","289522","0.0-13.0-1.0","",""
"null","sound/msl/frog.wav","null","audio-keyboard-response","444","290028","0.0-13.0-2.0","",""
"null","sound/asl/silence.wav","null","audio-keyboard-response","445","290533","0.0-13.0-3.0","",""
"null","sound/msl/goat.wav","null","audio-keyboard-response","446","291067","0.0-13.0-4.0","",""
"null","sound/msl/slide_whistle.wav","null","audio-keyboard-response","447","291567","0.0-13.0-5.0","",""
"null","sound/msl/boing.wav","null","audio-keyboard-response","448","292066","0.0-13.0-6.0","",""
"2264","sound/asl/silence.wav","50","audio-keyboard-response","449","294331","0.0-13.0-7.0","true",""
"null","sound/msl/door.wav","null","audio-keyboard-response","450","294829","0.0-14.0-0.0","",""
"null","sound/msl/dog.wav","null","audio-keyboard-response","451","295334","0.0-14.0-1.0","",""
"null","sound/msl/cat.wav","null","audio-keyboard-response","452","295827","0.0-14.0-2.0","",""
"null","sound/asl/silence.wav","null","audio-keyboard-response","453","296332","0.0-14.0-3.0","",""
"null","sound/msl/bird.wav","null","audio-keyboard-response","454","296837","0.0-14.0-4.0","",""
"null","sound/msl/slide_whistle.wav","null","audio-keyboard-response","455","297336","0.0-14.0-5.0","",""
"null","sound/msl/frog.wav","null","audio-keyboard-response","456","297842","0.0-14.0-6.0","",""
"1434","sound/asl/silence.wav","50","audio-keyboard-response","457","299278","0.0-14.0-7.0","false",""
"null","sound/msl/goat.wav","null","audio-keyboard-response","458","299809","0.0-15.0-0.0","",""
"null","sound/msl/ding.wav","null","audio-keyboard-response","459","300315","0.0-15.0-1.0","",""
"null","sound/msl/cat.wav","null","audio-keyboard-response","460","300808","0.0-15.0-2.0","",""
"null","sound/asl/silence.wav","null","audio-keyboard-response","461","301310","0.0-15.0-3.0","",""
"null","sound/msl/door_bell.wav","null","audio-keyboard-response","462","301813","0.0-15.0-4.0","",""
"null","sound/msl/duck.wav","null","audio-keyboard-response","463","302317","0.0-15.0-5.0","",""
"null","sound/msl/Water.wav","null","audio-keyboard-response","464","302828","0.0-15.0-6.0","",""
"911","sound/asl/silence.wav","50","audio-keyboard-response","465","303745","0.0-15.0-7.0","true",""
"null","sound/msl/door.wav","null","audio-keyboard-response","466","304245","0.0-16.0-0.0","",""
"null","sound/msl/duck.wav","null","audio-keyboard-response","467","304750","0.0-16.0-1.0","",""
"null","sound/msl/organ.wav","null","audio-keyboard-response","468","305249","0.0-16.0-2.0","",""
"null","sound/asl/silence.wav","null","audio-keyboard-response","469","305754","0.0-16.0-3.0","",""
"null","sound/msl/bird.wav","null","audio-keyboard-response","470","306259","0.0-16.0-4.0","",""
"null","sound/msl/clock.wav","null","audio-keyboard-response","471","306811","0.0-16.0-5.0","",""
"null","sound/msl/organ.wav","null","audio-keyboard-response","472","307309","0.0-16.0-6.0","",""
"1503","sound/asl/silence.wav","49","audio-keyboard-response","473","308819","0.0-16.0-7.0","false",""
"null","sound/msl/goat.wav","null","audio-keyboard-response","474","309354","0.0-17.0-0.0","",""
"null","sound/msl/ding.wav","null","audio-keyboard-response","475","309858","0.0-17.0-1.0","",""
"null","sound/msl/cat.wav","null","audio-keyboard-response","476","310352","0.0-17.0-2.0","",""
"null","sound/asl/silence.wav","null","audio-keyboard-response","477","310856","0.0-17.0-3.0","",""
"null","sound/msl/goat.wav","null","audio-keyboard-response","478","311390","0.0-17.0-4.0","",""
"null","sound/msl/slide_whistle.wav","null","audio-keyboard-response","479","311890","0.0-17.0-5.0","",""
"null","sound/msl/boing.wav","null","audio-keyboard-response","480","312389","0.0-17.0-6.0","",""
"923","sound/asl/silence.wav","49","audio-keyboard-response","481","313315","0.0-17.0-7.0","false",""
"null","sound/msl/door_bell.wav","null","audio-keyboard-response","482","313817","0.0-18.0-0.0","",""
"null","sound/msl/duck.wav","null","audio-keyboard-response","483","314323","0.0-18.0-1.0","",""
"null","sound/msl/Water.wav","null","audio-keyboard-response","484","314834","0.0-18.0-2.0","",""
"null","sound/asl/silence.wav","null","audio-keyboard-response","485","315338","0.0-18.0-3.0","",""
"null","sound/msl/cow.wav","null","audio-keyboard-response","486","315843","0.0-18.0-4.0","",""
"null","sound/msl/dog.wav","null","audio-keyboard-response","487","316349","0.0-18.0-5.0","",""
"null","sound/msl/Water.wav","null","audio-keyboard-response","488","316859","0.0-18.0-6.0","",""
"3988","sound/asl/silence.wav","50","audio-keyboard-response","489","320850","0.0-18.0-7.0","false",""
"null","sound/msl/door_bell.wav","null","audio-keyboard-response","490","321352","0.0-19.0-0.0","",""
"null","sound/msl/clock.wav","null","audio-keyboard-response","491","321904","0.0-19.0-1.0","",""
"null","sound/msl/boing.wav","null","audio-keyboard-response","492","322403","0.0-19.0-2.0","",""
"null","sound/asl/silence.wav","null","audio-keyboard-response","493","322908","0.0-19.0-3.0","",""
"null","sound/msl/door_bell.wav","null","audio-keyboard-response","494","323413","0.0-19.0-4.0","",""
"null","sound/msl/duck.wav","null","audio-keyboard-response","495","323918","0.0-19.0-5.0","",""
"null","sound/msl/Water.wav","null","audio-keyboard-response","496","324429","0.0-19.0-6.0","",""
"1904","sound/asl/silence.wav","50","audio-keyboard-response","497","326338","0.0-19.0-7.0","true",""
"null","sound/msl/bird.wav","null","audio-keyboard-response","498","326844","0.0-20.0-0.0","",""
"null","sound/msl/clock.wav","null","audio-keyboard-response","499","327395","0.0-20.0-1.0","",""
"null","sound/msl/organ.wav","null","audio-keyboard-response","500","327895","0.0-20.0-2.0","",""
"null","sound/asl/silence.wav","null","audio-keyboard-response","501","328399","0.0-20.0-3.0","",""
"null","sound/msl/bird.wav","null","audio-keyboard-response","502","328906","0.0-20.0-4.0","",""
"null","sound/msl/slide_whistle.wav","null","audio-keyboard-response","503","329404","0.0-20.0-5.0","",""
"null","sound/msl/frog.wav","null","audio-keyboard-response","504","329909","0.0-20.0-6.0","",""
"2316","sound/asl/silence.wav","50","audio-keyboard-response","505","332227","0.0-20.0-7.0","false",""
"null","sound/msl/door.wav","null","audio-keyboard-response","506","332725","0.0-21.0-0.0","",""
"null","sound/msl/dog.wav","null","audio-keyboard-response","507","333230","0.0-21.0-1.0","",""
"null","sound/msl/cat.wav","null","audio-keyboard-response","508","333723","0.0-21.0-2.0","",""
"null","sound/asl/silence.wav","null","audio-keyboard-response","509","334228","0.0-21.0-3.0","",""
"null","sound/msl/door.wav","null","audio-keyboard-response","510","334727","0.0-21.0-4.0","",""
"null","sound/msl/duck.wav","null","audio-keyboard-response","511","335232","0.0-21.0-5.0","",""
"null","sound/msl/organ.wav","null","audio-keyboard-response","512","335732","0.0-21.0-6.0","",""
"830","sound/asl/silence.wav","49","audio-keyboard-response","513","336567","0.0-21.0-7.0","true",""
"null","sound/msl/goat.wav","null","audio-keyboard-response","514","337101","0.0-22.0-0.0","",""
"null","sound/msl/slide_whistle.wav","null","audio-keyboard-response","515","337601","0.0-22.0-1.0","",""
"null","sound/msl/boing.wav","null","audio-keyboard-response","516","338101","0.0-22.0-2.0","",""
"null","sound/asl/silence.wav","null","audio-keyboard-response","517","338605","0.0-22.0-3.0","",""
"null","sound/msl/door_bell.wav","null","audio-keyboard-response","518","339111","0.0-22.0-4.0","",""
"null","sound/msl/clock.wav","null","audio-keyboard-response","519","339662","0.0-22.0-5.0","",""
"null","sound/msl/boing.wav","null","audio-keyboard-response","520","340162","0.0-22.0-6.0","",""
"1625","sound/asl/silence.wav","49","audio-keyboard-response","521","341792","0.0-22.0-7.0","true",""
"null","sound/msl/goat.wav","null","audio-keyboard-response","522","342326","0.0-23.0-0.0","",""
"null","sound/msl/ding.wav","null","audio-keyboard-response","523","342831","0.0-23.0-1.0","",""
"null","sound/msl/cat.wav","null","audio-keyboard-response","524","343325","0.0-23.0-2.0","",""
"null","sound/asl/silence.wav","null","audio-keyboard-response","525","343830","0.0-23.0-3.0","",""
"null","sound/msl/door.wav","null","audio-keyboard-response","526","344329","0.0-23.0-4.0","",""
"null","sound/msl/dog.wav","null","audio-keyboard-response","527","344834","0.0-23.0-5.0","",""
"null","sound/msl/cat.wav","null","audio-keyboard-response","528","345328","0.0-23.0-6.0","",""
"981","sound/asl/silence.wav","50","audio-keyboard-response","529","346311","0.0-23.0-7.0","true",""
"null","sound/msl/goat.wav","null","audio-keyboard-response","530","346843","0.0-24.0-0.0","",""
"null","sound/msl/slide_whistle.wav","null","audio-keyboard-response","531","347342","0.0-24.0-1.0","",""
"null","sound/msl/boing.wav","null","audio-keyboard-response","532","347842","0.0-24.0-2.0","",""
"null","sound/asl/silence.wav","null","audio-keyboard-response","533","348346","0.0-24.0-3.0","",""
"null","sound/msl/door.wav","null","audio-keyboard-response","534","348845","0.0-24.0-4.0","",""
"null","sound/msl/duck.wav","null","audio-keyboard-response","535","349351","0.0-24.0-5.0","",""
"null","sound/msl/organ.wav","null","audio-keyboard-response","536","349850","0.0-24.0-6.0","",""
"1707","sound/asl/silence.wav","49","audio-keyboard-response","537","351562","0.0-24.0-7.0","true",""
"null","sound/msl/cow.wav","null","audio-keyboard-response","538","352067","0.0-25.0-0.0","",""
"null","sound/msl/ding.wav","null","audio-keyboard-response","539","352572","0.0-25.0-1.0","",""
"null","sound/msl/frog.wav","null","audio-keyboard-response","540","353078","0.0-25.0-2.0","",""
"null","sound/asl/silence.wav","null","audio-keyboard-response","541","353582","0.0-25.0-3.0","",""
"null","sound/msl/cow.wav","null","audio-keyboard-response","542","354088","0.0-25.0-4.0","",""
"null","sound/msl/dog.wav","null","audio-keyboard-response","543","354593","0.0-25.0-5.0","",""
"null","sound/msl/Water.wav","null","audio-keyboard-response","544","355104","0.0-25.0-6.0","",""
"778","sound/asl/silence.wav","49","audio-keyboard-response","545","355884","0.0-25.0-7.0","true",""
"null","sound/msl/bird.wav","null","audio-keyboard-response","546","356387","0.0-26.0-0.0","",""
"null","sound/msl/clock.wav","null","audio-keyboard-response","547","356938","0.0-26.0-1.0","",""
"null","sound/msl/organ.wav","null","audio-keyboard-response","548","357437","0.0-26.0-2.0","",""
"null","sound/asl/silence.wav","null","audio-keyboard-response","549","357942","0.0-26.0-3.0","",""
"null","sound/msl/goat.wav","null","audio-keyboard-response","550","358476","0.0-26.0-4.0","",""
"null","sound/msl/ding.wav","null","audio-keyboard-response","551","358982","0.0-26.0-5.0","",""
"null","sound/msl/cat.wav","null","audio-keyboard-response","552","359476","0.0-26.0-6.0","",""
"2171","sound/asl/silence.wav","50","audio-keyboard-response","553","361647","0.0-26.0-7.0","false",""
"null","sound/msl/bird.wav","null","audio-keyboard-response","554","362151","0.0-27.0-0.0","",""
"null","sound/msl/clock.wav","null","audio-keyboard-response","555","362702","0.0-27.0-1.0","",""
"null","sound/msl/organ.wav","null","audio-keyboard-response","556","363201","0.0-27.0-2.0","",""
"null","sound/asl/silence.wav","null","audio-keyboard-response","557","363707","0.0-27.0-3.0","",""
"null","sound/msl/door_bell.wav","null","audio-keyboard-response","558","364212","0.0-27.0-4.0","",""
"null","sound/msl/clock.wav","null","audio-keyboard-response","559","364764","0.0-27.0-5.0","",""
"null","sound/msl/boing.wav","null","audio-keyboard-response","560","365263","0.0-27.0-6.0","",""
"691","sound/asl/silence.wav","50","audio-keyboard-response","561","365958","0.0-27.0-7.0","false",""
"3222","","","instructions","562","369181","0.0-28.0","","[{""page_index"":0,""viewing_time"":3221}]"
