"rt","stimulus","key_press","trial_type","trial_index","time_elapsed","internal_node_id","correct","view_history","responses"
"5079","backround.jpg","49","image-keyboard-response","0","5081","0.0-0.0","","",""
"null","sound/asl/5words_lanaguage.mp3","null","audio-keyboard-response","1","140640","0.0-1.0","","",""
"21301","Instructions2-eng.png","49","image-keyboard-response","2","161941","0.0-2.0","","",""
"null","sound/asl/dukame.wav","null","audio-keyboard-response","3","163146","0.0-3.0-0.0","","",""
"null","sound/asl/gekalu.wav","null","audio-keyboard-response","4","164064","0.0-3.0-1.0","","",""
"4876","sound/asl/silence.wav","49","audio-keyboard-response","5","168940","0.0-3.0-2.0","true","",""
"null","sound/asl/duloga.wav","null","audio-keyboard-response","6","170147","0.0-4.0-0.0","","",""
"null","sound/asl/tobelu.wav","null","audio-keyboard-response","7","171012","0.0-4.0-1.0","","",""
"702","sound/asl/silence.wav","50","audio-keyboard-response","8","171715","0.0-4.0-2.0","true","",""
"null","sound/asl/kimuga.wav","null","audio-keyboard-response","9","172916","0.0-5.0-0.0","","",""
"null","sound/asl/kibeno.wav","null","audio-keyboard-response","10","173775","0.0-5.0-1.0","","",""
"435","sound/asl/silence.wav","49","audio-keyboard-response","11","174216","0.0-5.0-2.0","true","",""
"null","sound/asl/tobelu.wav","null","audio-keyboard-response","12","175417","0.0-6.0-0.0","","",""
"null","sound/asl/kibeno.wav","null","audio-keyboard-response","13","176277","0.0-6.0-1.0","","",""
"522","sound/asl/silence.wav","49","audio-keyboard-response","14","176802","0.0-6.0-2.0","true","",""
"null","sound/asl/duloga.wav","null","audio-keyboard-response","15","178004","0.0-7.0-0.0","","",""
"null","sound/asl/gedino.wav","null","audio-keyboard-response","16","178866","0.0-7.0-1.0","","",""
"1991","sound/asl/silence.wav","50","audio-keyboard-response","17","180859","0.0-7.0-2.0","true","",""
"null","sound/asl/gedino.wav","null","audio-keyboard-response","18","182064","0.0-8.0-0.0","","",""
"null","sound/asl/gekalu.wav","null","audio-keyboard-response","19","182982","0.0-8.0-1.0","","",""
"2827","sound/asl/silence.wav","49","audio-keyboard-response","20","185811","0.0-8.0-2.0","true","",""
"null","sound/asl/nalobi.wav","null","audio-keyboard-response","21","187017","0.0-9.0-0.0","","",""
"null","sound/asl/kibeno.wav","null","audio-keyboard-response","22","187875","0.0-9.0-1.0","","",""
"4220","sound/asl/silence.wav","49","audio-keyboard-response","23","192101","0.0-9.0-2.0","true","",""
"null","sound/asl/tomubi.wav","null","audio-keyboard-response","24","193303","0.0-10.0-0.0","","",""
"null","sound/asl/kimuga.wav","null","audio-keyboard-response","25","194145","0.0-10.0-1.0","","",""
"3767","sound/asl/silence.wav","49","audio-keyboard-response","26","197914","0.0-10.0-2.0","false","",""
"null","sound/asl/dukame.wav","null","audio-keyboard-response","27","199118","0.0-11.0-0.0","","",""
"null","sound/asl/kibeno.wav","null","audio-keyboard-response","28","199973","0.0-11.0-1.0","","",""
"302","sound/asl/silence.wav","50","audio-keyboard-response","29","200280","0.0-11.0-2.0","false","",""
"null","sound/asl/duloga.wav","null","audio-keyboard-response","30","201483","0.0-12.0-0.0","","",""
"null","sound/asl/kimuga.wav","null","audio-keyboard-response","31","202325","0.0-12.0-1.0","","",""
"639","sound/asl/silence.wav","49","audio-keyboard-response","32","202964","0.0-12.0-2.0","false","",""
"null","sound/asl/tomubi.wav","null","audio-keyboard-response","33","204170","0.0-13.0-0.0","","",""
"null","sound/asl/gedino.wav","null","audio-keyboard-response","34","205036","0.0-13.0-1.0","","",""
"534","sound/asl/silence.wav","50","audio-keyboard-response","35","205569","0.0-13.0-2.0","true","",""
"null","sound/asl/tomubi.wav","null","audio-keyboard-response","36","206771","0.0-14.0-0.0","","",""
"null","sound/asl/tobelu.wav","null","audio-keyboard-response","37","207637","0.0-14.0-1.0","","",""
"952","sound/asl/silence.wav","50","audio-keyboard-response","38","208592","0.0-14.0-2.0","true","",""
"null","sound/asl/nadime.wav","null","audio-keyboard-response","39","209795","0.0-15.0-0.0","","",""
"null","sound/asl/kimuga.wav","null","audio-keyboard-response","40","210637","0.0-15.0-1.0","","",""
"969","sound/asl/silence.wav","49","audio-keyboard-response","41","211608","0.0-15.0-2.0","false","",""
"null","sound/asl/nadime.wav","null","audio-keyboard-response","42","212814","0.0-16.0-0.0","","",""
"null","sound/asl/gedino.wav","null","audio-keyboard-response","43","213680","0.0-16.0-1.0","","",""
"2856","sound/asl/silence.wav","50","audio-keyboard-response","44","216536","0.0-16.0-2.0","true","",""
"null","sound/asl/nadime.wav","null","audio-keyboard-response","45","217737","0.0-17.0-0.0","","",""
"null","sound/asl/tobelu.wav","null","audio-keyboard-response","46","218602","0.0-17.0-1.0","","",""
"697","sound/asl/silence.wav","50","audio-keyboard-response","47","219303","0.0-17.0-2.0","true","",""
"null","sound/asl/nalobi.wav","null","audio-keyboard-response","48","220506","0.0-18.0-0.0","","",""
"null","sound/asl/nadime.wav","null","audio-keyboard-response","49","221319","0.0-18.0-1.0","","",""
"4725","sound/asl/silence.wav","49","audio-keyboard-response","50","226046","0.0-18.0-2.0","true","",""
"null","sound/asl/tomubi.wav","null","audio-keyboard-response","51","227249","0.0-19.0-0.0","","",""
"null","sound/asl/dukame.wav","null","audio-keyboard-response","52","228093","0.0-19.0-1.0","","",""
"1974","sound/asl/silence.wav","50","audio-keyboard-response","53","230068","0.0-19.0-2.0","true","",""
"null","sound/asl/tomubi.wav","null","audio-keyboard-response","54","231272","0.0-20.0-0.0","","",""
"null","sound/asl/nalobi.wav","null","audio-keyboard-response","55","232099","0.0-20.0-1.0","","",""
"377","sound/asl/silence.wav","49","audio-keyboard-response","56","232481","0.0-20.0-2.0","false","",""
"null","sound/asl/nalobi.wav","null","audio-keyboard-response","57","233684","0.0-21.0-0.0","","",""
"null","sound/asl/gekalu.wav","null","audio-keyboard-response","58","234601","0.0-21.0-1.0","","",""
"308","sound/asl/silence.wav","49","audio-keyboard-response","59","234910","0.0-21.0-2.0","true","",""
"null","sound/asl/dukame.wav","null","audio-keyboard-response","60","236112","0.0-22.0-0.0","","",""
"null","sound/asl/duloga.wav","null","audio-keyboard-response","61","236947","0.0-22.0-1.0","","",""
"1335","sound/asl/silence.wav","50","audio-keyboard-response","62","238285","0.0-22.0-2.0","false","",""
"null","sound/asl/kimuga.wav","null","audio-keyboard-response","63","239489","0.0-23.0-0.0","","",""
"null","sound/asl/gekalu.wav","null","audio-keyboard-response","64","240407","0.0-23.0-1.0","","",""
"488","sound/asl/silence.wav","50","audio-keyboard-response","65","240898","0.0-23.0-2.0","false","",""
"null","sound/asl/gedino.wav","null","audio-keyboard-response","66","242102","0.0-24.0-0.0","","",""
"null","sound/asl/kibeno.wav","null","audio-keyboard-response","67","242960","0.0-24.0-1.0","","",""
"877","sound/asl/silence.wav","49","audio-keyboard-response","68","243842","0.0-24.0-2.0","true","",""
"null","sound/asl/nadime.wav","null","audio-keyboard-response","69","245045","0.0-25.0-0.0","","",""
"null","sound/asl/dukame.wav","null","audio-keyboard-response","70","245892","0.0-25.0-1.0","","",""
"505","sound/asl/silence.wav","49","audio-keyboard-response","71","246399","0.0-25.0-2.0","false","",""
"null","sound/asl/tobelu.wav","null","audio-keyboard-response","72","247605","0.0-26.0-0.0","","",""
"null","sound/asl/gekalu.wav","null","audio-keyboard-response","73","248522","0.0-26.0-1.0","","",""
"255","sound/asl/silence.wav","49","audio-keyboard-response","74","248777","0.0-26.0-2.0","true","",""
"null","sound/asl/nalobi.wav","null","audio-keyboard-response","75","249979","0.0-27.0-0.0","","",""
"null","sound/asl/duloga.wav","null","audio-keyboard-response","76","250815","0.0-27.0-1.0","","",""
"2113","sound/asl/silence.wav","50","audio-keyboard-response","77","252928","0.0-27.0-2.0","false","",""
"4006","","","instructions","78","256935","0.0-28.0","","[{""page_index"":0,""viewing_time"":4006}]",""
"10383","","","survey-likert","79","267320","0.0-29.0","","","{""Q0"":0}"
"7220","","","survey-likert","80","274542","0.0-30.0","","","{""Q0"":0}"
"5902","","","survey-likert","81","280446","0.0-31.0","","","{""Q0"":0}"
"9287","","","survey-likert","82","289734","0.0-32.0","","","{""Q0"":0}"
"4130","","","survey-likert","83","293866","0.0-33.0","","","{""Q0"":1}"
"4700","","","survey-likert","84","298567","0.0-34.0","","","{""Q0"":1}"
"1596","","","instructions","85","300164","0.0-35.0","","[{""page_index"":0,""viewing_time"":1596}]",""
