"rt","stimulus","key_press","trial_type","trial_index","time_elapsed","internal_node_id","correct","view_history"
"56925","alien.jpg","49","image-keyboard-response","0","56928","0.0-0.0","",""
"null","sound/msl/duck.wav","null","audio-keyboard-response","1","57436","0.0-1.0-0.0","",""
"null","sound/msl/bird.wav","null","audio-keyboard-response","2","57948","0.0-1.0-1.0","",""
"null","sound/msl/boing.wav","null","audio-keyboard-response","3","58456","0.0-1.0-2.0","",""
"null","sound/msl/Water.wav","null","audio-keyboard-response","4","58979","0.0-1.0-3.0","",""
"null","sound/msl/clock.wav","null","audio-keyboard-response","5","59537","0.0-1.0-4.0","",""
"null","sound/msl/cow.wav","null","audio-keyboard-response","6","60057","0.0-1.0-5.0","",""
"null","sound/msl/goat.wav","null","audio-keyboard-response","7","60609","0.0-1.0-6.0","",""
"null","sound/msl/slide_whistle.wav","null","audio-keyboard-response","8","61118","0.0-1.0-7.0","",""
"null","sound/msl/dog.wav","null","audio-keyboard-response","9","61627","0.0-1.0-8.0","",""
"null","sound/msl/organ.wav","null","audio-keyboard-response","10","62137","0.0-1.0-9.0","",""
"null","sound/msl/frog.wav","null","audio-keyboard-response","11","62656","0.0-1.0-10.0","",""
"null","sound/msl/door.wav","null","audio-keyboard-response","12","63166","0.0-1.0-11.0","",""
"null","sound/msl/Water.wav","null","audio-keyboard-response","13","63687","0.0-1.0-12.0","",""
"null","sound/msl/clock.wav","null","audio-keyboard-response","14","64247","0.0-1.0-13.0","",""
"null","sound/msl/cow.wav","null","audio-keyboard-response","15","64757","0.0-1.0-14.0","",""
"null","sound/msl/duck.wav","null","audio-keyboard-response","16","65266","0.0-1.0-15.0","",""
"null","sound/msl/bird.wav","null","audio-keyboard-response","17","65786","0.0-1.0-16.0","",""
"null","sound/msl/boing.wav","null","audio-keyboard-response","18","66297","0.0-1.0-17.0","",""
"null","sound/msl/door_bell.wav","null","audio-keyboard-response","19","66817","0.0-1.0-18.0","",""
"null","sound/msl/ding.wav","null","audio-keyboard-response","20","67338","0.0-1.0-19.0","",""
"null","sound/msl/cat.wav","null","audio-keyboard-response","21","67847","0.0-1.0-20.0","",""
"null","sound/msl/organ.wav","null","audio-keyboard-response","22","68358","0.0-1.0-21.0","",""
"null","sound/msl/frog.wav","null","audio-keyboard-response","23","68867","0.0-1.0-22.0","",""
"null","sound/msl/door.wav","null","audio-keyboard-response","24","69378","0.0-1.0-23.0","",""
"null","sound/msl/goat.wav","null","audio-keyboard-response","25","69927","0.0-1.0-24.0","",""
"null","sound/msl/slide_whistle.wav","null","audio-keyboard-response","26","70436","0.0-1.0-25.0","",""
"null","sound/msl/dog.wav","null","audio-keyboard-response","27","70948","0.0-1.0-26.0","",""
"null","sound/msl/duck.wav","null","audio-keyboard-response","28","71469","0.0-1.0-27.0","",""
"null","sound/msl/bird.wav","null","audio-keyboard-response","29","71986","0.0-1.0-28.0","",""
"null","sound/msl/boing.wav","null","audio-keyboard-response","30","72499","0.0-1.0-29.0","",""
"null","sound/msl/Water.wav","null","audio-keyboard-response","31","73017","0.0-1.0-30.0","",""
"null","sound/msl/clock.wav","null","audio-keyboard-response","32","73580","0.0-1.0-31.0","",""
"null","sound/msl/cow.wav","null","audio-keyboard-response","33","74099","0.0-1.0-32.0","",""
"null","sound/msl/door_bell.wav","null","audio-keyboard-response","34","74616","0.0-1.0-33.0","",""
"null","sound/msl/ding.wav","null","audio-keyboard-response","35","75137","0.0-1.0-34.0","",""
"null","sound/msl/cat.wav","null","audio-keyboard-response","36","75648","0.0-1.0-35.0","",""
"null","sound/msl/goat.wav","null","audio-keyboard-response","37","76196","0.0-1.0-36.0","",""
"null","sound/msl/slide_whistle.wav","null","audio-keyboard-response","38","76707","0.0-1.0-37.0","",""
"null","sound/msl/dog.wav","null","audio-keyboard-response","39","77230","0.0-1.0-38.0","",""
"null","sound/msl/organ.wav","null","audio-keyboard-response","40","77740","0.0-1.0-39.0","",""
"null","sound/msl/frog.wav","null","audio-keyboard-response","41","78256","0.0-1.0-40.0","",""
"null","sound/msl/door.wav","null","audio-keyboard-response","42","78767","0.0-1.0-41.0","",""
"null","sound/msl/door_bell.wav","null","audio-keyboard-response","43","79279","0.0-1.0-42.0","",""
"null","sound/msl/ding.wav","null","audio-keyboard-response","44","79787","0.0-1.0-43.0","",""
"null","sound/msl/cat.wav","null","audio-keyboard-response","45","80299","0.0-1.0-44.0","",""
"null","sound/msl/Water.wav","null","audio-keyboard-response","46","80817","0.0-1.0-45.0","",""
"null","sound/msl/clock.wav","null","audio-keyboard-response","47","81376","0.0-1.0-46.0","",""
"null","sound/msl/cow.wav","null","audio-keyboard-response","48","81896","0.0-1.0-47.0","",""
"null","sound/msl/goat.wav","null","audio-keyboard-response","49","82449","0.0-1.0-48.0","",""
"null","sound/msl/slide_whistle.wav","null","audio-keyboard-response","50","82959","0.0-1.0-49.0","",""
"null","sound/msl/dog.wav","null","audio-keyboard-response","51","83467","0.0-1.0-50.0","",""
"null","sound/msl/duck.wav","null","audio-keyboard-response","52","83987","0.0-1.0-51.0","",""
"null","sound/msl/bird.wav","null","audio-keyboard-response","53","84506","0.0-1.0-52.0","",""
"null","sound/msl/boing.wav","null","audio-keyboard-response","54","85016","0.0-1.0-53.0","",""
"null","sound/msl/Water.wav","null","audio-keyboard-response","55","85537","0.0-1.0-54.0","",""
"null","sound/msl/clock.wav","null","audio-keyboard-response","56","86098","0.0-1.0-55.0","",""
"null","sound/msl/cow.wav","null","audio-keyboard-response","57","86618","0.0-1.0-56.0","",""
"null","sound/msl/goat.wav","null","audio-keyboard-response","58","87168","0.0-1.0-57.0","",""
"null","sound/msl/slide_whistle.wav","null","audio-keyboard-response","59","87678","0.0-1.0-58.0","",""
"null","sound/msl/dog.wav","null","audio-keyboard-response","60","88186","0.0-1.0-59.0","",""
"null","sound/msl/organ.wav","null","audio-keyboard-response","61","88696","0.0-1.0-60.0","",""
"null","sound/msl/frog.wav","null","audio-keyboard-response","62","89218","0.0-1.0-61.0","",""
"null","sound/msl/door.wav","null","audio-keyboard-response","63","89726","0.0-1.0-62.0","",""
"null","sound/msl/door_bell.wav","null","audio-keyboard-response","64","90238","0.0-1.0-63.0","",""
"null","sound/msl/ding.wav","null","audio-keyboard-response","65","90747","0.0-1.0-64.0","",""
"null","sound/msl/cat.wav","null","audio-keyboard-response","66","91259","0.0-1.0-65.0","",""
"null","sound/msl/Water.wav","null","audio-keyboard-response","67","91777","0.0-1.0-66.0","",""
"null","sound/msl/clock.wav","null","audio-keyboard-response","68","92339","0.0-1.0-67.0","",""
"null","sound/msl/cow.wav","null","audio-keyboard-response","69","92859","0.0-1.0-68.0","",""
"null","sound/msl/duck.wav","null","audio-keyboard-response","70","93377","0.0-1.0-69.0","",""
"null","sound/msl/bird.wav","null","audio-keyboard-response","71","93897","0.0-1.0-70.0","",""
"null","sound/msl/boing.wav","null","audio-keyboard-response","72","94409","0.0-1.0-71.0","",""
"null","sound/msl/goat.wav","null","audio-keyboard-response","73","94959","0.0-1.0-72.0","",""
"null","sound/msl/slide_whistle.wav","null","audio-keyboard-response","74","95469","0.0-1.0-73.0","",""
"null","sound/msl/dog.wav","null","audio-keyboard-response","75","95987","0.0-1.0-74.0","",""
"null","sound/msl/organ.wav","null","audio-keyboard-response","76","96499","0.0-1.0-75.0","",""
"null","sound/msl/frog.wav","null","audio-keyboard-response","77","97016","0.0-1.0-76.0","",""
"null","sound/msl/door.wav","null","audio-keyboard-response","78","97526","0.0-1.0-77.0","",""
"null","sound/msl/goat.wav","null","audio-keyboard-response","79","98079","0.0-1.0-78.0","",""
"null","sound/msl/slide_whistle.wav","null","audio-keyboard-response","80","98586","0.0-1.0-79.0","",""
"null","sound/msl/dog.wav","null","audio-keyboard-response","81","99109","0.0-1.0-80.0","",""
"null","sound/msl/door_bell.wav","null","audio-keyboard-response","82","99627","0.0-1.0-81.0","",""
"null","sound/msl/ding.wav","null","audio-keyboard-response","83","100149","0.0-1.0-82.0","",""
"null","sound/msl/cat.wav","null","audio-keyboard-response","84","100657","0.0-1.0-83.0","",""
"null","sound/msl/duck.wav","null","audio-keyboard-response","85","101179","0.0-1.0-84.0","",""
"null","sound/msl/bird.wav","null","audio-keyboard-response","86","101697","0.0-1.0-85.0","",""
"null","sound/msl/boing.wav","null","audio-keyboard-response","87","102207","0.0-1.0-86.0","",""
"null","sound/msl/Water.wav","null","audio-keyboard-response","88","102729","0.0-1.0-87.0","",""
"null","sound/msl/clock.wav","null","audio-keyboard-response","89","103287","0.0-1.0-88.0","",""
"null","sound/msl/cow.wav","null","audio-keyboard-response","90","103799","0.0-1.0-89.0","",""
"null","sound/msl/door_bell.wav","null","audio-keyboard-response","91","104306","0.0-1.0-90.0","",""
"null","sound/msl/ding.wav","null","audio-keyboard-response","92","104829","0.0-1.0-91.0","",""
"null","sound/msl/cat.wav","null","audio-keyboard-response","93","105337","0.0-1.0-92.0","",""
"null","sound/msl/organ.wav","null","audio-keyboard-response","94","105847","0.0-1.0-93.0","",""
"null","sound/msl/frog.wav","null","audio-keyboard-response","95","106359","0.0-1.0-94.0","",""
"null","sound/msl/door.wav","null","audio-keyboard-response","96","106868","0.0-1.0-95.0","",""
"null","sound/msl/goat.wav","null","audio-keyboard-response","97","107416","0.0-1.0-96.0","",""
"null","sound/msl/slide_whistle.wav","null","audio-keyboard-response","98","107937","0.0-1.0-97.0","",""
"null","sound/msl/dog.wav","null","audio-keyboard-response","99","108459","0.0-1.0-98.0","",""
"null","sound/msl/Water.wav","null","audio-keyboard-response","100","108977","0.0-1.0-99.0","",""
"null","sound/msl/clock.wav","null","audio-keyboard-response","101","109539","0.0-1.0-100.0","",""
"null","sound/msl/cow.wav","null","audio-keyboard-response","102","110057","0.0-1.0-101.0","",""
"null","sound/msl/door_bell.wav","null","audio-keyboard-response","103","110579","0.0-1.0-102.0","",""
"null","sound/msl/ding.wav","null","audio-keyboard-response","104","111097","0.0-1.0-103.0","",""
"null","sound/msl/cat.wav","null","audio-keyboard-response","105","111607","0.0-1.0-104.0","",""
"null","sound/msl/duck.wav","null","audio-keyboard-response","106","112116","0.0-1.0-105.0","",""
"null","sound/msl/bird.wav","null","audio-keyboard-response","107","112630","0.0-1.0-106.0","",""
"null","sound/msl/boing.wav","null","audio-keyboard-response","108","113137","0.0-1.0-107.0","",""
"null","sound/msl/Water.wav","null","audio-keyboard-response","109","113659","0.0-1.0-108.0","",""
"null","sound/msl/clock.wav","null","audio-keyboard-response","110","114217","0.0-1.0-109.0","",""
"null","sound/msl/cow.wav","null","audio-keyboard-response","111","114739","0.0-1.0-110.0","",""
"null","sound/msl/organ.wav","null","audio-keyboard-response","112","115246","0.0-1.0-111.0","",""
"null","sound/msl/frog.wav","null","audio-keyboard-response","113","115759","0.0-1.0-112.0","",""
"null","sound/msl/door.wav","null","audio-keyboard-response","114","116270","0.0-1.0-113.0","",""
"null","sound/msl/door_bell.wav","null","audio-keyboard-response","115","116786","0.0-1.0-114.0","",""
"null","sound/msl/ding.wav","null","audio-keyboard-response","116","117309","0.0-1.0-115.0","",""
"null","sound/msl/cat.wav","null","audio-keyboard-response","117","117819","0.0-1.0-116.0","",""
"null","sound/msl/goat.wav","null","audio-keyboard-response","118","118368","0.0-1.0-117.0","",""
"null","sound/msl/slide_whistle.wav","null","audio-keyboard-response","119","118879","0.0-1.0-118.0","",""
"null","sound/msl/dog.wav","null","audio-keyboard-response","120","119388","0.0-1.0-119.0","",""
"null","sound/msl/duck.wav","null","audio-keyboard-response","121","119906","0.0-1.0-120.0","",""
"null","sound/msl/bird.wav","null","audio-keyboard-response","122","120429","0.0-1.0-121.0","",""
"null","sound/msl/boing.wav","null","audio-keyboard-response","123","120939","0.0-1.0-122.0","",""
"null","sound/msl/Water.wav","null","audio-keyboard-response","124","121456","0.0-1.0-123.0","",""
"null","sound/msl/clock.wav","null","audio-keyboard-response","125","122018","0.0-1.0-124.0","",""
"null","sound/msl/cow.wav","null","audio-keyboard-response","126","122540","0.0-1.0-125.0","",""
"null","sound/msl/door_bell.wav","null","audio-keyboard-response","127","123056","0.0-1.0-126.0","",""
"null","sound/msl/ding.wav","null","audio-keyboard-response","128","123577","0.0-1.0-127.0","",""
"null","sound/msl/cat.wav","null","audio-keyboard-response","129","124086","0.0-1.0-128.0","",""
"null","sound/msl/organ.wav","null","audio-keyboard-response","130","124597","0.0-1.0-129.0","",""
"null","sound/msl/frog.wav","null","audio-keyboard-response","131","125109","0.0-1.0-130.0","",""
"null","sound/msl/door.wav","null","audio-keyboard-response","132","125616","0.0-1.0-131.0","",""
"null","sound/msl/Water.wav","null","audio-keyboard-response","133","126137","0.0-1.0-132.0","",""
"null","sound/msl/clock.wav","null","audio-keyboard-response","134","126696","0.0-1.0-133.0","",""
"null","sound/msl/cow.wav","null","audio-keyboard-response","135","127218","0.0-1.0-134.0","",""
"null","sound/msl/goat.wav","null","audio-keyboard-response","136","127766","0.0-1.0-135.0","",""
"null","sound/msl/slide_whistle.wav","null","audio-keyboard-response","137","128279","0.0-1.0-136.0","",""
"null","sound/msl/dog.wav","null","audio-keyboard-response","138","128787","0.0-1.0-137.0","",""
"null","sound/msl/organ.wav","null","audio-keyboard-response","139","129296","0.0-1.0-138.0","",""
"null","sound/msl/frog.wav","null","audio-keyboard-response","140","129817","0.0-1.0-139.0","",""
"null","sound/msl/door.wav","null","audio-keyboard-response","141","130329","0.0-1.0-140.0","",""
"null","sound/msl/duck.wav","null","audio-keyboard-response","142","130836","0.0-1.0-141.0","",""
"null","sound/msl/bird.wav","null","audio-keyboard-response","143","131349","0.0-1.0-142.0","",""
"null","sound/msl/boing.wav","null","audio-keyboard-response","144","131859","0.0-1.0-143.0","",""
"null","sound/msl/door_bell.wav","null","audio-keyboard-response","145","132379","0.0-1.0-144.0","",""
"null","sound/msl/ding.wav","null","audio-keyboard-response","146","132897","0.0-1.0-145.0","",""
"null","sound/msl/cat.wav","null","audio-keyboard-response","147","133407","0.0-1.0-146.0","",""
"null","sound/msl/goat.wav","null","audio-keyboard-response","148","133957","0.0-1.0-147.0","",""
"null","sound/msl/slide_whistle.wav","null","audio-keyboard-response","149","134466","0.0-1.0-148.0","",""
"null","sound/msl/dog.wav","null","audio-keyboard-response","150","134986","0.0-1.0-149.0","",""
"null","sound/msl/duck.wav","null","audio-keyboard-response","151","135506","0.0-1.0-150.0","",""
"null","sound/msl/bird.wav","null","audio-keyboard-response","152","136030","0.0-1.0-151.0","",""
"null","sound/msl/boing.wav","null","audio-keyboard-response","153","136536","0.0-1.0-152.0","",""
"null","sound/msl/Water.wav","null","audio-keyboard-response","154","137057","0.0-1.0-153.0","",""
"null","sound/msl/clock.wav","null","audio-keyboard-response","155","137617","0.0-1.0-154.0","",""
"null","sound/msl/cow.wav","null","audio-keyboard-response","156","138140","0.0-1.0-155.0","",""
"null","sound/msl/organ.wav","null","audio-keyboard-response","157","138646","0.0-1.0-156.0","",""
"null","sound/msl/frog.wav","null","audio-keyboard-response","158","139159","0.0-1.0-157.0","",""
"null","sound/msl/door.wav","null","audio-keyboard-response","159","139668","0.0-1.0-158.0","",""
"null","sound/msl/door_bell.wav","null","audio-keyboard-response","160","140187","0.0-1.0-159.0","",""
"null","sound/msl/ding.wav","null","audio-keyboard-response","161","140709","0.0-1.0-160.0","",""
"null","sound/msl/cat.wav","null","audio-keyboard-response","162","141219","0.0-1.0-161.0","",""
"null","sound/msl/Water.wav","null","audio-keyboard-response","163","141739","0.0-1.0-162.0","",""
"null","sound/msl/clock.wav","null","audio-keyboard-response","164","142299","0.0-1.0-163.0","",""
"null","sound/msl/cow.wav","null","audio-keyboard-response","165","142817","0.0-1.0-164.0","",""
"null","sound/msl/organ.wav","null","audio-keyboard-response","166","143327","0.0-1.0-165.0","",""
"null","sound/msl/frog.wav","null","audio-keyboard-response","167","143836","0.0-1.0-166.0","",""
"null","sound/msl/door.wav","null","audio-keyboard-response","168","144349","0.0-1.0-167.0","",""
"null","sound/msl/duck.wav","null","audio-keyboard-response","169","144867","0.0-1.0-168.0","",""
"null","sound/msl/bird.wav","null","audio-keyboard-response","170","145389","0.0-1.0-169.0","",""
"null","sound/msl/boing.wav","null","audio-keyboard-response","171","145899","0.0-1.0-170.0","",""
"null","sound/msl/goat.wav","null","audio-keyboard-response","172","146446","0.0-1.0-171.0","",""
"null","sound/msl/slide_whistle.wav","null","audio-keyboard-response","173","146956","0.0-1.0-172.0","",""
"null","sound/msl/dog.wav","null","audio-keyboard-response","174","147469","0.0-1.0-173.0","",""
"null","sound/msl/door_bell.wav","null","audio-keyboard-response","175","147989","0.0-1.0-174.0","",""
"null","sound/msl/ding.wav","null","audio-keyboard-response","176","148507","0.0-1.0-175.0","",""
"null","sound/msl/cat.wav","null","audio-keyboard-response","177","149017","0.0-1.0-176.0","",""
"null","sound/msl/Water.wav","null","audio-keyboard-response","178","149539","0.0-1.0-177.0","",""
"null","sound/msl/clock.wav","null","audio-keyboard-response","179","150099","0.0-1.0-178.0","",""
"null","sound/msl/cow.wav","null","audio-keyboard-response","180","150617","0.0-1.0-179.0","",""
"null","sound/msl/goat.wav","null","audio-keyboard-response","181","151169","0.0-1.0-180.0","",""
"null","sound/msl/slide_whistle.wav","null","audio-keyboard-response","182","151678","0.0-1.0-181.0","",""
"null","sound/msl/dog.wav","null","audio-keyboard-response","183","152186","0.0-1.0-182.0","",""
"null","sound/msl/organ.wav","null","audio-keyboard-response","184","152697","0.0-1.0-183.0","",""
"null","sound/msl/frog.wav","null","audio-keyboard-response","185","153219","0.0-1.0-184.0","",""
"null","sound/msl/door.wav","null","audio-keyboard-response","186","153729","0.0-1.0-185.0","",""
"null","sound/msl/duck.wav","null","audio-keyboard-response","187","154239","0.0-1.0-186.0","",""
"null","sound/msl/bird.wav","null","audio-keyboard-response","188","154747","0.0-1.0-187.0","",""
"null","sound/msl/boing.wav","null","audio-keyboard-response","189","155257","0.0-1.0-188.0","",""
"null","sound/msl/door_bell.wav","null","audio-keyboard-response","190","155777","0.0-1.0-189.0","",""
"null","sound/msl/ding.wav","null","audio-keyboard-response","191","156299","0.0-1.0-190.0","",""
"null","sound/msl/cat.wav","null","audio-keyboard-response","192","156806","0.0-1.0-191.0","",""
"null","sound/msl/Water.wav","null","audio-keyboard-response","193","157329","0.0-1.0-192.0","",""
"null","sound/msl/clock.wav","null","audio-keyboard-response","194","157887","0.0-1.0-193.0","",""
"null","sound/msl/cow.wav","null","audio-keyboard-response","195","158396","0.0-1.0-194.0","",""
"null","sound/msl/goat.wav","null","audio-keyboard-response","196","158949","0.0-1.0-195.0","",""
"null","sound/msl/slide_whistle.wav","null","audio-keyboard-response","197","159466","0.0-1.0-196.0","",""
"null","sound/msl/dog.wav","null","audio-keyboard-response","198","159989","0.0-1.0-197.0","",""
"null","sound/msl/duck.wav","null","audio-keyboard-response","199","160507","0.0-1.0-198.0","",""
"null","sound/msl/bird.wav","null","audio-keyboard-response","200","161028","0.0-1.0-199.0","",""
"null","sound/msl/boing.wav","null","audio-keyboard-response","201","161536","0.0-1.0-200.0","",""
"null","sound/msl/organ.wav","null","audio-keyboard-response","202","162050","0.0-1.0-201.0","",""
"null","sound/msl/frog.wav","null","audio-keyboard-response","203","162557","0.0-1.0-202.0","",""
"null","sound/msl/door.wav","null","audio-keyboard-response","204","163069","0.0-1.0-203.0","",""
"null","sound/msl/door_bell.wav","null","audio-keyboard-response","205","163587","0.0-1.0-204.0","",""
"null","sound/msl/ding.wav","null","audio-keyboard-response","206","164110","0.0-1.0-205.0","",""
"null","sound/msl/cat.wav","null","audio-keyboard-response","207","164617","0.0-1.0-206.0","",""
"null","sound/msl/Water.wav","null","audio-keyboard-response","208","165139","0.0-1.0-207.0","",""
"null","sound/msl/clock.wav","null","audio-keyboard-response","209","165697","0.0-1.0-208.0","",""
"null","sound/msl/cow.wav","null","audio-keyboard-response","210","166217","0.0-1.0-209.0","",""
"null","sound/msl/duck.wav","null","audio-keyboard-response","211","166736","0.0-1.0-210.0","",""
"null","sound/msl/bird.wav","null","audio-keyboard-response","212","167259","0.0-1.0-211.0","",""
"null","sound/msl/boing.wav","null","audio-keyboard-response","213","167767","0.0-1.0-212.0","",""
"null","sound/msl/door_bell.wav","null","audio-keyboard-response","214","168276","0.0-1.0-213.0","",""
"null","sound/msl/ding.wav","null","audio-keyboard-response","215","168786","0.0-1.0-214.0","",""
"null","sound/msl/cat.wav","null","audio-keyboard-response","216","169298","0.0-1.0-215.0","",""
"null","sound/msl/goat.wav","null","audio-keyboard-response","217","169849","0.0-1.0-216.0","",""
"null","sound/msl/slide_whistle.wav","null","audio-keyboard-response","218","170359","0.0-1.0-217.0","",""
"null","sound/msl/dog.wav","null","audio-keyboard-response","219","170868","0.0-1.0-218.0","",""
"null","sound/msl/organ.wav","null","audio-keyboard-response","220","171379","0.0-1.0-219.0","",""
"null","sound/msl/frog.wav","null","audio-keyboard-response","221","171899","0.0-1.0-220.0","",""
"null","sound/msl/door.wav","null","audio-keyboard-response","222","172409","0.0-1.0-221.0","",""
"null","sound/msl/Water.wav","null","audio-keyboard-response","223","172927","0.0-1.0-222.0","",""
"null","sound/msl/clock.wav","null","audio-keyboard-response","224","173488","0.0-1.0-223.0","",""
"null","sound/msl/cow.wav","null","audio-keyboard-response","225","173998","0.0-1.0-224.0","",""
"null","sound/msl/goat.wav","null","audio-keyboard-response","226","174548","0.0-1.0-225.0","",""
"null","sound/msl/slide_whistle.wav","null","audio-keyboard-response","227","175067","0.0-1.0-226.0","",""
"null","sound/msl/dog.wav","null","audio-keyboard-response","228","175587","0.0-1.0-227.0","",""
"null","sound/msl/door_bell.wav","null","audio-keyboard-response","229","176106","0.0-1.0-228.0","",""
"null","sound/msl/ding.wav","null","audio-keyboard-response","230","176626","0.0-1.0-229.0","",""
"null","sound/msl/cat.wav","null","audio-keyboard-response","231","177140","0.0-1.0-230.0","",""
"null","sound/msl/goat.wav","null","audio-keyboard-response","232","177686","0.0-1.0-231.0","",""
"null","sound/msl/slide_whistle.wav","null","audio-keyboard-response","233","178197","0.0-1.0-232.0","",""
"null","sound/msl/dog.wav","null","audio-keyboard-response","234","178709","0.0-1.0-233.0","",""
"null","sound/msl/Water.wav","null","audio-keyboard-response","235","179227","0.0-1.0-234.0","",""
"null","sound/msl/clock.wav","null","audio-keyboard-response","236","179787","0.0-1.0-235.0","",""
"null","sound/msl/cow.wav","null","audio-keyboard-response","237","180307","0.0-1.0-236.0","",""
"null","sound/msl/organ.wav","null","audio-keyboard-response","238","180818","0.0-1.0-237.0","",""
"null","sound/msl/frog.wav","null","audio-keyboard-response","239","181336","0.0-1.0-238.0","",""
"null","sound/msl/door.wav","null","audio-keyboard-response","240","181849","0.0-1.0-239.0","",""
"null","sound/msl/duck.wav","null","audio-keyboard-response","241","182359","0.0-1.0-240.0","",""
"null","sound/msl/bird.wav","null","audio-keyboard-response","242","182868","0.0-1.0-241.0","",""
"null","sound/msl/boing.wav","null","audio-keyboard-response","243","183378","0.0-1.0-242.0","",""
"null","sound/msl/door_bell.wav","null","audio-keyboard-response","244","183897","0.0-1.0-243.0","",""
"null","sound/msl/ding.wav","null","audio-keyboard-response","245","184416","0.0-1.0-244.0","",""
"null","sound/msl/cat.wav","null","audio-keyboard-response","246","184929","0.0-1.0-245.0","",""
"null","sound/msl/Water.wav","null","audio-keyboard-response","247","185447","0.0-1.0-246.0","",""
"null","sound/msl/clock.wav","null","audio-keyboard-response","248","186009","0.0-1.0-247.0","",""
"null","sound/msl/cow.wav","null","audio-keyboard-response","249","186519","0.0-1.0-248.0","",""
"null","sound/msl/organ.wav","null","audio-keyboard-response","250","187026","0.0-1.0-249.0","",""
"null","sound/msl/frog.wav","null","audio-keyboard-response","251","187546","0.0-1.0-250.0","",""
"null","sound/msl/door.wav","null","audio-keyboard-response","252","188056","0.0-1.0-251.0","",""
"null","sound/msl/duck.wav","null","audio-keyboard-response","253","188577","0.0-1.0-252.0","",""
"null","sound/msl/bird.wav","null","audio-keyboard-response","254","189096","0.0-1.0-253.0","",""
"null","sound/msl/boing.wav","null","audio-keyboard-response","255","189606","0.0-1.0-254.0","",""
"null","sound/msl/goat.wav","null","audio-keyboard-response","256","190157","0.0-1.0-255.0","",""
"null","sound/msl/slide_whistle.wav","null","audio-keyboard-response","257","190666","0.0-1.0-256.0","",""
"null","sound/msl/dog.wav","null","audio-keyboard-response","258","191189","0.0-1.0-257.0","",""
"null","sound/msl/door_bell.wav","null","audio-keyboard-response","259","191709","0.0-1.0-258.0","",""
"null","sound/msl/ding.wav","null","audio-keyboard-response","260","192226","0.0-1.0-259.0","",""
"null","sound/msl/cat.wav","null","audio-keyboard-response","261","192737","0.0-1.0-260.0","",""
"null","sound/msl/duck.wav","null","audio-keyboard-response","262","193257","0.0-1.0-261.0","",""
"null","sound/msl/bird.wav","null","audio-keyboard-response","263","193780","0.0-1.0-262.0","",""
"null","sound/msl/boing.wav","null","audio-keyboard-response","264","194286","0.0-1.0-263.0","",""
"null","sound/msl/organ.wav","null","audio-keyboard-response","265","194797","0.0-1.0-264.0","",""
"null","sound/msl/frog.wav","null","audio-keyboard-response","266","195309","0.0-1.0-265.0","",""
"null","sound/msl/door.wav","null","audio-keyboard-response","267","195816","0.0-1.0-266.0","",""
"null","sound/msl/goat.wav","null","audio-keyboard-response","268","196368","0.0-1.0-267.0","",""
"null","sound/msl/slide_whistle.wav","null","audio-keyboard-response","269","196878","0.0-1.0-268.0","",""
"null","sound/msl/dog.wav","null","audio-keyboard-response","270","197387","0.0-1.0-269.0","",""
"null","sound/msl/Water.wav","null","audio-keyboard-response","271","197909","0.0-1.0-270.0","",""
"null","sound/msl/clock.wav","null","audio-keyboard-response","272","198469","0.0-1.0-271.0","",""
"null","sound/msl/cow.wav","null","audio-keyboard-response","273","198987","0.0-1.0-272.0","",""
"null","sound/msl/door_bell.wav","null","audio-keyboard-response","274","199510","0.0-1.0-273.0","",""
"null","sound/msl/ding.wav","null","audio-keyboard-response","275","200027","0.0-1.0-274.0","",""
"null","sound/msl/cat.wav","null","audio-keyboard-response","276","200539","0.0-1.0-275.0","",""
"null","sound/msl/duck.wav","null","audio-keyboard-response","277","201059","0.0-1.0-276.0","",""
"null","sound/msl/bird.wav","null","audio-keyboard-response","278","201580","0.0-1.0-277.0","",""
"null","sound/msl/boing.wav","null","audio-keyboard-response","279","202090","0.0-1.0-278.0","",""
"null","sound/msl/organ.wav","null","audio-keyboard-response","280","202599","0.0-1.0-279.0","",""
"null","sound/msl/frog.wav","null","audio-keyboard-response","281","203109","0.0-1.0-280.0","",""
"null","sound/msl/door.wav","null","audio-keyboard-response","282","203618","0.0-1.0-281.0","",""
"null","sound/msl/Water.wav","null","audio-keyboard-response","283","204139","0.0-1.0-282.0","",""
"null","sound/msl/clock.wav","null","audio-keyboard-response","284","204698","0.0-1.0-283.0","",""
"null","sound/msl/cow.wav","null","audio-keyboard-response","285","205216","0.0-1.0-284.0","",""
"null","sound/msl/goat.wav","null","audio-keyboard-response","286","205769","0.0-1.0-285.0","",""
"null","sound/msl/slide_whistle.wav","null","audio-keyboard-response","287","206279","0.0-1.0-286.0","",""
"null","sound/msl/dog.wav","null","audio-keyboard-response","288","206789","0.0-1.0-287.0","",""
"null","sound/msl/door_bell.wav","null","audio-keyboard-response","289","207307","0.0-1.0-288.0","",""
"null","sound/msl/ding.wav","null","audio-keyboard-response","290","207828","0.0-1.0-289.0","",""
"null","sound/msl/cat.wav","null","audio-keyboard-response","291","208339","0.0-1.0-290.0","",""
"null","sound/msl/organ.wav","null","audio-keyboard-response","292","208849","0.0-1.0-291.0","",""
"null","sound/msl/frog.wav","null","audio-keyboard-response","293","209359","0.0-1.0-292.0","",""
"null","sound/msl/door.wav","null","audio-keyboard-response","294","209867","0.0-1.0-293.0","",""
"null","sound/msl/duck.wav","null","audio-keyboard-response","295","210390","0.0-1.0-294.0","",""
"null","sound/msl/bird.wav","null","audio-keyboard-response","296","210909","0.0-1.0-295.0","",""
"null","sound/msl/boing.wav","null","audio-keyboard-response","297","211419","0.0-1.0-296.0","",""
"null","sound/msl/door_bell.wav","null","audio-keyboard-response","298","211939","0.0-1.0-297.0","",""
"null","sound/msl/ding.wav","null","audio-keyboard-response","299","212457","0.0-1.0-298.0","",""
"null","sound/msl/cat.wav","null","audio-keyboard-response","300","212969","0.0-1.0-299.0","",""
"null","sound/msl/Water.wav","null","audio-keyboard-response","301","213488","0.0-1.0-300.0","",""
"null","sound/msl/clock.wav","null","audio-keyboard-response","302","214047","0.0-1.0-301.0","",""
"null","sound/msl/cow.wav","null","audio-keyboard-response","303","214557","0.0-1.0-302.0","",""
"null","sound/msl/organ.wav","null","audio-keyboard-response","304","215067","0.0-1.0-303.0","",""
"null","sound/msl/frog.wav","null","audio-keyboard-response","305","215587","0.0-1.0-304.0","",""
"null","sound/msl/door.wav","null","audio-keyboard-response","306","216096","0.0-1.0-305.0","",""
"null","sound/msl/goat.wav","null","audio-keyboard-response","307","216646","0.0-1.0-306.0","",""
"null","sound/msl/slide_whistle.wav","null","audio-keyboard-response","308","217159","0.0-1.0-307.0","",""
"null","sound/msl/dog.wav","null","audio-keyboard-response","309","217667","0.0-1.0-308.0","",""
"null","sound/msl/duck.wav","null","audio-keyboard-response","310","218186","0.0-1.0-309.0","",""
"null","sound/msl/bird.wav","null","audio-keyboard-response","311","218709","0.0-1.0-310.0","",""
"null","sound/msl/boing.wav","null","audio-keyboard-response","312","219216","0.0-1.0-311.0","",""
"null","sound/msl/door_bell.wav","null","audio-keyboard-response","313","219739","0.0-1.0-312.0","",""
"null","sound/msl/ding.wav","null","audio-keyboard-response","314","220257","0.0-1.0-313.0","",""
"null","sound/msl/cat.wav","null","audio-keyboard-response","315","220769","0.0-1.0-314.0","",""
"null","sound/msl/Water.wav","null","audio-keyboard-response","316","221289","0.0-1.0-315.0","",""
"null","sound/msl/clock.wav","null","audio-keyboard-response","317","221846","0.0-1.0-316.0","",""
"null","sound/msl/cow.wav","null","audio-keyboard-response","318","222357","0.0-1.0-317.0","",""
"null","sound/msl/organ.wav","null","audio-keyboard-response","319","222867","0.0-1.0-318.0","",""
"null","sound/msl/frog.wav","null","audio-keyboard-response","320","223387","0.0-1.0-319.0","",""
"null","sound/msl/door.wav","null","audio-keyboard-response","321","223899","0.0-1.0-320.0","",""
"null","sound/msl/duck.wav","null","audio-keyboard-response","322","224419","0.0-1.0-321.0","",""
"null","sound/msl/bird.wav","null","audio-keyboard-response","323","224939","0.0-1.0-322.0","",""
"null","sound/msl/boing.wav","null","audio-keyboard-response","324","225447","0.0-1.0-323.0","",""
"null","sound/msl/Water.wav","null","audio-keyboard-response","325","225966","0.0-1.0-324.0","",""
"null","sound/msl/clock.wav","null","audio-keyboard-response","326","226529","0.0-1.0-325.0","",""
"null","sound/msl/cow.wav","null","audio-keyboard-response","327","227037","0.0-1.0-326.0","",""
"null","sound/msl/goat.wav","null","audio-keyboard-response","328","227586","0.0-1.0-327.0","",""
"null","sound/msl/slide_whistle.wav","null","audio-keyboard-response","329","228107","0.0-1.0-328.0","",""
"null","sound/msl/dog.wav","null","audio-keyboard-response","330","228627","0.0-1.0-329.0","",""
"null","sound/msl/door_bell.wav","null","audio-keyboard-response","331","229149","0.0-1.0-330.0","",""
"null","sound/msl/ding.wav","null","audio-keyboard-response","332","229667","0.0-1.0-331.0","",""
"null","sound/msl/cat.wav","null","audio-keyboard-response","333","230180","0.0-1.0-332.0","",""
"null","sound/msl/organ.wav","null","audio-keyboard-response","334","230686","0.0-1.0-333.0","",""
"null","sound/msl/frog.wav","null","audio-keyboard-response","335","231196","0.0-1.0-334.0","",""
"null","sound/msl/door.wav","null","audio-keyboard-response","336","231706","0.0-1.0-335.0","",""
"null","sound/msl/goat.wav","null","audio-keyboard-response","337","232257","0.0-1.0-336.0","",""
"null","sound/msl/slide_whistle.wav","null","audio-keyboard-response","338","232777","0.0-1.0-337.0","",""
"null","sound/msl/dog.wav","null","audio-keyboard-response","339","233296","0.0-1.0-338.0","",""
"null","sound/msl/duck.wav","null","audio-keyboard-response","340","233816","0.0-1.0-339.0","",""
"null","sound/msl/bird.wav","null","audio-keyboard-response","341","234339","0.0-1.0-340.0","",""
"null","sound/msl/boing.wav","null","audio-keyboard-response","342","234849","0.0-1.0-341.0","",""
"null","sound/msl/organ.wav","null","audio-keyboard-response","343","235359","0.0-1.0-342.0","",""
"null","sound/msl/frog.wav","null","audio-keyboard-response","344","235867","0.0-1.0-343.0","",""
"null","sound/msl/door.wav","null","audio-keyboard-response","345","236379","0.0-1.0-344.0","",""
"null","sound/msl/duck.wav","null","audio-keyboard-response","346","236896","0.0-1.0-345.0","",""
"null","sound/msl/bird.wav","null","audio-keyboard-response","347","237419","0.0-1.0-346.0","",""
"null","sound/msl/boing.wav","null","audio-keyboard-response","348","237926","0.0-1.0-347.0","",""
"null","sound/msl/goat.wav","null","audio-keyboard-response","349","238479","0.0-1.0-348.0","",""
"null","sound/msl/slide_whistle.wav","null","audio-keyboard-response","350","238987","0.0-1.0-349.0","",""
"null","sound/msl/dog.wav","null","audio-keyboard-response","351","239507","0.0-1.0-350.0","",""
"null","sound/msl/door_bell.wav","null","audio-keyboard-response","352","240029","0.0-1.0-351.0","",""
"null","sound/msl/ding.wav","null","audio-keyboard-response","353","240548","0.0-1.0-352.0","",""
"null","sound/msl/cat.wav","null","audio-keyboard-response","354","241059","0.0-1.0-353.0","",""
"null","sound/msl/organ.wav","null","audio-keyboard-response","355","241567","0.0-1.0-354.0","",""
"null","sound/msl/frog.wav","null","audio-keyboard-response","356","242079","0.0-1.0-355.0","",""
"null","sound/msl/door.wav","null","audio-keyboard-response","357","242587","0.0-1.0-356.0","",""
"null","sound/msl/duck.wav","null","audio-keyboard-response","358","243106","0.0-1.0-357.0","",""
"null","sound/msl/bird.wav","null","audio-keyboard-response","359","243629","0.0-1.0-358.0","",""
"null","sound/msl/boing.wav","null","audio-keyboard-response","360","244137","0.0-1.0-359.0","",""
"3651","Instructions2-eng.png","49","image-keyboard-response","361","247791","0.0-2.0","",""
"null","sound/msl/organ.wav","null","audio-keyboard-response","362","248296","0.0-3.0-0.0","",""
"null","sound/msl/ding.wav","null","audio-keyboard-response","363","248817","0.0-3.0-1.0","",""
"null","sound/msl/boing.wav","null","audio-keyboard-response","364","249327","0.0-3.0-2.0","",""
"null","sound/asl/silence.wav","null","audio-keyboard-response","365","249838","0.0-3.0-3.0","",""
"null","sound/msl/Water.wav","null","audio-keyboard-response","366","250359","0.0-3.0-4.0","",""
"null","sound/msl/clock.wav","null","audio-keyboard-response","367","250917","0.0-3.0-5.0","",""
"null","sound/msl/cow.wav","null","audio-keyboard-response","368","251429","0.0-3.0-6.0","",""
"859","sound/asl/silence.wav","50","audio-keyboard-response","369","252293","0.0-3.0-7.0","true",""
"null","sound/msl/door_bell.wav","null","audio-keyboard-response","370","252799","0.0-4.0-0.0","",""
"null","sound/msl/ding.wav","null","audio-keyboard-response","371","253307","0.0-4.0-1.0","",""
"null","sound/msl/cat.wav","null","audio-keyboard-response","372","253817","0.0-4.0-2.0","",""
"null","sound/asl/silence.wav","null","audio-keyboard-response","373","254319","0.0-4.0-3.0","",""
"null","sound/msl/organ.wav","null","audio-keyboard-response","374","254827","0.0-4.0-4.0","",""
"null","sound/msl/ding.wav","null","audio-keyboard-response","375","255347","0.0-4.0-5.0","",""
"null","sound/msl/boing.wav","null","audio-keyboard-response","376","255857","0.0-4.0-6.0","",""
"301","sound/asl/silence.wav","49","audio-keyboard-response","377","256157","0.0-4.0-7.0","true",""
"null","sound/msl/duck.wav","null","audio-keyboard-response","378","256669","0.0-5.0-0.0","",""
"null","sound/msl/bird.wav","null","audio-keyboard-response","379","257187","0.0-5.0-1.0","",""
"null","sound/msl/boing.wav","null","audio-keyboard-response","380","257699","0.0-5.0-2.0","",""
"null","sound/asl/silence.wav","null","audio-keyboard-response","381","258212","0.0-5.0-3.0","",""
"null","sound/msl/organ.wav","null","audio-keyboard-response","382","258717","0.0-5.0-4.0","",""
"null","sound/msl/ding.wav","null","audio-keyboard-response","383","259227","0.0-5.0-5.0","",""
"null","sound/msl/boing.wav","null","audio-keyboard-response","384","259737","0.0-5.0-6.0","",""
"269","sound/asl/silence.wav","49","audio-keyboard-response","385","260010","0.0-5.0-7.0","true",""
"null","sound/msl/Water.wav","null","audio-keyboard-response","386","260530","0.0-6.0-0.0","",""
"null","sound/msl/slide_whistle.wav","null","audio-keyboard-response","387","261039","0.0-6.0-1.0","",""
"null","sound/msl/door.wav","null","audio-keyboard-response","388","261552","0.0-6.0-2.0","",""
"null","sound/asl/silence.wav","null","audio-keyboard-response","389","262058","0.0-6.0-3.0","",""
"null","sound/msl/organ.wav","null","audio-keyboard-response","390","262569","0.0-6.0-4.0","",""
"null","sound/msl/frog.wav","null","audio-keyboard-response","391","263079","0.0-6.0-5.0","",""
"null","sound/msl/door.wav","null","audio-keyboard-response","392","263589","0.0-6.0-6.0","",""
"320","sound/asl/silence.wav","50","audio-keyboard-response","393","263908","0.0-6.0-7.0","true",""
"null","sound/msl/duck.wav","null","audio-keyboard-response","394","264427","0.0-7.0-0.0","",""
"null","sound/msl/bird.wav","null","audio-keyboard-response","395","264947","0.0-7.0-1.0","",""
"null","sound/msl/boing.wav","null","audio-keyboard-response","396","265459","0.0-7.0-2.0","",""
"null","sound/asl/silence.wav","null","audio-keyboard-response","397","265969","0.0-7.0-3.0","",""
"null","sound/msl/door_bell.wav","null","audio-keyboard-response","398","266481","0.0-7.0-4.0","",""
"null","sound/msl/bird.wav","null","audio-keyboard-response","399","266989","0.0-7.0-5.0","",""
"null","sound/msl/cow.wav","null","audio-keyboard-response","400","267507","0.0-7.0-6.0","",""
"211","sound/asl/silence.wav","49","audio-keyboard-response","401","267720","0.0-7.0-7.0","true",""
"null","sound/msl/organ.wav","null","audio-keyboard-response","402","268226","0.0-8.0-0.0","",""
"null","sound/msl/frog.wav","null","audio-keyboard-response","403","268746","0.0-8.0-1.0","",""
"null","sound/msl/door.wav","null","audio-keyboard-response","404","269259","0.0-8.0-2.0","",""
"null","sound/asl/silence.wav","null","audio-keyboard-response","405","269769","0.0-8.0-3.0","",""
"null","sound/msl/organ.wav","null","audio-keyboard-response","406","270277","0.0-8.0-4.0","",""
"null","sound/msl/ding.wav","null","audio-keyboard-response","407","270787","0.0-8.0-5.0","",""
"null","sound/msl/boing.wav","null","audio-keyboard-response","408","271299","0.0-8.0-6.0","",""
"901","sound/asl/silence.wav","50","audio-keyboard-response","409","272209","0.0-8.0-7.0","false",""
"null","sound/msl/Water.wav","null","audio-keyboard-response","410","272729","0.0-9.0-0.0","",""
"null","sound/msl/clock.wav","null","audio-keyboard-response","411","273289","0.0-9.0-1.0","",""
"null","sound/msl/cow.wav","null","audio-keyboard-response","412","273799","0.0-9.0-2.0","",""
"null","sound/asl/silence.wav","null","audio-keyboard-response","413","274306","0.0-9.0-3.0","",""
"null","sound/msl/goat.wav","null","audio-keyboard-response","414","274857","0.0-9.0-4.0","",""
"null","sound/msl/frog.wav","null","audio-keyboard-response","415","275379","0.0-9.0-5.0","",""
"null","sound/msl/cat.wav","null","audio-keyboard-response","416","275886","0.0-9.0-6.0","",""
"192","sound/asl/silence.wav","49","audio-keyboard-response","417","276084","0.0-9.0-7.0","true",""
"null","sound/msl/Water.wav","null","audio-keyboard-response","418","276596","0.0-10.0-0.0","",""
"null","sound/msl/slide_whistle.wav","null","audio-keyboard-response","419","277107","0.0-10.0-1.0","",""
"null","sound/msl/door.wav","null","audio-keyboard-response","420","277616","0.0-10.0-2.0","",""
"null","sound/asl/silence.wav","null","audio-keyboard-response","421","278118","0.0-10.0-3.0","",""
"null","sound/msl/duck.wav","null","audio-keyboard-response","422","278628","0.0-10.0-4.0","",""
"null","sound/msl/bird.wav","null","audio-keyboard-response","423","279149","0.0-10.0-5.0","",""
"null","sound/msl/boing.wav","null","audio-keyboard-response","424","279657","0.0-10.0-6.0","",""
"229","sound/asl/silence.wav","50","audio-keyboard-response","425","279893","0.0-10.0-7.0","true",""
"null","sound/msl/organ.wav","null","audio-keyboard-response","426","280399","0.0-11.0-0.0","",""
"null","sound/msl/frog.wav","null","audio-keyboard-response","427","280907","0.0-11.0-1.0","",""
"null","sound/msl/door.wav","null","audio-keyboard-response","428","281418","0.0-11.0-2.0","",""
"null","sound/asl/silence.wav","null","audio-keyboard-response","429","281928","0.0-11.0-3.0","",""
"null","sound/msl/door_bell.wav","null","audio-keyboard-response","430","282439","0.0-11.0-4.0","",""
"null","sound/msl/bird.wav","null","audio-keyboard-response","431","282946","0.0-11.0-5.0","",""
"null","sound/msl/cow.wav","null","audio-keyboard-response","432","283470","0.0-11.0-6.0","",""
"419","sound/asl/silence.wav","49","audio-keyboard-response","433","283887","0.0-11.0-7.0","true",""
"null","sound/msl/goat.wav","null","audio-keyboard-response","434","284437","0.0-12.0-0.0","",""
"null","sound/msl/frog.wav","null","audio-keyboard-response","435","284950","0.0-12.0-1.0","",""
"null","sound/msl/cat.wav","null","audio-keyboard-response","436","285457","0.0-12.0-2.0","",""
"null","sound/asl/silence.wav","null","audio-keyboard-response","437","285960","0.0-12.0-3.0","",""
"null","sound/msl/goat.wav","null","audio-keyboard-response","438","286509","0.0-12.0-4.0","",""
"null","sound/msl/slide_whistle.wav","null","audio-keyboard-response","439","287030","0.0-12.0-5.0","",""
"null","sound/msl/dog.wav","null","audio-keyboard-response","440","287549","0.0-12.0-6.0","",""
"319","sound/asl/silence.wav","49","audio-keyboard-response","441","287878","0.0-12.0-7.0","false",""
"null","sound/msl/organ.wav","null","audio-keyboard-response","442","288389","0.0-13.0-0.0","",""
"null","sound/msl/ding.wav","null","audio-keyboard-response","443","288909","0.0-13.0-1.0","",""
"null","sound/msl/boing.wav","null","audio-keyboard-response","444","289418","0.0-13.0-2.0","",""
"null","sound/asl/silence.wav","null","audio-keyboard-response","445","289931","0.0-13.0-3.0","",""
"null","sound/msl/goat.wav","null","audio-keyboard-response","446","290479","0.0-13.0-4.0","",""
"null","sound/msl/slide_whistle.wav","null","audio-keyboard-response","447","290987","0.0-13.0-5.0","",""
"null","sound/msl/dog.wav","null","audio-keyboard-response","448","291507","0.0-13.0-6.0","",""
"320","sound/asl/silence.wav","49","audio-keyboard-response","449","291832","0.0-13.0-7.0","false",""
"null","sound/msl/goat.wav","null","audio-keyboard-response","450","292376","0.0-14.0-0.0","",""
"null","sound/msl/slide_whistle.wav","null","audio-keyboard-response","451","292898","0.0-14.0-1.0","",""
"null","sound/msl/dog.wav","null","audio-keyboard-response","452","293420","0.0-14.0-2.0","",""
"null","sound/asl/silence.wav","null","audio-keyboard-response","453","293936","0.0-14.0-3.0","",""
"null","sound/msl/door_bell.wav","null","audio-keyboard-response","454","294436","0.0-14.0-4.0","",""
"null","sound/msl/bird.wav","null","audio-keyboard-response","455","294946","0.0-14.0-5.0","",""
"null","sound/msl/cow.wav","null","audio-keyboard-response","456","295469","0.0-14.0-6.0","",""
"210","sound/asl/silence.wav","50","audio-keyboard-response","457","295680","0.0-14.0-7.0","false",""
"null","sound/msl/Water.wav","null","audio-keyboard-response","458","296197","0.0-15.0-0.0","",""
"null","sound/msl/slide_whistle.wav","null","audio-keyboard-response","459","296709","0.0-15.0-1.0","",""
"null","sound/msl/door.wav","null","audio-keyboard-response","460","297217","0.0-15.0-2.0","",""
"null","sound/asl/silence.wav","null","audio-keyboard-response","461","297717","0.0-15.0-3.0","",""
"null","sound/msl/goat.wav","null","audio-keyboard-response","462","298267","0.0-15.0-4.0","",""
"null","sound/msl/slide_whistle.wav","null","audio-keyboard-response","463","298789","0.0-15.0-5.0","",""
"null","sound/msl/dog.wav","null","audio-keyboard-response","464","299307","0.0-15.0-6.0","",""
"771","sound/asl/silence.wav","49","audio-keyboard-response","465","300088","0.0-15.0-7.0","false",""
"null","sound/msl/duck.wav","null","audio-keyboard-response","466","300596","0.0-16.0-0.0","",""
"null","sound/msl/clock.wav","null","audio-keyboard-response","467","301159","0.0-16.0-1.0","",""
"null","sound/msl/dog.wav","null","audio-keyboard-response","468","301670","0.0-16.0-2.0","",""
"null","sound/asl/silence.wav","null","audio-keyboard-response","469","302174","0.0-16.0-3.0","",""
"null","sound/msl/organ.wav","null","audio-keyboard-response","470","302676","0.0-16.0-4.0","",""
"null","sound/msl/frog.wav","null","audio-keyboard-response","471","303187","0.0-16.0-5.0","",""
"null","sound/msl/door.wav","null","audio-keyboard-response","472","303700","0.0-16.0-6.0","",""
"239","sound/asl/silence.wav","50","audio-keyboard-response","473","303942","0.0-16.0-7.0","true",""
"null","sound/msl/goat.wav","null","audio-keyboard-response","474","304489","0.0-17.0-0.0","",""
"null","sound/msl/frog.wav","null","audio-keyboard-response","475","304999","0.0-17.0-1.0","",""
"null","sound/msl/cat.wav","null","audio-keyboard-response","476","305507","0.0-17.0-2.0","",""
"null","sound/asl/silence.wav","null","audio-keyboard-response","477","306018","0.0-17.0-3.0","",""
"null","sound/msl/door_bell.wav","null","audio-keyboard-response","478","306536","0.0-17.0-4.0","",""
"null","sound/msl/ding.wav","null","audio-keyboard-response","479","307057","0.0-17.0-5.0","",""
"null","sound/msl/cat.wav","null","audio-keyboard-response","480","307567","0.0-17.0-6.0","",""
"872","sound/asl/silence.wav","50","audio-keyboard-response","481","308439","0.0-17.0-7.0","true",""
"null","sound/msl/door_bell.wav","null","audio-keyboard-response","482","308949","0.0-18.0-0.0","",""
"null","sound/msl/bird.wav","null","audio-keyboard-response","483","309469","0.0-18.0-1.0","",""
"null","sound/msl/cow.wav","null","audio-keyboard-response","484","309987","0.0-18.0-2.0","",""
"null","sound/asl/silence.wav","null","audio-keyboard-response","485","310496","0.0-18.0-3.0","",""
"null","sound/msl/Water.wav","null","audio-keyboard-response","486","311019","0.0-18.0-4.0","",""
"null","sound/msl/clock.wav","null","audio-keyboard-response","487","311579","0.0-18.0-5.0","",""
"null","sound/msl/cow.wav","null","audio-keyboard-response","488","312099","0.0-18.0-6.0","",""
"320","sound/asl/silence.wav","49","audio-keyboard-response","489","312428","0.0-18.0-7.0","false",""
"null","sound/msl/door_bell.wav","null","audio-keyboard-response","490","312947","0.0-19.0-0.0","",""
"null","sound/msl/ding.wav","null","audio-keyboard-response","491","313470","0.0-19.0-1.0","",""
"null","sound/msl/cat.wav","null","audio-keyboard-response","492","313979","0.0-19.0-2.0","",""
"null","sound/asl/silence.wav","null","audio-keyboard-response","493","314480","0.0-19.0-3.0","",""
"null","sound/msl/door_bell.wav","null","audio-keyboard-response","494","314989","0.0-19.0-4.0","",""
"null","sound/msl/bird.wav","null","audio-keyboard-response","495","315507","0.0-19.0-5.0","",""
"null","sound/msl/cow.wav","null","audio-keyboard-response","496","316030","0.0-19.0-6.0","",""
"650","sound/asl/silence.wav","49","audio-keyboard-response","497","316679","0.0-19.0-7.0","true",""
"null","sound/msl/goat.wav","null","audio-keyboard-response","498","317229","0.0-20.0-0.0","",""
"null","sound/msl/frog.wav","null","audio-keyboard-response","499","317749","0.0-20.0-1.0","",""
"null","sound/msl/cat.wav","null","audio-keyboard-response","500","318259","0.0-20.0-2.0","",""
"null","sound/asl/silence.wav","null","audio-keyboard-response","501","318760","0.0-20.0-3.0","",""
"null","sound/msl/organ.wav","null","audio-keyboard-response","502","319267","0.0-20.0-4.0","",""
"null","sound/msl/frog.wav","null","audio-keyboard-response","503","319786","0.0-20.0-5.0","",""
"null","sound/msl/door.wav","null","audio-keyboard-response","504","320300","0.0-20.0-6.0","",""
"990","sound/asl/silence.wav","49","audio-keyboard-response","505","321297","0.0-20.0-7.0","false",""
"null","sound/msl/duck.wav","null","audio-keyboard-response","506","321817","0.0-21.0-0.0","",""
"null","sound/msl/clock.wav","null","audio-keyboard-response","507","322376","0.0-21.0-1.0","",""
"null","sound/msl/dog.wav","null","audio-keyboard-response","508","322900","0.0-21.0-2.0","",""
"null","sound/asl/silence.wav","null","audio-keyboard-response","509","323402","0.0-21.0-3.0","",""
"null","sound/msl/duck.wav","null","audio-keyboard-response","510","323907","0.0-21.0-4.0","",""
"null","sound/msl/bird.wav","null","audio-keyboard-response","511","324427","0.0-21.0-5.0","",""
"null","sound/msl/boing.wav","null","audio-keyboard-response","512","324939","0.0-21.0-6.0","",""
"221","sound/asl/silence.wav","50","audio-keyboard-response","513","325164","0.0-21.0-7.0","true",""
"null","sound/msl/goat.wav","null","audio-keyboard-response","514","325708","0.0-22.0-0.0","",""
"null","sound/msl/frog.wav","null","audio-keyboard-response","515","326231","0.0-22.0-1.0","",""
"null","sound/msl/cat.wav","null","audio-keyboard-response","516","326738","0.0-22.0-2.0","",""
"null","sound/asl/silence.wav","null","audio-keyboard-response","517","327241","0.0-22.0-3.0","",""
"null","sound/msl/duck.wav","null","audio-keyboard-response","518","327749","0.0-22.0-4.0","",""
"null","sound/msl/bird.wav","null","audio-keyboard-response","519","328266","0.0-22.0-5.0","",""
"null","sound/msl/boing.wav","null","audio-keyboard-response","520","328779","0.0-22.0-6.0","",""
"21","sound/asl/silence.wav","50","audio-keyboard-response","521","328806","0.0-22.0-7.0","true",""
"null","sound/msl/Water.wav","null","audio-keyboard-response","522","329319","0.0-23.0-0.0","",""
"null","sound/msl/clock.wav","null","audio-keyboard-response","523","329877","0.0-23.0-1.0","",""
"null","sound/msl/cow.wav","null","audio-keyboard-response","524","330387","0.0-23.0-2.0","",""
"null","sound/asl/silence.wav","null","audio-keyboard-response","525","330890","0.0-23.0-3.0","",""
"null","sound/msl/duck.wav","null","audio-keyboard-response","526","331397","0.0-23.0-4.0","",""
"null","sound/msl/clock.wav","null","audio-keyboard-response","527","331959","0.0-23.0-5.0","",""
"null","sound/msl/dog.wav","null","audio-keyboard-response","528","332469","0.0-23.0-6.0","",""
"210","sound/asl/silence.wav","49","audio-keyboard-response","529","332680","0.0-23.0-7.0","true",""
"null","sound/msl/door_bell.wav","null","audio-keyboard-response","530","333187","0.0-24.0-0.0","",""
"null","sound/msl/ding.wav","null","audio-keyboard-response","531","333708","0.0-24.0-1.0","",""
"null","sound/msl/cat.wav","null","audio-keyboard-response","532","334217","0.0-24.0-2.0","",""
"null","sound/asl/silence.wav","null","audio-keyboard-response","533","334726","0.0-24.0-3.0","",""
"null","sound/msl/Water.wav","null","audio-keyboard-response","534","335250","0.0-24.0-4.0","",""
"null","sound/msl/slide_whistle.wav","null","audio-keyboard-response","535","335758","0.0-24.0-5.0","",""
"null","sound/msl/door.wav","null","audio-keyboard-response","536","336270","0.0-24.0-6.0","",""
"451","sound/asl/silence.wav","50","audio-keyboard-response","537","336721","0.0-24.0-7.0","false",""
"null","sound/msl/Water.wav","null","audio-keyboard-response","538","337240","0.0-25.0-0.0","",""
"null","sound/msl/clock.wav","null","audio-keyboard-response","539","337797","0.0-25.0-1.0","",""
"null","sound/msl/cow.wav","null","audio-keyboard-response","540","338309","0.0-25.0-2.0","",""
"null","sound/asl/silence.wav","null","audio-keyboard-response","541","338823","0.0-25.0-3.0","",""
"null","sound/msl/Water.wav","null","audio-keyboard-response","542","339340","0.0-25.0-4.0","",""
"null","sound/msl/slide_whistle.wav","null","audio-keyboard-response","543","339857","0.0-25.0-5.0","",""
"null","sound/msl/door.wav","null","audio-keyboard-response","544","340366","0.0-25.0-6.0","",""
"160","sound/asl/silence.wav","49","audio-keyboard-response","545","340533","0.0-25.0-7.0","true",""
"null","sound/msl/duck.wav","null","audio-keyboard-response","546","341039","0.0-26.0-0.0","",""
"null","sound/msl/clock.wav","null","audio-keyboard-response","547","341600","0.0-26.0-1.0","",""
"null","sound/msl/dog.wav","null","audio-keyboard-response","548","342107","0.0-26.0-2.0","",""
"null","sound/asl/silence.wav","null","audio-keyboard-response","549","342610","0.0-26.0-3.0","",""
"null","sound/msl/door_bell.wav","null","audio-keyboard-response","550","343119","0.0-26.0-4.0","",""
"null","sound/msl/ding.wav","null","audio-keyboard-response","551","343629","0.0-26.0-5.0","",""
"null","sound/msl/cat.wav","null","audio-keyboard-response","552","344139","0.0-26.0-6.0","",""
"51","sound/asl/silence.wav","50","audio-keyboard-response","553","344196","0.0-26.0-7.0","true",""
"null","sound/msl/goat.wav","null","audio-keyboard-response","554","344737","0.0-27.0-0.0","",""
"null","sound/msl/slide_whistle.wav","null","audio-keyboard-response","555","345257","0.0-27.0-1.0","",""
"null","sound/msl/dog.wav","null","audio-keyboard-response","556","345779","0.0-27.0-2.0","",""
"null","sound/asl/silence.wav","null","audio-keyboard-response","557","346285","0.0-27.0-3.0","",""
"null","sound/msl/duck.wav","null","audio-keyboard-response","558","346789","0.0-27.0-4.0","",""
"null","sound/msl/clock.wav","null","audio-keyboard-response","559","347348","0.0-27.0-5.0","",""
"null","sound/msl/dog.wav","null","audio-keyboard-response","560","347867","0.0-27.0-6.0","",""
"1000","sound/asl/silence.wav","49","audio-keyboard-response","561","348870","0.0-27.0-7.0","true",""
"2235","","","instructions","562","351106","0.0-28.0","","[{""page_index"":0,""viewing_time"":2235}]"
