"rt","stimulus","key_press","trial_type","trial_index","time_elapsed","internal_node_id","correct","view_history"
"14285","alien.jpg","49","image-keyboard-response","0","14287","0.0-0.0","",""
"null","sound/msl/door_bell.wav","null","audio-keyboard-response","1","14795","0.0-1.0-0.0","",""
"null","sound/msl/clock.wav","null","audio-keyboard-response","2","15354","0.0-1.0-1.0","",""
"null","sound/msl/door.wav","null","audio-keyboard-response","3","15864","0.0-1.0-2.0","",""
"null","sound/msl/ding.wav","null","audio-keyboard-response","4","16385","0.0-1.0-3.0","",""
"null","sound/msl/Water.wav","null","audio-keyboard-response","5","16905","0.0-1.0-4.0","",""
"null","sound/msl/cat.wav","null","audio-keyboard-response","6","17415","0.0-1.0-5.0","",""
"null","sound/msl/duck.wav","null","audio-keyboard-response","7","17925","0.0-1.0-6.0","",""
"null","sound/msl/boing.wav","null","audio-keyboard-response","8","18435","0.0-1.0-7.0","",""
"null","sound/msl/bird.wav","null","audio-keyboard-response","9","18955","0.0-1.0-8.0","",""
"null","sound/msl/organ.wav","null","audio-keyboard-response","10","19466","0.0-1.0-9.0","",""
"null","sound/msl/frog.wav","null","audio-keyboard-response","11","19986","0.0-1.0-10.0","",""
"null","sound/msl/dog.wav","null","audio-keyboard-response","12","20505","0.0-1.0-11.0","",""
"null","sound/msl/ding.wav","null","audio-keyboard-response","13","21025","0.0-1.0-12.0","",""
"null","sound/msl/Water.wav","null","audio-keyboard-response","14","21545","0.0-1.0-13.0","",""
"null","sound/msl/cat.wav","null","audio-keyboard-response","15","22055","0.0-1.0-14.0","",""
"null","sound/msl/door_bell.wav","null","audio-keyboard-response","16","22565","0.0-1.0-15.0","",""
"null","sound/msl/clock.wav","null","audio-keyboard-response","17","23126","0.0-1.0-16.0","",""
"null","sound/msl/door.wav","null","audio-keyboard-response","18","23635","0.0-1.0-17.0","",""
"null","sound/msl/cow.wav","null","audio-keyboard-response","19","24155","0.0-1.0-18.0","",""
"null","sound/msl/slide_whistle.wav","null","audio-keyboard-response","20","24676","0.0-1.0-19.0","",""
"null","sound/msl/goat.wav","null","audio-keyboard-response","21","25226","0.0-1.0-20.0","",""
"null","sound/msl/organ.wav","null","audio-keyboard-response","22","25736","0.0-1.0-21.0","",""
"null","sound/msl/frog.wav","null","audio-keyboard-response","23","26246","0.0-1.0-22.0","",""
"null","sound/msl/dog.wav","null","audio-keyboard-response","24","26756","0.0-1.0-23.0","",""
"null","sound/msl/duck.wav","null","audio-keyboard-response","25","27276","0.0-1.0-24.0","",""
"null","sound/msl/boing.wav","null","audio-keyboard-response","26","27786","0.0-1.0-25.0","",""
"null","sound/msl/bird.wav","null","audio-keyboard-response","27","28307","0.0-1.0-26.0","",""
"null","sound/msl/door_bell.wav","null","audio-keyboard-response","28","28826","0.0-1.0-27.0","",""
"null","sound/msl/clock.wav","null","audio-keyboard-response","29","29386","0.0-1.0-28.0","",""
"null","sound/msl/door.wav","null","audio-keyboard-response","30","29897","0.0-1.0-29.0","",""
"null","sound/msl/ding.wav","null","audio-keyboard-response","31","30407","0.0-1.0-30.0","",""
"null","sound/msl/Water.wav","null","audio-keyboard-response","32","30927","0.0-1.0-31.0","",""
"null","sound/msl/cat.wav","null","audio-keyboard-response","33","31437","0.0-1.0-32.0","",""
"null","sound/msl/cow.wav","null","audio-keyboard-response","34","31957","0.0-1.0-33.0","",""
"null","sound/msl/slide_whistle.wav","null","audio-keyboard-response","35","32477","0.0-1.0-34.0","",""
"null","sound/msl/goat.wav","null","audio-keyboard-response","36","33027","0.0-1.0-35.0","",""
"null","sound/msl/duck.wav","null","audio-keyboard-response","37","33548","0.0-1.0-36.0","",""
"null","sound/msl/boing.wav","null","audio-keyboard-response","38","34056","0.0-1.0-37.0","",""
"null","sound/msl/bird.wav","null","audio-keyboard-response","39","34567","0.0-1.0-38.0","",""
"null","sound/msl/organ.wav","null","audio-keyboard-response","40","35077","0.0-1.0-39.0","",""
"null","sound/msl/frog.wav","null","audio-keyboard-response","41","35597","0.0-1.0-40.0","",""
"null","sound/msl/dog.wav","null","audio-keyboard-response","42","36117","0.0-1.0-41.0","",""
"null","sound/msl/cow.wav","null","audio-keyboard-response","43","36638","0.0-1.0-42.0","",""
"null","sound/msl/slide_whistle.wav","null","audio-keyboard-response","44","37157","0.0-1.0-43.0","",""
"null","sound/msl/goat.wav","null","audio-keyboard-response","45","37708","0.0-1.0-44.0","",""
"null","sound/msl/ding.wav","null","audio-keyboard-response","46","38228","0.0-1.0-45.0","",""
"null","sound/msl/Water.wav","null","audio-keyboard-response","47","38748","0.0-1.0-46.0","",""
"null","sound/msl/cat.wav","null","audio-keyboard-response","48","39257","0.0-1.0-47.0","",""
"null","sound/msl/duck.wav","null","audio-keyboard-response","49","39768","0.0-1.0-48.0","",""
"null","sound/msl/boing.wav","null","audio-keyboard-response","50","40278","0.0-1.0-49.0","",""
"null","sound/msl/bird.wav","null","audio-keyboard-response","51","40798","0.0-1.0-50.0","",""
"null","sound/msl/door_bell.wav","null","audio-keyboard-response","52","41318","0.0-1.0-51.0","",""
"null","sound/msl/clock.wav","null","audio-keyboard-response","53","41878","0.0-1.0-52.0","",""
"null","sound/msl/door.wav","null","audio-keyboard-response","54","42388","0.0-1.0-53.0","",""
"null","sound/msl/ding.wav","null","audio-keyboard-response","55","42908","0.0-1.0-54.0","",""
"null","sound/msl/Water.wav","null","audio-keyboard-response","56","43428","0.0-1.0-55.0","",""
"null","sound/msl/cat.wav","null","audio-keyboard-response","57","43938","0.0-1.0-56.0","",""
"null","sound/msl/duck.wav","null","audio-keyboard-response","58","44449","0.0-1.0-57.0","",""
"null","sound/msl/boing.wav","null","audio-keyboard-response","59","44958","0.0-1.0-58.0","",""
"null","sound/msl/bird.wav","null","audio-keyboard-response","60","45478","0.0-1.0-59.0","",""
"null","sound/msl/organ.wav","null","audio-keyboard-response","61","45988","0.0-1.0-60.0","",""
"null","sound/msl/frog.wav","null","audio-keyboard-response","62","46508","0.0-1.0-61.0","",""
"null","sound/msl/dog.wav","null","audio-keyboard-response","63","47028","0.0-1.0-62.0","",""
"null","sound/msl/cow.wav","null","audio-keyboard-response","64","47549","0.0-1.0-63.0","",""
"null","sound/msl/slide_whistle.wav","null","audio-keyboard-response","65","48069","0.0-1.0-64.0","",""
"null","sound/msl/goat.wav","null","audio-keyboard-response","66","48619","0.0-1.0-65.0","",""
"null","sound/msl/ding.wav","null","audio-keyboard-response","67","49129","0.0-1.0-66.0","",""
"null","sound/msl/Water.wav","null","audio-keyboard-response","68","49649","0.0-1.0-67.0","",""
"null","sound/msl/cat.wav","null","audio-keyboard-response","69","50154","0.0-1.0-68.0","",""
"null","sound/msl/door_bell.wav","null","audio-keyboard-response","70","50674","0.0-1.0-69.0","",""
"null","sound/msl/clock.wav","null","audio-keyboard-response","71","51234","0.0-1.0-70.0","",""
"null","sound/msl/door.wav","null","audio-keyboard-response","72","51745","0.0-1.0-71.0","",""
"null","sound/msl/duck.wav","null","audio-keyboard-response","73","52264","0.0-1.0-72.0","",""
"null","sound/msl/boing.wav","null","audio-keyboard-response","74","52774","0.0-1.0-73.0","",""
"null","sound/msl/bird.wav","null","audio-keyboard-response","75","53284","0.0-1.0-74.0","",""
"null","sound/msl/organ.wav","null","audio-keyboard-response","76","53795","0.0-1.0-75.0","",""
"null","sound/msl/frog.wav","null","audio-keyboard-response","77","54315","0.0-1.0-76.0","",""
"null","sound/msl/dog.wav","null","audio-keyboard-response","78","54834","0.0-1.0-77.0","",""
"null","sound/msl/duck.wav","null","audio-keyboard-response","79","55355","0.0-1.0-78.0","",""
"null","sound/msl/boing.wav","null","audio-keyboard-response","80","55865","0.0-1.0-79.0","",""
"null","sound/msl/bird.wav","null","audio-keyboard-response","81","56384","0.0-1.0-80.0","",""
"null","sound/msl/cow.wav","null","audio-keyboard-response","82","56905","0.0-1.0-81.0","",""
"null","sound/msl/slide_whistle.wav","null","audio-keyboard-response","83","57425","0.0-1.0-82.0","",""
"null","sound/msl/goat.wav","null","audio-keyboard-response","84","57975","0.0-1.0-83.0","",""
"null","sound/msl/door_bell.wav","null","audio-keyboard-response","85","58485","0.0-1.0-84.0","",""
"null","sound/msl/clock.wav","null","audio-keyboard-response","86","59045","0.0-1.0-85.0","",""
"null","sound/msl/door.wav","null","audio-keyboard-response","87","59555","0.0-1.0-86.0","",""
"null","sound/msl/ding.wav","null","audio-keyboard-response","88","60076","0.0-1.0-87.0","",""
"null","sound/msl/Water.wav","null","audio-keyboard-response","89","60595","0.0-1.0-88.0","",""
"null","sound/msl/cat.wav","null","audio-keyboard-response","90","61105","0.0-1.0-89.0","",""
"null","sound/msl/cow.wav","null","audio-keyboard-response","91","61625","0.0-1.0-90.0","",""
"null","sound/msl/slide_whistle.wav","null","audio-keyboard-response","92","62146","0.0-1.0-91.0","",""
"null","sound/msl/goat.wav","null","audio-keyboard-response","93","62696","0.0-1.0-92.0","",""
"null","sound/msl/organ.wav","null","audio-keyboard-response","94","63206","0.0-1.0-93.0","",""
"null","sound/msl/frog.wav","null","audio-keyboard-response","95","63716","0.0-1.0-94.0","",""
"null","sound/msl/dog.wav","null","audio-keyboard-response","96","64236","0.0-1.0-95.0","",""
"null","sound/msl/duck.wav","null","audio-keyboard-response","97","64758","0.0-1.0-96.0","",""
"null","sound/msl/boing.wav","null","audio-keyboard-response","98","65266","0.0-1.0-97.0","",""
"null","sound/msl/bird.wav","null","audio-keyboard-response","99","65786","0.0-1.0-98.0","",""
"null","sound/msl/ding.wav","null","audio-keyboard-response","100","66306","0.0-1.0-99.0","",""
"null","sound/msl/Water.wav","null","audio-keyboard-response","101","66827","0.0-1.0-100.0","",""
"null","sound/msl/cat.wav","null","audio-keyboard-response","102","67337","0.0-1.0-101.0","",""
"null","sound/msl/cow.wav","null","audio-keyboard-response","103","67846","0.0-1.0-102.0","",""
"null","sound/msl/slide_whistle.wav","null","audio-keyboard-response","104","68357","0.0-1.0-103.0","",""
"null","sound/msl/goat.wav","null","audio-keyboard-response","105","68908","0.0-1.0-104.0","",""
"null","sound/msl/door_bell.wav","null","audio-keyboard-response","106","69427","0.0-1.0-105.0","",""
"null","sound/msl/clock.wav","null","audio-keyboard-response","107","69987","0.0-1.0-106.0","",""
"null","sound/msl/door.wav","null","audio-keyboard-response","108","70497","0.0-1.0-107.0","",""
"null","sound/msl/ding.wav","null","audio-keyboard-response","109","71007","0.0-1.0-108.0","",""
"null","sound/msl/Water.wav","null","audio-keyboard-response","110","71528","0.0-1.0-109.0","",""
"null","sound/msl/cat.wav","null","audio-keyboard-response","111","72037","0.0-1.0-110.0","",""
"null","sound/msl/organ.wav","null","audio-keyboard-response","112","72547","0.0-1.0-111.0","",""
"null","sound/msl/frog.wav","null","audio-keyboard-response","113","73067","0.0-1.0-112.0","",""
"null","sound/msl/dog.wav","null","audio-keyboard-response","114","73587","0.0-1.0-113.0","",""
"null","sound/msl/cow.wav","null","audio-keyboard-response","115","74109","0.0-1.0-114.0","",""
"null","sound/msl/slide_whistle.wav","null","audio-keyboard-response","116","74627","0.0-1.0-115.0","",""
"null","sound/msl/goat.wav","null","audio-keyboard-response","117","75177","0.0-1.0-116.0","",""
"null","sound/msl/duck.wav","null","audio-keyboard-response","118","75687","0.0-1.0-117.0","",""
"null","sound/msl/boing.wav","null","audio-keyboard-response","119","76198","0.0-1.0-118.0","",""
"null","sound/msl/bird.wav","null","audio-keyboard-response","120","76718","0.0-1.0-119.0","",""
"null","sound/msl/door_bell.wav","null","audio-keyboard-response","121","77237","0.0-1.0-120.0","",""
"null","sound/msl/clock.wav","null","audio-keyboard-response","122","77798","0.0-1.0-121.0","",""
"null","sound/msl/door.wav","null","audio-keyboard-response","123","78307","0.0-1.0-122.0","",""
"null","sound/msl/ding.wav","null","audio-keyboard-response","124","78828","0.0-1.0-123.0","",""
"null","sound/msl/Water.wav","null","audio-keyboard-response","125","79347","0.0-1.0-124.0","",""
"null","sound/msl/cat.wav","null","audio-keyboard-response","126","79858","0.0-1.0-125.0","",""
"null","sound/msl/cow.wav","null","audio-keyboard-response","127","80368","0.0-1.0-126.0","",""
"null","sound/msl/slide_whistle.wav","null","audio-keyboard-response","128","80877","0.0-1.0-127.0","",""
"null","sound/msl/goat.wav","null","audio-keyboard-response","129","81428","0.0-1.0-128.0","",""
"null","sound/msl/organ.wav","null","audio-keyboard-response","130","81938","0.0-1.0-129.0","",""
"null","sound/msl/frog.wav","null","audio-keyboard-response","131","82448","0.0-1.0-130.0","",""
"null","sound/msl/dog.wav","null","audio-keyboard-response","132","82958","0.0-1.0-131.0","",""
"null","sound/msl/ding.wav","null","audio-keyboard-response","133","83479","0.0-1.0-132.0","",""
"null","sound/msl/Water.wav","null","audio-keyboard-response","134","83999","0.0-1.0-133.0","",""
"null","sound/msl/cat.wav","null","audio-keyboard-response","135","84508","0.0-1.0-134.0","",""
"null","sound/msl/duck.wav","null","audio-keyboard-response","136","85029","0.0-1.0-135.0","",""
"null","sound/msl/boing.wav","null","audio-keyboard-response","137","85539","0.0-1.0-136.0","",""
"null","sound/msl/bird.wav","null","audio-keyboard-response","138","86050","0.0-1.0-137.0","",""
"null","sound/msl/organ.wav","null","audio-keyboard-response","139","86559","0.0-1.0-138.0","",""
"null","sound/msl/frog.wav","null","audio-keyboard-response","140","87079","0.0-1.0-139.0","",""
"null","sound/msl/dog.wav","null","audio-keyboard-response","141","87599","0.0-1.0-140.0","",""
"null","sound/msl/door_bell.wav","null","audio-keyboard-response","142","88119","0.0-1.0-141.0","",""
"null","sound/msl/clock.wav","null","audio-keyboard-response","143","88679","0.0-1.0-142.0","",""
"null","sound/msl/door.wav","null","audio-keyboard-response","144","89189","0.0-1.0-143.0","",""
"null","sound/msl/cow.wav","null","audio-keyboard-response","145","89709","0.0-1.0-144.0","",""
"null","sound/msl/slide_whistle.wav","null","audio-keyboard-response","146","90229","0.0-1.0-145.0","",""
"null","sound/msl/goat.wav","null","audio-keyboard-response","147","90775","0.0-1.0-146.0","",""
"null","sound/msl/duck.wav","null","audio-keyboard-response","148","91285","0.0-1.0-147.0","",""
"null","sound/msl/boing.wav","null","audio-keyboard-response","149","91794","0.0-1.0-148.0","",""
"null","sound/msl/bird.wav","null","audio-keyboard-response","150","92314","0.0-1.0-149.0","",""
"null","sound/msl/door_bell.wav","null","audio-keyboard-response","151","92835","0.0-1.0-150.0","",""
"null","sound/msl/clock.wav","null","audio-keyboard-response","152","93395","0.0-1.0-151.0","",""
"null","sound/msl/door.wav","null","audio-keyboard-response","153","93905","0.0-1.0-152.0","",""
"null","sound/msl/ding.wav","null","audio-keyboard-response","154","94425","0.0-1.0-153.0","",""
"null","sound/msl/Water.wav","null","audio-keyboard-response","155","94945","0.0-1.0-154.0","",""
"null","sound/msl/cat.wav","null","audio-keyboard-response","156","95454","0.0-1.0-155.0","",""
"null","sound/msl/organ.wav","null","audio-keyboard-response","157","95965","0.0-1.0-156.0","",""
"null","sound/msl/frog.wav","null","audio-keyboard-response","158","96475","0.0-1.0-157.0","",""
"null","sound/msl/dog.wav","null","audio-keyboard-response","159","96995","0.0-1.0-158.0","",""
"null","sound/msl/cow.wav","null","audio-keyboard-response","160","97515","0.0-1.0-159.0","",""
"null","sound/msl/slide_whistle.wav","null","audio-keyboard-response","161","98036","0.0-1.0-160.0","",""
"null","sound/msl/goat.wav","null","audio-keyboard-response","162","98585","0.0-1.0-161.0","",""
"null","sound/msl/ding.wav","null","audio-keyboard-response","163","99106","0.0-1.0-162.0","",""
"null","sound/msl/Water.wav","null","audio-keyboard-response","164","99625","0.0-1.0-163.0","",""
"null","sound/msl/cat.wav","null","audio-keyboard-response","165","100136","0.0-1.0-164.0","",""
"null","sound/msl/organ.wav","null","audio-keyboard-response","166","100646","0.0-1.0-165.0","",""
"null","sound/msl/frog.wav","null","audio-keyboard-response","167","101155","0.0-1.0-166.0","",""
"null","sound/msl/dog.wav","null","audio-keyboard-response","168","101676","0.0-1.0-167.0","",""
"null","sound/msl/door_bell.wav","null","audio-keyboard-response","169","102196","0.0-1.0-168.0","",""
"null","sound/msl/clock.wav","null","audio-keyboard-response","170","102755","0.0-1.0-169.0","",""
"null","sound/msl/door.wav","null","audio-keyboard-response","171","103266","0.0-1.0-170.0","",""
"null","sound/msl/duck.wav","null","audio-keyboard-response","172","103786","0.0-1.0-171.0","",""
"null","sound/msl/boing.wav","null","audio-keyboard-response","173","104296","0.0-1.0-172.0","",""
"null","sound/msl/bird.wav","null","audio-keyboard-response","174","104806","0.0-1.0-173.0","",""
"null","sound/msl/cow.wav","null","audio-keyboard-response","175","105316","0.0-1.0-174.0","",""
"null","sound/msl/slide_whistle.wav","null","audio-keyboard-response","176","105837","0.0-1.0-175.0","",""
"null","sound/msl/goat.wav","null","audio-keyboard-response","177","106387","0.0-1.0-176.0","",""
"null","sound/msl/ding.wav","null","audio-keyboard-response","178","106907","0.0-1.0-177.0","",""
"null","sound/msl/Water.wav","null","audio-keyboard-response","179","107427","0.0-1.0-178.0","",""
"null","sound/msl/cat.wav","null","audio-keyboard-response","180","107937","0.0-1.0-179.0","",""
"null","sound/msl/duck.wav","null","audio-keyboard-response","181","108447","0.0-1.0-180.0","",""
"null","sound/msl/boing.wav","null","audio-keyboard-response","182","108957","0.0-1.0-181.0","",""
"null","sound/msl/bird.wav","null","audio-keyboard-response","183","109477","0.0-1.0-182.0","",""
"null","sound/msl/organ.wav","null","audio-keyboard-response","184","109987","0.0-1.0-183.0","",""
"null","sound/msl/frog.wav","null","audio-keyboard-response","185","110507","0.0-1.0-184.0","",""
"null","sound/msl/dog.wav","null","audio-keyboard-response","186","111027","0.0-1.0-185.0","",""
"null","sound/msl/door_bell.wav","null","audio-keyboard-response","187","111547","0.0-1.0-186.0","",""
"null","sound/msl/clock.wav","null","audio-keyboard-response","188","112106","0.0-1.0-187.0","",""
"null","sound/msl/door.wav","null","audio-keyboard-response","189","112617","0.0-1.0-188.0","",""
"null","sound/msl/cow.wav","null","audio-keyboard-response","190","113127","0.0-1.0-189.0","",""
"null","sound/msl/slide_whistle.wav","null","audio-keyboard-response","191","113637","0.0-1.0-190.0","",""
"null","sound/msl/goat.wav","null","audio-keyboard-response","192","114187","0.0-1.0-191.0","",""
"null","sound/msl/ding.wav","null","audio-keyboard-response","193","114707","0.0-1.0-192.0","",""
"null","sound/msl/Water.wav","null","audio-keyboard-response","194","115228","0.0-1.0-193.0","",""
"null","sound/msl/cat.wav","null","audio-keyboard-response","195","115737","0.0-1.0-194.0","",""
"null","sound/msl/duck.wav","null","audio-keyboard-response","196","116247","0.0-1.0-195.0","",""
"null","sound/msl/boing.wav","null","audio-keyboard-response","197","116757","0.0-1.0-196.0","",""
"null","sound/msl/bird.wav","null","audio-keyboard-response","198","117277","0.0-1.0-197.0","",""
"null","sound/msl/door_bell.wav","null","audio-keyboard-response","199","117798","0.0-1.0-198.0","",""
"null","sound/msl/clock.wav","null","audio-keyboard-response","200","118357","0.0-1.0-199.0","",""
"null","sound/msl/door.wav","null","audio-keyboard-response","201","118868","0.0-1.0-200.0","",""
"null","sound/msl/organ.wav","null","audio-keyboard-response","202","119378","0.0-1.0-201.0","",""
"null","sound/msl/frog.wav","null","audio-keyboard-response","203","119887","0.0-1.0-202.0","",""
"null","sound/msl/dog.wav","null","audio-keyboard-response","204","120398","0.0-1.0-203.0","",""
"null","sound/msl/cow.wav","null","audio-keyboard-response","205","120918","0.0-1.0-204.0","",""
"null","sound/msl/slide_whistle.wav","null","audio-keyboard-response","206","121438","0.0-1.0-205.0","",""
"null","sound/msl/goat.wav","null","audio-keyboard-response","207","121988","0.0-1.0-206.0","",""
"null","sound/msl/ding.wav","null","audio-keyboard-response","208","122509","0.0-1.0-207.0","",""
"null","sound/msl/Water.wav","null","audio-keyboard-response","209","123029","0.0-1.0-208.0","",""
"null","sound/msl/cat.wav","null","audio-keyboard-response","210","123538","0.0-1.0-209.0","",""
"null","sound/msl/door_bell.wav","null","audio-keyboard-response","211","124049","0.0-1.0-210.0","",""
"null","sound/msl/clock.wav","null","audio-keyboard-response","212","124608","0.0-1.0-211.0","",""
"null","sound/msl/door.wav","null","audio-keyboard-response","213","125119","0.0-1.0-212.0","",""
"null","sound/msl/cow.wav","null","audio-keyboard-response","214","125639","0.0-1.0-213.0","",""
"null","sound/msl/slide_whistle.wav","null","audio-keyboard-response","215","126159","0.0-1.0-214.0","",""
"null","sound/msl/goat.wav","null","audio-keyboard-response","216","126709","0.0-1.0-215.0","",""
"null","sound/msl/duck.wav","null","audio-keyboard-response","217","127229","0.0-1.0-216.0","",""
"null","sound/msl/boing.wav","null","audio-keyboard-response","218","127739","0.0-1.0-217.0","",""
"null","sound/msl/bird.wav","null","audio-keyboard-response","219","128249","0.0-1.0-218.0","",""
"null","sound/msl/organ.wav","null","audio-keyboard-response","220","128761","0.0-1.0-219.0","",""
"null","sound/msl/frog.wav","null","audio-keyboard-response","221","129279","0.0-1.0-220.0","",""
"null","sound/msl/dog.wav","null","audio-keyboard-response","222","129799","0.0-1.0-221.0","",""
"null","sound/msl/ding.wav","null","audio-keyboard-response","223","130320","0.0-1.0-222.0","",""
"null","sound/msl/Water.wav","null","audio-keyboard-response","224","130840","0.0-1.0-223.0","",""
"null","sound/msl/cat.wav","null","audio-keyboard-response","225","131346","0.0-1.0-224.0","",""
"null","sound/msl/duck.wav","null","audio-keyboard-response","226","131865","0.0-1.0-225.0","",""
"null","sound/msl/boing.wav","null","audio-keyboard-response","227","132375","0.0-1.0-226.0","",""
"null","sound/msl/bird.wav","null","audio-keyboard-response","228","132885","0.0-1.0-227.0","",""
"null","sound/msl/cow.wav","null","audio-keyboard-response","229","133396","0.0-1.0-228.0","",""
"null","sound/msl/slide_whistle.wav","null","audio-keyboard-response","230","133915","0.0-1.0-229.0","",""
"null","sound/msl/goat.wav","null","audio-keyboard-response","231","134465","0.0-1.0-230.0","",""
"null","sound/msl/duck.wav","null","audio-keyboard-response","232","134985","0.0-1.0-231.0","",""
"null","sound/msl/boing.wav","null","audio-keyboard-response","233","135495","0.0-1.0-232.0","",""
"null","sound/msl/bird.wav","null","audio-keyboard-response","234","136005","0.0-1.0-233.0","",""
"null","sound/msl/ding.wav","null","audio-keyboard-response","235","136514","0.0-1.0-234.0","",""
"null","sound/msl/Water.wav","null","audio-keyboard-response","236","137035","0.0-1.0-235.0","",""
"null","sound/msl/cat.wav","null","audio-keyboard-response","237","137545","0.0-1.0-236.0","",""
"null","sound/msl/organ.wav","null","audio-keyboard-response","238","138055","0.0-1.0-237.0","",""
"null","sound/msl/frog.wav","null","audio-keyboard-response","239","138566","0.0-1.0-238.0","",""
"null","sound/msl/dog.wav","null","audio-keyboard-response","240","139075","0.0-1.0-239.0","",""
"null","sound/msl/door_bell.wav","null","audio-keyboard-response","241","139596","0.0-1.0-240.0","",""
"null","sound/msl/clock.wav","null","audio-keyboard-response","242","140156","0.0-1.0-241.0","",""
"null","sound/msl/door.wav","null","audio-keyboard-response","243","140666","0.0-1.0-242.0","",""
"null","sound/msl/cow.wav","null","audio-keyboard-response","244","141186","0.0-1.0-243.0","",""
"null","sound/msl/slide_whistle.wav","null","audio-keyboard-response","245","141706","0.0-1.0-244.0","",""
"null","sound/msl/goat.wav","null","audio-keyboard-response","246","142256","0.0-1.0-245.0","",""
"null","sound/msl/ding.wav","null","audio-keyboard-response","247","142765","0.0-1.0-246.0","",""
"null","sound/msl/Water.wav","null","audio-keyboard-response","248","143286","0.0-1.0-247.0","",""
"null","sound/msl/cat.wav","null","audio-keyboard-response","249","143796","0.0-1.0-248.0","",""
"null","sound/msl/organ.wav","null","audio-keyboard-response","250","144306","0.0-1.0-249.0","",""
"null","sound/msl/frog.wav","null","audio-keyboard-response","251","144827","0.0-1.0-250.0","",""
"null","sound/msl/dog.wav","null","audio-keyboard-response","252","145347","0.0-1.0-251.0","",""
"null","sound/msl/door_bell.wav","null","audio-keyboard-response","253","145866","0.0-1.0-252.0","",""
"null","sound/msl/clock.wav","null","audio-keyboard-response","254","146427","0.0-1.0-253.0","",""
"null","sound/msl/door.wav","null","audio-keyboard-response","255","146937","0.0-1.0-254.0","",""
"null","sound/msl/duck.wav","null","audio-keyboard-response","256","147447","0.0-1.0-255.0","",""
"null","sound/msl/boing.wav","null","audio-keyboard-response","257","147957","0.0-1.0-256.0","",""
"null","sound/msl/bird.wav","null","audio-keyboard-response","258","148477","0.0-1.0-257.0","",""
"null","sound/msl/cow.wav","null","audio-keyboard-response","259","148997","0.0-1.0-258.0","",""
"null","sound/msl/slide_whistle.wav","null","audio-keyboard-response","260","149517","0.0-1.0-259.0","",""
"null","sound/msl/goat.wav","null","audio-keyboard-response","261","150066","0.0-1.0-260.0","",""
"null","sound/msl/door_bell.wav","null","audio-keyboard-response","262","150588","0.0-1.0-261.0","",""
"null","sound/msl/clock.wav","null","audio-keyboard-response","263","151147","0.0-1.0-262.0","",""
"null","sound/msl/door.wav","null","audio-keyboard-response","264","151657","0.0-1.0-263.0","",""
"null","sound/msl/organ.wav","null","audio-keyboard-response","265","152167","0.0-1.0-264.0","",""
"null","sound/msl/frog.wav","null","audio-keyboard-response","266","152677","0.0-1.0-265.0","",""
"null","sound/msl/dog.wav","null","audio-keyboard-response","267","153197","0.0-1.0-266.0","",""
"null","sound/msl/duck.wav","null","audio-keyboard-response","268","153717","0.0-1.0-267.0","",""
"null","sound/msl/boing.wav","null","audio-keyboard-response","269","154227","0.0-1.0-268.0","",""
"null","sound/msl/bird.wav","null","audio-keyboard-response","270","154747","0.0-1.0-269.0","",""
"null","sound/msl/ding.wav","null","audio-keyboard-response","271","155268","0.0-1.0-270.0","",""
"null","sound/msl/Water.wav","null","audio-keyboard-response","272","155787","0.0-1.0-271.0","",""
"null","sound/msl/cat.wav","null","audio-keyboard-response","273","156297","0.0-1.0-272.0","",""
"null","sound/msl/cow.wav","null","audio-keyboard-response","274","156807","0.0-1.0-273.0","",""
"null","sound/msl/slide_whistle.wav","null","audio-keyboard-response","275","157318","0.0-1.0-274.0","",""
"null","sound/msl/goat.wav","null","audio-keyboard-response","276","157868","0.0-1.0-275.0","",""
"null","sound/msl/door_bell.wav","null","audio-keyboard-response","277","158388","0.0-1.0-276.0","",""
"null","sound/msl/clock.wav","null","audio-keyboard-response","278","158948","0.0-1.0-277.0","",""
"null","sound/msl/door.wav","null","audio-keyboard-response","279","159458","0.0-1.0-278.0","",""
"null","sound/msl/organ.wav","null","audio-keyboard-response","280","159968","0.0-1.0-279.0","",""
"null","sound/msl/frog.wav","null","audio-keyboard-response","281","160478","0.0-1.0-280.0","",""
"null","sound/msl/dog.wav","null","audio-keyboard-response","282","160998","0.0-1.0-281.0","",""
"null","sound/msl/ding.wav","null","audio-keyboard-response","283","161518","0.0-1.0-282.0","",""
"null","sound/msl/Water.wav","null","audio-keyboard-response","284","162039","0.0-1.0-283.0","",""
"null","sound/msl/cat.wav","null","audio-keyboard-response","285","162549","0.0-1.0-284.0","",""
"null","sound/msl/duck.wav","null","audio-keyboard-response","286","163069","0.0-1.0-285.0","",""
"null","sound/msl/boing.wav","null","audio-keyboard-response","287","163578","0.0-1.0-286.0","",""
"null","sound/msl/bird.wav","null","audio-keyboard-response","288","164088","0.0-1.0-287.0","",""
"null","sound/msl/cow.wav","null","audio-keyboard-response","289","164599","0.0-1.0-288.0","",""
"null","sound/msl/slide_whistle.wav","null","audio-keyboard-response","290","165119","0.0-1.0-289.0","",""
"null","sound/msl/goat.wav","null","audio-keyboard-response","291","165669","0.0-1.0-290.0","",""
"null","sound/msl/organ.wav","null","audio-keyboard-response","292","166178","0.0-1.0-291.0","",""
"null","sound/msl/frog.wav","null","audio-keyboard-response","293","166688","0.0-1.0-292.0","",""
"null","sound/msl/dog.wav","null","audio-keyboard-response","294","167199","0.0-1.0-293.0","",""
"null","sound/msl/door_bell.wav","null","audio-keyboard-response","295","167720","0.0-1.0-294.0","",""
"null","sound/msl/clock.wav","null","audio-keyboard-response","296","168279","0.0-1.0-295.0","",""
"null","sound/msl/door.wav","null","audio-keyboard-response","297","168789","0.0-1.0-296.0","",""
"null","sound/msl/cow.wav","null","audio-keyboard-response","298","169309","0.0-1.0-297.0","",""
"null","sound/msl/slide_whistle.wav","null","audio-keyboard-response","299","169829","0.0-1.0-298.0","",""
"null","sound/msl/goat.wav","null","audio-keyboard-response","300","170380","0.0-1.0-299.0","",""
"null","sound/msl/ding.wav","null","audio-keyboard-response","301","170889","0.0-1.0-300.0","",""
"null","sound/msl/Water.wav","null","audio-keyboard-response","302","171405","0.0-1.0-301.0","",""
"null","sound/msl/cat.wav","null","audio-keyboard-response","303","171915","0.0-1.0-302.0","",""
"null","sound/msl/organ.wav","null","audio-keyboard-response","304","172425","0.0-1.0-303.0","",""
"null","sound/msl/frog.wav","null","audio-keyboard-response","305","172945","0.0-1.0-304.0","",""
"null","sound/msl/dog.wav","null","audio-keyboard-response","306","173465","0.0-1.0-305.0","",""
"null","sound/msl/duck.wav","null","audio-keyboard-response","307","173985","0.0-1.0-306.0","",""
"null","sound/msl/boing.wav","null","audio-keyboard-response","308","174495","0.0-1.0-307.0","",""
"null","sound/msl/bird.wav","null","audio-keyboard-response","309","175005","0.0-1.0-308.0","",""
"null","sound/msl/door_bell.wav","null","audio-keyboard-response","310","175515","0.0-1.0-309.0","",""
"null","sound/msl/clock.wav","null","audio-keyboard-response","311","176076","0.0-1.0-310.0","",""
"null","sound/msl/door.wav","null","audio-keyboard-response","312","176586","0.0-1.0-311.0","",""
"null","sound/msl/cow.wav","null","audio-keyboard-response","313","177106","0.0-1.0-312.0","",""
"null","sound/msl/slide_whistle.wav","null","audio-keyboard-response","314","177626","0.0-1.0-313.0","",""
"null","sound/msl/goat.wav","null","audio-keyboard-response","315","178175","0.0-1.0-314.0","",""
"null","sound/msl/ding.wav","null","audio-keyboard-response","316","178686","0.0-1.0-315.0","",""
"null","sound/msl/Water.wav","null","audio-keyboard-response","317","179205","0.0-1.0-316.0","",""
"null","sound/msl/cat.wav","null","audio-keyboard-response","318","179716","0.0-1.0-317.0","",""
"null","sound/msl/organ.wav","null","audio-keyboard-response","319","180226","0.0-1.0-318.0","",""
"null","sound/msl/frog.wav","null","audio-keyboard-response","320","180746","0.0-1.0-319.0","",""
"null","sound/msl/dog.wav","null","audio-keyboard-response","321","181266","0.0-1.0-320.0","",""
"null","sound/msl/door_bell.wav","null","audio-keyboard-response","322","181785","0.0-1.0-321.0","",""
"null","sound/msl/clock.wav","null","audio-keyboard-response","323","182346","0.0-1.0-322.0","",""
"null","sound/msl/door.wav","null","audio-keyboard-response","324","182857","0.0-1.0-323.0","",""
"null","sound/msl/ding.wav","null","audio-keyboard-response","325","183365","0.0-1.0-324.0","",""
"null","sound/msl/Water.wav","null","audio-keyboard-response","326","183886","0.0-1.0-325.0","",""
"null","sound/msl/cat.wav","null","audio-keyboard-response","327","184396","0.0-1.0-326.0","",""
"null","sound/msl/duck.wav","null","audio-keyboard-response","328","184917","0.0-1.0-327.0","",""
"null","sound/msl/boing.wav","null","audio-keyboard-response","329","185426","0.0-1.0-328.0","",""
"null","sound/msl/bird.wav","null","audio-keyboard-response","330","185947","0.0-1.0-329.0","",""
"null","sound/msl/cow.wav","null","audio-keyboard-response","331","186466","0.0-1.0-330.0","",""
"null","sound/msl/slide_whistle.wav","null","audio-keyboard-response","332","186987","0.0-1.0-331.0","",""
"null","sound/msl/goat.wav","null","audio-keyboard-response","333","187537","0.0-1.0-332.0","",""
"null","sound/msl/organ.wav","null","audio-keyboard-response","334","188047","0.0-1.0-333.0","",""
"null","sound/msl/frog.wav","null","audio-keyboard-response","335","188557","0.0-1.0-334.0","",""
"null","sound/msl/dog.wav","null","audio-keyboard-response","336","189077","0.0-1.0-335.0","",""
"null","sound/msl/duck.wav","null","audio-keyboard-response","337","189597","0.0-1.0-336.0","",""
"null","sound/msl/boing.wav","null","audio-keyboard-response","338","190106","0.0-1.0-337.0","",""
"null","sound/msl/bird.wav","null","audio-keyboard-response","339","190627","0.0-1.0-338.0","",""
"null","sound/msl/door_bell.wav","null","audio-keyboard-response","340","191147","0.0-1.0-339.0","",""
"null","sound/msl/clock.wav","null","audio-keyboard-response","341","191708","0.0-1.0-340.0","",""
"null","sound/msl/door.wav","null","audio-keyboard-response","342","192217","0.0-1.0-341.0","",""
"null","sound/msl/organ.wav","null","audio-keyboard-response","343","192727","0.0-1.0-342.0","",""
"null","sound/msl/frog.wav","null","audio-keyboard-response","344","193239","0.0-1.0-343.0","",""
"null","sound/msl/dog.wav","null","audio-keyboard-response","345","193757","0.0-1.0-344.0","",""
"null","sound/msl/door_bell.wav","null","audio-keyboard-response","346","194278","0.0-1.0-345.0","",""
"null","sound/msl/clock.wav","null","audio-keyboard-response","347","194837","0.0-1.0-346.0","",""
"null","sound/msl/door.wav","null","audio-keyboard-response","348","195348","0.0-1.0-347.0","",""
"null","sound/msl/duck.wav","null","audio-keyboard-response","349","195869","0.0-1.0-348.0","",""
"null","sound/msl/boing.wav","null","audio-keyboard-response","350","196377","0.0-1.0-349.0","",""
"null","sound/msl/bird.wav","null","audio-keyboard-response","351","196888","0.0-1.0-350.0","",""
"null","sound/msl/cow.wav","null","audio-keyboard-response","352","197399","0.0-1.0-351.0","",""
"null","sound/msl/slide_whistle.wav","null","audio-keyboard-response","353","197919","0.0-1.0-352.0","",""
"null","sound/msl/goat.wav","null","audio-keyboard-response","354","198468","0.0-1.0-353.0","",""
"null","sound/msl/organ.wav","null","audio-keyboard-response","355","198978","0.0-1.0-354.0","",""
"null","sound/msl/frog.wav","null","audio-keyboard-response","356","199489","0.0-1.0-355.0","",""
"null","sound/msl/dog.wav","null","audio-keyboard-response","357","199999","0.0-1.0-356.0","",""
"null","sound/msl/door_bell.wav","null","audio-keyboard-response","358","200518","0.0-1.0-357.0","",""
"null","sound/msl/clock.wav","null","audio-keyboard-response","359","201078","0.0-1.0-358.0","",""
"null","sound/msl/door.wav","null","audio-keyboard-response","360","201589","0.0-1.0-359.0","",""
"2658","Instructions2-eng.png","49","image-keyboard-response","361","204251","0.0-2.0","",""
"null","sound/msl/door_bell.wav","null","audio-keyboard-response","362","204760","0.0-3.0-0.0","",""
"null","sound/msl/Water.wav","null","audio-keyboard-response","363","205280","0.0-3.0-1.0","",""
"null","sound/msl/bird.wav","null","audio-keyboard-response","364","205800","0.0-3.0-2.0","",""
"null","sound/asl/silence.wav","null","audio-keyboard-response","365","206302","0.0-3.0-3.0","",""
"null","sound/msl/door_bell.wav","null","audio-keyboard-response","366","206809","0.0-3.0-4.0","",""
"null","sound/msl/clock.wav","null","audio-keyboard-response","367","207369","0.0-3.0-5.0","",""
"null","sound/msl/door.wav","null","audio-keyboard-response","368","207880","0.0-3.0-6.0","",""
"360","sound/asl/silence.wav","50","audio-keyboard-response","369","208249","0.0-3.0-7.0","true",""
"null","sound/msl/duck.wav","null","audio-keyboard-response","370","208759","0.0-4.0-0.0","",""
"null","sound/msl/frog.wav","null","audio-keyboard-response","371","209279","0.0-4.0-1.0","",""
"null","sound/msl/goat.wav","null","audio-keyboard-response","372","209829","0.0-4.0-2.0","",""
"null","sound/asl/silence.wav","null","audio-keyboard-response","373","210331","0.0-4.0-3.0","",""
"null","sound/msl/organ.wav","null","audio-keyboard-response","374","210839","0.0-4.0-4.0","",""
"null","sound/msl/frog.wav","null","audio-keyboard-response","375","211360","0.0-4.0-5.0","",""
"null","sound/msl/dog.wav","null","audio-keyboard-response","376","211875","0.0-4.0-6.0","",""
"509","sound/asl/silence.wav","50","audio-keyboard-response","377","212393","0.0-4.0-7.0","true",""
"null","sound/msl/cow.wav","null","audio-keyboard-response","378","212916","0.0-5.0-0.0","",""
"null","sound/msl/slide_whistle.wav","null","audio-keyboard-response","379","213436","0.0-5.0-1.0","",""
"null","sound/msl/goat.wav","null","audio-keyboard-response","380","213985","0.0-5.0-2.0","",""
"null","sound/asl/silence.wav","null","audio-keyboard-response","381","214486","0.0-5.0-3.0","",""
"null","sound/msl/organ.wav","null","audio-keyboard-response","382","214995","0.0-5.0-4.0","",""
"null","sound/msl/slide_whistle.wav","null","audio-keyboard-response","383","215515","0.0-5.0-5.0","",""
"null","sound/msl/door.wav","null","audio-keyboard-response","384","216025","0.0-5.0-6.0","",""
"349","sound/asl/silence.wav","49","audio-keyboard-response","385","216380","0.0-5.0-7.0","true",""
"null","sound/msl/ding.wav","null","audio-keyboard-response","386","216885","0.0-6.0-0.0","",""
"null","sound/msl/Water.wav","null","audio-keyboard-response","387","217406","0.0-6.0-1.0","",""
"null","sound/msl/cat.wav","null","audio-keyboard-response","388","217916","0.0-6.0-2.0","",""
"null","sound/asl/silence.wav","null","audio-keyboard-response","389","218416","0.0-6.0-3.0","",""
"null","sound/msl/ding.wav","null","audio-keyboard-response","390","218925","0.0-6.0-4.0","",""
"null","sound/msl/boing.wav","null","audio-keyboard-response","391","219436","0.0-6.0-5.0","",""
"null","sound/msl/dog.wav","null","audio-keyboard-response","392","219956","0.0-6.0-6.0","",""
"349","sound/asl/silence.wav","50","audio-keyboard-response","393","220311","0.0-6.0-7.0","false",""
"null","sound/msl/organ.wav","null","audio-keyboard-response","394","220815","0.0-7.0-0.0","",""
"null","sound/msl/frog.wav","null","audio-keyboard-response","395","221326","0.0-7.0-1.0","",""
"null","sound/msl/dog.wav","null","audio-keyboard-response","396","221836","0.0-7.0-2.0","",""
"null","sound/asl/silence.wav","null","audio-keyboard-response","397","222337","0.0-7.0-3.0","",""
"null","sound/msl/cow.wav","null","audio-keyboard-response","398","222847","0.0-7.0-4.0","",""
"null","sound/msl/clock.wav","null","audio-keyboard-response","399","223406","0.0-7.0-5.0","",""
"null","sound/msl/cat.wav","null","audio-keyboard-response","400","223917","0.0-7.0-6.0","",""
"1899","sound/asl/silence.wav","49","audio-keyboard-response","401","225824","0.0-7.0-7.0","true",""
"null","sound/msl/cow.wav","null","audio-keyboard-response","402","226347","0.0-8.0-0.0","",""
"null","sound/msl/clock.wav","null","audio-keyboard-response","403","226906","0.0-8.0-1.0","",""
"null","sound/msl/cat.wav","null","audio-keyboard-response","404","227417","0.0-8.0-2.0","",""
"null","sound/asl/silence.wav","null","audio-keyboard-response","405","227919","0.0-8.0-3.0","",""
"null","sound/msl/ding.wav","null","audio-keyboard-response","406","228437","0.0-8.0-4.0","",""
"null","sound/msl/Water.wav","null","audio-keyboard-response","407","228957","0.0-8.0-5.0","",""
"null","sound/msl/cat.wav","null","audio-keyboard-response","408","229467","0.0-8.0-6.0","",""
"669","sound/asl/silence.wav","50","audio-keyboard-response","409","230143","0.0-8.0-7.0","true",""
"null","sound/msl/door_bell.wav","null","audio-keyboard-response","410","230647","0.0-9.0-0.0","",""
"null","sound/msl/Water.wav","null","audio-keyboard-response","411","231167","0.0-9.0-1.0","",""
"null","sound/msl/bird.wav","null","audio-keyboard-response","412","231677","0.0-9.0-2.0","",""
"null","sound/asl/silence.wav","null","audio-keyboard-response","413","232179","0.0-9.0-3.0","",""
"null","sound/msl/organ.wav","null","audio-keyboard-response","414","232688","0.0-9.0-4.0","",""
"null","sound/msl/frog.wav","null","audio-keyboard-response","415","233198","0.0-9.0-5.0","",""
"null","sound/msl/dog.wav","null","audio-keyboard-response","416","233718","0.0-9.0-6.0","",""
"160","sound/asl/silence.wav","50","audio-keyboard-response","417","233882","0.0-9.0-7.0","true",""
"null","sound/msl/ding.wav","null","audio-keyboard-response","418","234398","0.0-10.0-0.0","",""
"null","sound/msl/boing.wav","null","audio-keyboard-response","419","234908","0.0-10.0-1.0","",""
"null","sound/msl/dog.wav","null","audio-keyboard-response","420","235428","0.0-10.0-2.0","",""
"null","sound/asl/silence.wav","null","audio-keyboard-response","421","235929","0.0-10.0-3.0","",""
"null","sound/msl/door_bell.wav","null","audio-keyboard-response","422","236437","0.0-10.0-4.0","",""
"null","sound/msl/clock.wav","null","audio-keyboard-response","423","236998","0.0-10.0-5.0","",""
"null","sound/msl/door.wav","null","audio-keyboard-response","424","237508","0.0-10.0-6.0","",""
"261","sound/asl/silence.wav","50","audio-keyboard-response","425","237770","0.0-10.0-7.0","true",""
"null","sound/msl/door_bell.wav","null","audio-keyboard-response","426","238279","0.0-11.0-0.0","",""
"null","sound/msl/clock.wav","null","audio-keyboard-response","427","238838","0.0-11.0-1.0","",""
"null","sound/msl/door.wav","null","audio-keyboard-response","428","239348","0.0-11.0-2.0","",""
"null","sound/asl/silence.wav","null","audio-keyboard-response","429","239850","0.0-11.0-3.0","",""
"null","sound/msl/cow.wav","null","audio-keyboard-response","430","240359","0.0-11.0-4.0","",""
"null","sound/msl/clock.wav","null","audio-keyboard-response","431","240919","0.0-11.0-5.0","",""
"null","sound/msl/cat.wav","null","audio-keyboard-response","432","241429","0.0-11.0-6.0","",""
"301","sound/asl/silence.wav","49","audio-keyboard-response","433","241738","0.0-11.0-7.0","true",""
"null","sound/msl/ding.wav","null","audio-keyboard-response","434","242249","0.0-12.0-0.0","",""
"null","sound/msl/boing.wav","null","audio-keyboard-response","435","242759","0.0-12.0-1.0","",""
"null","sound/msl/dog.wav","null","audio-keyboard-response","436","243279","0.0-12.0-2.0","",""
"null","sound/asl/silence.wav","null","audio-keyboard-response","437","243782","0.0-12.0-3.0","",""
"null","sound/msl/organ.wav","null","audio-keyboard-response","438","244290","0.0-12.0-4.0","",""
"null","sound/msl/frog.wav","null","audio-keyboard-response","439","244799","0.0-12.0-5.0","",""
"null","sound/msl/dog.wav","null","audio-keyboard-response","440","245319","0.0-12.0-6.0","",""
"299","sound/asl/silence.wav","50","audio-keyboard-response","441","245624","0.0-12.0-7.0","true",""
"null","sound/msl/ding.wav","null","audio-keyboard-response","442","246129","0.0-13.0-0.0","",""
"null","sound/msl/Water.wav","null","audio-keyboard-response","443","246650","0.0-13.0-1.0","",""
"null","sound/msl/cat.wav","null","audio-keyboard-response","444","247160","0.0-13.0-2.0","",""
"null","sound/asl/silence.wav","null","audio-keyboard-response","445","247662","0.0-13.0-3.0","",""
"null","sound/msl/duck.wav","null","audio-keyboard-response","446","248169","0.0-13.0-4.0","",""
"null","sound/msl/frog.wav","null","audio-keyboard-response","447","248679","0.0-13.0-5.0","",""
"null","sound/msl/goat.wav","null","audio-keyboard-response","448","249229","0.0-13.0-6.0","",""
"589","sound/asl/silence.wav","49","audio-keyboard-response","449","249829","0.0-13.0-7.0","true",""
"null","sound/msl/organ.wav","null","audio-keyboard-response","450","250339","0.0-14.0-0.0","",""
"null","sound/msl/slide_whistle.wav","null","audio-keyboard-response","451","250850","0.0-14.0-1.0","",""
"null","sound/msl/door.wav","null","audio-keyboard-response","452","251360","0.0-14.0-2.0","",""
"null","sound/asl/silence.wav","null","audio-keyboard-response","453","251861","0.0-14.0-3.0","",""
"null","sound/msl/ding.wav","null","audio-keyboard-response","454","252365","0.0-14.0-4.0","",""
"null","sound/msl/Water.wav","null","audio-keyboard-response","455","252885","0.0-14.0-5.0","",""
"null","sound/msl/cat.wav","null","audio-keyboard-response","456","253395","0.0-14.0-6.0","",""
"259","sound/asl/silence.wav","50","audio-keyboard-response","457","253662","0.0-14.0-7.0","true",""
"null","sound/msl/door_bell.wav","null","audio-keyboard-response","458","254166","0.0-15.0-0.0","",""
"null","sound/msl/clock.wav","null","audio-keyboard-response","459","254726","0.0-15.0-1.0","",""
"null","sound/msl/door.wav","null","audio-keyboard-response","460","255235","0.0-15.0-2.0","",""
"null","sound/asl/silence.wav","null","audio-keyboard-response","461","255737","0.0-15.0-3.0","",""
"null","sound/msl/organ.wav","null","audio-keyboard-response","462","256245","0.0-15.0-4.0","",""
"null","sound/msl/slide_whistle.wav","null","audio-keyboard-response","463","256755","0.0-15.0-5.0","",""
"null","sound/msl/door.wav","null","audio-keyboard-response","464","257268","0.0-15.0-6.0","",""
"229","sound/asl/silence.wav","49","audio-keyboard-response","465","257503","0.0-15.0-7.0","true",""
"null","sound/msl/organ.wav","null","audio-keyboard-response","466","258016","0.0-16.0-0.0","",""
"null","sound/msl/frog.wav","null","audio-keyboard-response","467","258526","0.0-16.0-1.0","",""
"null","sound/msl/dog.wav","null","audio-keyboard-response","468","259036","0.0-16.0-2.0","",""
"null","sound/asl/silence.wav","null","audio-keyboard-response","469","259538","0.0-16.0-3.0","",""
"null","sound/msl/organ.wav","null","audio-keyboard-response","470","260046","0.0-16.0-4.0","",""
"null","sound/msl/slide_whistle.wav","null","audio-keyboard-response","471","260556","0.0-16.0-5.0","",""
"null","sound/msl/door.wav","null","audio-keyboard-response","472","261066","0.0-16.0-6.0","",""
"291","sound/asl/silence.wav","49","audio-keyboard-response","473","261366","0.0-16.0-7.0","true",""
"null","sound/msl/duck.wav","null","audio-keyboard-response","474","261878","0.0-17.0-0.0","",""
"null","sound/msl/frog.wav","null","audio-keyboard-response","475","262397","0.0-17.0-1.0","",""
"null","sound/msl/goat.wav","null","audio-keyboard-response","476","262946","0.0-17.0-2.0","",""
"null","sound/asl/silence.wav","null","audio-keyboard-response","477","263448","0.0-17.0-3.0","",""
"null","sound/msl/door_bell.wav","null","audio-keyboard-response","478","263956","0.0-17.0-4.0","",""
"null","sound/msl/clock.wav","null","audio-keyboard-response","479","264516","0.0-17.0-5.0","",""
"null","sound/msl/door.wav","null","audio-keyboard-response","480","265027","0.0-17.0-6.0","",""
"291","sound/asl/silence.wav","49","audio-keyboard-response","481","265318","0.0-17.0-7.0","false",""
"null","sound/msl/duck.wav","null","audio-keyboard-response","482","265837","0.0-18.0-0.0","",""
"null","sound/msl/frog.wav","null","audio-keyboard-response","483","266356","0.0-18.0-1.0","",""
"null","sound/msl/goat.wav","null","audio-keyboard-response","484","266908","0.0-18.0-2.0","",""
"null","sound/asl/silence.wav","null","audio-keyboard-response","485","267412","0.0-18.0-3.0","",""
"null","sound/msl/duck.wav","null","audio-keyboard-response","486","267917","0.0-18.0-4.0","",""
"null","sound/msl/boing.wav","null","audio-keyboard-response","487","268428","0.0-18.0-5.0","",""
"null","sound/msl/bird.wav","null","audio-keyboard-response","488","268948","0.0-18.0-6.0","",""
"1360","sound/asl/silence.wav","50","audio-keyboard-response","489","270313","0.0-18.0-7.0","true",""
"null","sound/msl/ding.wav","null","audio-keyboard-response","490","270828","0.0-19.0-0.0","",""
"null","sound/msl/boing.wav","null","audio-keyboard-response","491","271337","0.0-19.0-1.0","",""
"null","sound/msl/dog.wav","null","audio-keyboard-response","492","271848","0.0-19.0-2.0","",""
"null","sound/asl/silence.wav","null","audio-keyboard-response","493","272349","0.0-19.0-3.0","",""
"null","sound/msl/duck.wav","null","audio-keyboard-response","494","272868","0.0-19.0-4.0","",""
"null","sound/msl/boing.wav","null","audio-keyboard-response","495","273378","0.0-19.0-5.0","",""
"null","sound/msl/bird.wav","null","audio-keyboard-response","496","273888","0.0-19.0-6.0","",""
"488","sound/asl/silence.wav","49","audio-keyboard-response","497","274383","0.0-19.0-7.0","false",""
"null","sound/msl/duck.wav","null","audio-keyboard-response","498","274888","0.0-20.0-0.0","",""
"null","sound/msl/frog.wav","null","audio-keyboard-response","499","275398","0.0-20.0-1.0","",""
"null","sound/msl/goat.wav","null","audio-keyboard-response","500","275948","0.0-20.0-2.0","",""
"null","sound/asl/silence.wav","null","audio-keyboard-response","501","276449","0.0-20.0-3.0","",""
"null","sound/msl/cow.wav","null","audio-keyboard-response","502","276958","0.0-20.0-4.0","",""
"null","sound/msl/slide_whistle.wav","null","audio-keyboard-response","503","277479","0.0-20.0-5.0","",""
"null","sound/msl/goat.wav","null","audio-keyboard-response","504","278029","0.0-20.0-6.0","",""
"251","sound/asl/silence.wav","50","audio-keyboard-response","505","278280","0.0-20.0-7.0","true",""
"null","sound/msl/cow.wav","null","audio-keyboard-response","506","278798","0.0-21.0-0.0","",""
"null","sound/msl/slide_whistle.wav","null","audio-keyboard-response","507","279319","0.0-21.0-1.0","",""
"null","sound/msl/goat.wav","null","audio-keyboard-response","508","279869","0.0-21.0-2.0","",""
"null","sound/asl/silence.wav","null","audio-keyboard-response","509","280371","0.0-21.0-3.0","",""
"null","sound/msl/cow.wav","null","audio-keyboard-response","510","280879","0.0-21.0-4.0","",""
"null","sound/msl/clock.wav","null","audio-keyboard-response","511","281439","0.0-21.0-5.0","",""
"null","sound/msl/cat.wav","null","audio-keyboard-response","512","281948","0.0-21.0-6.0","",""
"181","sound/asl/silence.wav","50","audio-keyboard-response","513","282133","0.0-21.0-7.0","false",""
"null","sound/msl/duck.wav","null","audio-keyboard-response","514","282639","0.0-22.0-0.0","",""
"null","sound/msl/boing.wav","null","audio-keyboard-response","515","283148","0.0-22.0-1.0","",""
"null","sound/msl/bird.wav","null","audio-keyboard-response","516","283669","0.0-22.0-2.0","",""
"null","sound/asl/silence.wav","null","audio-keyboard-response","517","284171","0.0-22.0-3.0","",""
"null","sound/msl/door_bell.wav","null","audio-keyboard-response","518","284679","0.0-22.0-4.0","",""
"null","sound/msl/Water.wav","null","audio-keyboard-response","519","285200","0.0-22.0-5.0","",""
"null","sound/msl/bird.wav","null","audio-keyboard-response","520","285720","0.0-22.0-6.0","",""
"2259","sound/asl/silence.wav","49","audio-keyboard-response","521","287980","0.0-22.0-7.0","true",""
"null","sound/msl/ding.wav","null","audio-keyboard-response","522","288490","0.0-23.0-0.0","",""
"null","sound/msl/Water.wav","null","audio-keyboard-response","523","289009","0.0-23.0-1.0","",""
"null","sound/msl/cat.wav","null","audio-keyboard-response","524","289519","0.0-23.0-2.0","",""
"null","sound/asl/silence.wav","null","audio-keyboard-response","525","290021","0.0-23.0-3.0","",""
"null","sound/msl/door_bell.wav","null","audio-keyboard-response","526","290530","0.0-23.0-4.0","",""
"null","sound/msl/Water.wav","null","audio-keyboard-response","527","291050","0.0-23.0-5.0","",""
"null","sound/msl/bird.wav","null","audio-keyboard-response","528","291560","0.0-23.0-6.0","",""
"579","sound/asl/silence.wav","49","audio-keyboard-response","529","292144","0.0-23.0-7.0","true",""
"null","sound/msl/cow.wav","null","audio-keyboard-response","530","292645","0.0-24.0-0.0","",""
"null","sound/msl/slide_whistle.wav","null","audio-keyboard-response","531","293155","0.0-24.0-1.0","",""
"null","sound/msl/goat.wav","null","audio-keyboard-response","532","293705","0.0-24.0-2.0","",""
"null","sound/asl/silence.wav","null","audio-keyboard-response","533","294206","0.0-24.0-3.0","",""
"null","sound/msl/ding.wav","null","audio-keyboard-response","534","294715","0.0-24.0-4.0","",""
"null","sound/msl/boing.wav","null","audio-keyboard-response","535","295226","0.0-24.0-5.0","",""
"null","sound/msl/dog.wav","null","audio-keyboard-response","536","295746","0.0-24.0-6.0","",""
"781","sound/asl/silence.wav","49","audio-keyboard-response","537","296534","0.0-24.0-7.0","true",""
"null","sound/msl/duck.wav","null","audio-keyboard-response","538","297036","0.0-25.0-0.0","",""
"null","sound/msl/boing.wav","null","audio-keyboard-response","539","297546","0.0-25.0-1.0","",""
"null","sound/msl/bird.wav","null","audio-keyboard-response","540","298066","0.0-25.0-2.0","",""
"null","sound/asl/silence.wav","null","audio-keyboard-response","541","298568","0.0-25.0-3.0","",""
"null","sound/msl/cow.wav","null","audio-keyboard-response","542","299076","0.0-25.0-4.0","",""
"null","sound/msl/clock.wav","null","audio-keyboard-response","543","299636","0.0-25.0-5.0","",""
"null","sound/msl/cat.wav","null","audio-keyboard-response","544","300146","0.0-25.0-6.0","",""
"141","sound/asl/silence.wav","50","audio-keyboard-response","545","300288","0.0-25.0-7.0","false",""
"null","sound/msl/door_bell.wav","null","audio-keyboard-response","546","300796","0.0-26.0-0.0","",""
"null","sound/msl/Water.wav","null","audio-keyboard-response","547","301316","0.0-26.0-1.0","",""
"null","sound/msl/bird.wav","null","audio-keyboard-response","548","301837","0.0-26.0-2.0","",""
"null","sound/asl/silence.wav","null","audio-keyboard-response","549","302338","0.0-26.0-3.0","",""
"null","sound/msl/cow.wav","null","audio-keyboard-response","550","302847","0.0-26.0-4.0","",""
"null","sound/msl/slide_whistle.wav","null","audio-keyboard-response","551","303357","0.0-26.0-5.0","",""
"null","sound/msl/goat.wav","null","audio-keyboard-response","552","303907","0.0-26.0-6.0","",""
"341","sound/asl/silence.wav","49","audio-keyboard-response","553","304254","0.0-26.0-7.0","false",""
"null","sound/msl/organ.wav","null","audio-keyboard-response","554","304757","0.0-27.0-0.0","",""
"null","sound/msl/slide_whistle.wav","null","audio-keyboard-response","555","305277","0.0-27.0-1.0","",""
"null","sound/msl/door.wav","null","audio-keyboard-response","556","305787","0.0-27.0-2.0","",""
"null","sound/asl/silence.wav","null","audio-keyboard-response","557","306288","0.0-27.0-3.0","",""
"null","sound/msl/duck.wav","null","audio-keyboard-response","558","306797","0.0-27.0-4.0","",""
"null","sound/msl/boing.wav","null","audio-keyboard-response","559","307307","0.0-27.0-5.0","",""
"null","sound/msl/bird.wav","null","audio-keyboard-response","560","307828","0.0-27.0-6.0","",""
"1080","sound/asl/silence.wav","50","audio-keyboard-response","561","308908","0.0-27.0-7.0","true",""
"3325","","","instructions","562","312235","0.0-28.0","","[{""page_index"":0,""viewing_time"":3325}]"
