"rt","stimulus","key_press","trial_type","trial_index","time_elapsed","internal_node_id","correct","view_history"
"11386","alien.jpg","49","image-keyboard-response","0","11388","0.0-0.0","",""
"null","sound/msl/slide_whistle.wav","null","audio-keyboard-response","1","11942","0.0-1.0-0.0","",""
"null","sound/msl/boing.wav","null","audio-keyboard-response","2","12452","0.0-1.0-1.0","",""
"null","sound/msl/ding.wav","null","audio-keyboard-response","3","12974","0.0-1.0-2.0","",""
"null","sound/msl/duck.wav","null","audio-keyboard-response","4","13494","0.0-1.0-3.0","",""
"null","sound/msl/cow.wav","null","audio-keyboard-response","5","14011","0.0-1.0-4.0","",""
"null","sound/msl/goat.wav","null","audio-keyboard-response","6","14560","0.0-1.0-5.0","",""
"null","sound/msl/bird.wav","null","audio-keyboard-response","7","15073","0.0-1.0-6.0","",""
"null","sound/msl/door_bell.wav","null","audio-keyboard-response","8","15582","0.0-1.0-7.0","",""
"null","sound/msl/frog.wav","null","audio-keyboard-response","9","16103","0.0-1.0-8.0","",""
"null","sound/msl/Water.wav","null","audio-keyboard-response","10","16622","0.0-1.0-9.0","",""
"null","sound/msl/dog.wav","null","audio-keyboard-response","11","17144","0.0-1.0-10.0","",""
"null","sound/msl/organ.wav","null","audio-keyboard-response","12","17651","0.0-1.0-11.0","",""
"null","sound/msl/duck.wav","null","audio-keyboard-response","13","18171","0.0-1.0-12.0","",""
"null","sound/msl/cow.wav","null","audio-keyboard-response","14","18691","0.0-1.0-13.0","",""
"null","sound/msl/goat.wav","null","audio-keyboard-response","15","19243","0.0-1.0-14.0","",""
"null","sound/msl/slide_whistle.wav","null","audio-keyboard-response","16","19752","0.0-1.0-15.0","",""
"null","sound/msl/boing.wav","null","audio-keyboard-response","17","20263","0.0-1.0-16.0","",""
"null","sound/msl/ding.wav","null","audio-keyboard-response","18","20782","0.0-1.0-17.0","",""
"null","sound/msl/door.wav","null","audio-keyboard-response","19","21293","0.0-1.0-18.0","",""
"null","sound/msl/cat.wav","null","audio-keyboard-response","20","21800","0.0-1.0-19.0","",""
"null","sound/msl/clock.wav","null","audio-keyboard-response","21","22364","0.0-1.0-20.0","",""
"null","sound/msl/Water.wav","null","audio-keyboard-response","22","22883","0.0-1.0-21.0","",""
"null","sound/msl/dog.wav","null","audio-keyboard-response","23","23393","0.0-1.0-22.0","",""
"null","sound/msl/organ.wav","null","audio-keyboard-response","24","23901","0.0-1.0-23.0","",""
"null","sound/msl/bird.wav","null","audio-keyboard-response","25","24421","0.0-1.0-24.0","",""
"null","sound/msl/door_bell.wav","null","audio-keyboard-response","26","24943","0.0-1.0-25.0","",""
"null","sound/msl/frog.wav","null","audio-keyboard-response","27","25464","0.0-1.0-26.0","",""
"null","sound/msl/slide_whistle.wav","null","audio-keyboard-response","28","25982","0.0-1.0-27.0","",""
"null","sound/msl/boing.wav","null","audio-keyboard-response","29","26491","0.0-1.0-28.0","",""
"null","sound/msl/ding.wav","null","audio-keyboard-response","30","27013","0.0-1.0-29.0","",""
"null","sound/msl/duck.wav","null","audio-keyboard-response","31","27531","0.0-1.0-30.0","",""
"null","sound/msl/cow.wav","null","audio-keyboard-response","32","28051","0.0-1.0-31.0","",""
"null","sound/msl/goat.wav","null","audio-keyboard-response","33","28604","0.0-1.0-32.0","",""
"null","sound/msl/door.wav","null","audio-keyboard-response","34","29114","0.0-1.0-33.0","",""
"null","sound/msl/cat.wav","null","audio-keyboard-response","35","29621","0.0-1.0-34.0","",""
"null","sound/msl/clock.wav","null","audio-keyboard-response","36","30181","0.0-1.0-35.0","",""
"null","sound/msl/bird.wav","null","audio-keyboard-response","37","30701","0.0-1.0-36.0","",""
"null","sound/msl/door_bell.wav","null","audio-keyboard-response","38","31221","0.0-1.0-37.0","",""
"null","sound/msl/frog.wav","null","audio-keyboard-response","39","31744","0.0-1.0-38.0","",""
"null","sound/msl/Water.wav","null","audio-keyboard-response","40","32263","0.0-1.0-39.0","",""
"null","sound/msl/dog.wav","null","audio-keyboard-response","41","32781","0.0-1.0-40.0","",""
"null","sound/msl/organ.wav","null","audio-keyboard-response","42","33291","0.0-1.0-41.0","",""
"null","sound/msl/door.wav","null","audio-keyboard-response","43","33800","0.0-1.0-42.0","",""
"null","sound/msl/cat.wav","null","audio-keyboard-response","44","34311","0.0-1.0-43.0","",""
"null","sound/msl/clock.wav","null","audio-keyboard-response","45","34870","0.0-1.0-44.0","",""
"null","sound/msl/duck.wav","null","audio-keyboard-response","46","35381","0.0-1.0-45.0","",""
"null","sound/msl/cow.wav","null","audio-keyboard-response","47","35901","0.0-1.0-46.0","",""
"null","sound/msl/goat.wav","null","audio-keyboard-response","48","36451","0.0-1.0-47.0","",""
"null","sound/msl/bird.wav","null","audio-keyboard-response","49","36971","0.0-1.0-48.0","",""
"null","sound/msl/door_bell.wav","null","audio-keyboard-response","50","37494","0.0-1.0-49.0","",""
"null","sound/msl/frog.wav","null","audio-keyboard-response","51","38011","0.0-1.0-50.0","",""
"null","sound/msl/slide_whistle.wav","null","audio-keyboard-response","52","38533","0.0-1.0-51.0","",""
"null","sound/msl/boing.wav","null","audio-keyboard-response","53","39043","0.0-1.0-52.0","",""
"null","sound/msl/ding.wav","null","audio-keyboard-response","54","39553","0.0-1.0-53.0","",""
"null","sound/msl/duck.wav","null","audio-keyboard-response","55","40063","0.0-1.0-54.0","",""
"null","sound/msl/cow.wav","null","audio-keyboard-response","56","40584","0.0-1.0-55.0","",""
"null","sound/msl/goat.wav","null","audio-keyboard-response","57","41131","0.0-1.0-56.0","",""
"null","sound/msl/bird.wav","null","audio-keyboard-response","58","41653","0.0-1.0-57.0","",""
"null","sound/msl/door_bell.wav","null","audio-keyboard-response","59","42172","0.0-1.0-58.0","",""
"null","sound/msl/frog.wav","null","audio-keyboard-response","60","42691","0.0-1.0-59.0","",""
"null","sound/msl/Water.wav","null","audio-keyboard-response","61","43211","0.0-1.0-60.0","",""
"null","sound/msl/dog.wav","null","audio-keyboard-response","62","43731","0.0-1.0-61.0","",""
"null","sound/msl/organ.wav","null","audio-keyboard-response","63","44243","0.0-1.0-62.0","",""
"null","sound/msl/door.wav","null","audio-keyboard-response","64","44751","0.0-1.0-63.0","",""
"null","sound/msl/cat.wav","null","audio-keyboard-response","65","45260","0.0-1.0-64.0","",""
"null","sound/msl/clock.wav","null","audio-keyboard-response","66","45823","0.0-1.0-65.0","",""
"null","sound/msl/duck.wav","null","audio-keyboard-response","67","46343","0.0-1.0-66.0","",""
"null","sound/msl/cow.wav","null","audio-keyboard-response","68","46863","0.0-1.0-67.0","",""
"null","sound/msl/goat.wav","null","audio-keyboard-response","69","47410","0.0-1.0-68.0","",""
"null","sound/msl/slide_whistle.wav","null","audio-keyboard-response","70","47931","0.0-1.0-69.0","",""
"null","sound/msl/boing.wav","null","audio-keyboard-response","71","48443","0.0-1.0-70.0","",""
"null","sound/msl/ding.wav","null","audio-keyboard-response","72","48952","0.0-1.0-71.0","",""
"null","sound/msl/bird.wav","null","audio-keyboard-response","73","49460","0.0-1.0-72.0","",""
"null","sound/msl/door_bell.wav","null","audio-keyboard-response","74","49981","0.0-1.0-73.0","",""
"null","sound/msl/frog.wav","null","audio-keyboard-response","75","50503","0.0-1.0-74.0","",""
"null","sound/msl/Water.wav","null","audio-keyboard-response","76","51021","0.0-1.0-75.0","",""
"null","sound/msl/dog.wav","null","audio-keyboard-response","77","51544","0.0-1.0-76.0","",""
"null","sound/msl/organ.wav","null","audio-keyboard-response","78","52051","0.0-1.0-77.0","",""
"null","sound/msl/bird.wav","null","audio-keyboard-response","79","52571","0.0-1.0-78.0","",""
"null","sound/msl/door_bell.wav","null","audio-keyboard-response","80","53091","0.0-1.0-79.0","",""
"null","sound/msl/frog.wav","null","audio-keyboard-response","81","53611","0.0-1.0-80.0","",""
"null","sound/msl/door.wav","null","audio-keyboard-response","82","54121","0.0-1.0-81.0","",""
"null","sound/msl/cat.wav","null","audio-keyboard-response","83","54631","0.0-1.0-82.0","",""
"null","sound/msl/clock.wav","null","audio-keyboard-response","84","55191","0.0-1.0-83.0","",""
"null","sound/msl/slide_whistle.wav","null","audio-keyboard-response","85","55701","0.0-1.0-84.0","",""
"null","sound/msl/boing.wav","null","audio-keyboard-response","86","56211","0.0-1.0-85.0","",""
"null","sound/msl/ding.wav","null","audio-keyboard-response","87","56731","0.0-1.0-86.0","",""
"null","sound/msl/duck.wav","null","audio-keyboard-response","88","57251","0.0-1.0-87.0","",""
"null","sound/msl/cow.wav","null","audio-keyboard-response","89","57771","0.0-1.0-88.0","",""
"null","sound/msl/goat.wav","null","audio-keyboard-response","90","58320","0.0-1.0-89.0","",""
"null","sound/msl/door.wav","null","audio-keyboard-response","91","58831","0.0-1.0-90.0","",""
"null","sound/msl/cat.wav","null","audio-keyboard-response","92","59342","0.0-1.0-91.0","",""
"null","sound/msl/clock.wav","null","audio-keyboard-response","93","59901","0.0-1.0-92.0","",""
"null","sound/msl/Water.wav","null","audio-keyboard-response","94","60421","0.0-1.0-93.0","",""
"null","sound/msl/dog.wav","null","audio-keyboard-response","95","60943","0.0-1.0-94.0","",""
"null","sound/msl/organ.wav","null","audio-keyboard-response","96","61453","0.0-1.0-95.0","",""
"null","sound/msl/bird.wav","null","audio-keyboard-response","97","61974","0.0-1.0-96.0","",""
"null","sound/msl/door_bell.wav","null","audio-keyboard-response","98","62490","0.0-1.0-97.0","",""
"null","sound/msl/frog.wav","null","audio-keyboard-response","99","63011","0.0-1.0-98.0","",""
"null","sound/msl/duck.wav","null","audio-keyboard-response","100","63531","0.0-1.0-99.0","",""
"null","sound/msl/cow.wav","null","audio-keyboard-response","101","64051","0.0-1.0-100.0","",""
"null","sound/msl/goat.wav","null","audio-keyboard-response","102","64604","0.0-1.0-101.0","",""
"null","sound/msl/door.wav","null","audio-keyboard-response","103","65110","0.0-1.0-102.0","",""
"null","sound/msl/cat.wav","null","audio-keyboard-response","104","65620","0.0-1.0-103.0","",""
"null","sound/msl/clock.wav","null","audio-keyboard-response","105","66181","0.0-1.0-104.0","",""
"null","sound/msl/slide_whistle.wav","null","audio-keyboard-response","106","66703","0.0-1.0-105.0","",""
"null","sound/msl/boing.wav","null","audio-keyboard-response","107","67213","0.0-1.0-106.0","",""
"null","sound/msl/ding.wav","null","audio-keyboard-response","108","67734","0.0-1.0-107.0","",""
"null","sound/msl/duck.wav","null","audio-keyboard-response","109","68251","0.0-1.0-108.0","",""
"null","sound/msl/cow.wav","null","audio-keyboard-response","110","68771","0.0-1.0-109.0","",""
"null","sound/msl/goat.wav","null","audio-keyboard-response","111","69321","0.0-1.0-110.0","",""
"null","sound/msl/Water.wav","null","audio-keyboard-response","112","69842","0.0-1.0-111.0","",""
"null","sound/msl/dog.wav","null","audio-keyboard-response","113","70353","0.0-1.0-112.0","",""
"null","sound/msl/organ.wav","null","audio-keyboard-response","114","70864","0.0-1.0-113.0","",""
"null","sound/msl/door.wav","null","audio-keyboard-response","115","71371","0.0-1.0-114.0","",""
"null","sound/msl/cat.wav","null","audio-keyboard-response","116","71881","0.0-1.0-115.0","",""
"null","sound/msl/clock.wav","null","audio-keyboard-response","117","72443","0.0-1.0-116.0","",""
"null","sound/msl/bird.wav","null","audio-keyboard-response","118","72952","0.0-1.0-117.0","",""
"null","sound/msl/door_bell.wav","null","audio-keyboard-response","119","73463","0.0-1.0-118.0","",""
"null","sound/msl/frog.wav","null","audio-keyboard-response","120","73981","0.0-1.0-119.0","",""
"null","sound/msl/slide_whistle.wav","null","audio-keyboard-response","121","74501","0.0-1.0-120.0","",""
"null","sound/msl/boing.wav","null","audio-keyboard-response","122","75011","0.0-1.0-121.0","",""
"null","sound/msl/ding.wav","null","audio-keyboard-response","123","75534","0.0-1.0-122.0","",""
"null","sound/msl/duck.wav","null","audio-keyboard-response","124","76053","0.0-1.0-123.0","",""
"null","sound/msl/cow.wav","null","audio-keyboard-response","125","76572","0.0-1.0-124.0","",""
"null","sound/msl/goat.wav","null","audio-keyboard-response","126","77124","0.0-1.0-125.0","",""
"null","sound/msl/door.wav","null","audio-keyboard-response","127","77631","0.0-1.0-126.0","",""
"null","sound/msl/cat.wav","null","audio-keyboard-response","128","78144","0.0-1.0-127.0","",""
"null","sound/msl/clock.wav","null","audio-keyboard-response","129","78703","0.0-1.0-128.0","",""
"null","sound/msl/Water.wav","null","audio-keyboard-response","130","79223","0.0-1.0-129.0","",""
"null","sound/msl/dog.wav","null","audio-keyboard-response","131","79741","0.0-1.0-130.0","",""
"null","sound/msl/organ.wav","null","audio-keyboard-response","132","80251","0.0-1.0-131.0","",""
"null","sound/msl/duck.wav","null","audio-keyboard-response","133","80770","0.0-1.0-132.0","",""
"null","sound/msl/cow.wav","null","audio-keyboard-response","134","81291","0.0-1.0-133.0","",""
"null","sound/msl/goat.wav","null","audio-keyboard-response","135","81841","0.0-1.0-134.0","",""
"null","sound/msl/bird.wav","null","audio-keyboard-response","136","82351","0.0-1.0-135.0","",""
"null","sound/msl/door_bell.wav","null","audio-keyboard-response","137","82861","0.0-1.0-136.0","",""
"null","sound/msl/frog.wav","null","audio-keyboard-response","138","83381","0.0-1.0-137.0","",""
"null","sound/msl/Water.wav","null","audio-keyboard-response","139","83901","0.0-1.0-138.0","",""
"null","sound/msl/dog.wav","null","audio-keyboard-response","140","84421","0.0-1.0-139.0","",""
"null","sound/msl/organ.wav","null","audio-keyboard-response","141","84930","0.0-1.0-140.0","",""
"null","sound/msl/slide_whistle.wav","null","audio-keyboard-response","142","85453","0.0-1.0-141.0","",""
"null","sound/msl/boing.wav","null","audio-keyboard-response","143","85963","0.0-1.0-142.0","",""
"null","sound/msl/ding.wav","null","audio-keyboard-response","144","86471","0.0-1.0-143.0","",""
"null","sound/msl/door.wav","null","audio-keyboard-response","145","86983","0.0-1.0-144.0","",""
"null","sound/msl/cat.wav","null","audio-keyboard-response","146","87491","0.0-1.0-145.0","",""
"null","sound/msl/clock.wav","null","audio-keyboard-response","147","88050","0.0-1.0-146.0","",""
"null","sound/msl/bird.wav","null","audio-keyboard-response","148","88573","0.0-1.0-147.0","",""
"null","sound/msl/door_bell.wav","null","audio-keyboard-response","149","89090","0.0-1.0-148.0","",""
"null","sound/msl/frog.wav","null","audio-keyboard-response","150","89611","0.0-1.0-149.0","",""
"null","sound/msl/slide_whistle.wav","null","audio-keyboard-response","151","90131","0.0-1.0-150.0","",""
"null","sound/msl/boing.wav","null","audio-keyboard-response","152","90641","0.0-1.0-151.0","",""
"null","sound/msl/ding.wav","null","audio-keyboard-response","153","91154","0.0-1.0-152.0","",""
"null","sound/msl/duck.wav","null","audio-keyboard-response","154","91661","0.0-1.0-153.0","",""
"null","sound/msl/cow.wav","null","audio-keyboard-response","155","92181","0.0-1.0-154.0","",""
"null","sound/msl/goat.wav","null","audio-keyboard-response","156","92733","0.0-1.0-155.0","",""
"null","sound/msl/Water.wav","null","audio-keyboard-response","157","93253","0.0-1.0-156.0","",""
"null","sound/msl/dog.wav","null","audio-keyboard-response","158","93772","0.0-1.0-157.0","",""
"null","sound/msl/organ.wav","null","audio-keyboard-response","159","94280","0.0-1.0-158.0","",""
"null","sound/msl/door.wav","null","audio-keyboard-response","160","94791","0.0-1.0-159.0","",""
"null","sound/msl/cat.wav","null","audio-keyboard-response","161","95301","0.0-1.0-160.0","",""
"null","sound/msl/clock.wav","null","audio-keyboard-response","162","95861","0.0-1.0-161.0","",""
"null","sound/msl/duck.wav","null","audio-keyboard-response","163","96383","0.0-1.0-162.0","",""
"null","sound/msl/cow.wav","null","audio-keyboard-response","164","96901","0.0-1.0-163.0","",""
"null","sound/msl/goat.wav","null","audio-keyboard-response","165","97453","0.0-1.0-164.0","",""
"null","sound/msl/Water.wav","null","audio-keyboard-response","166","97973","0.0-1.0-165.0","",""
"null","sound/msl/dog.wav","null","audio-keyboard-response","167","98491","0.0-1.0-166.0","",""
"null","sound/msl/organ.wav","null","audio-keyboard-response","168","99003","0.0-1.0-167.0","",""
"null","sound/msl/slide_whistle.wav","null","audio-keyboard-response","169","99512","0.0-1.0-168.0","",""
"null","sound/msl/boing.wav","null","audio-keyboard-response","170","100021","0.0-1.0-169.0","",""
"null","sound/msl/ding.wav","null","audio-keyboard-response","171","100543","0.0-1.0-170.0","",""
"null","sound/msl/bird.wav","null","audio-keyboard-response","172","101061","0.0-1.0-171.0","",""
"null","sound/msl/door_bell.wav","null","audio-keyboard-response","173","101581","0.0-1.0-172.0","",""
"null","sound/msl/frog.wav","null","audio-keyboard-response","174","102101","0.0-1.0-173.0","",""
"null","sound/msl/door.wav","null","audio-keyboard-response","175","102611","0.0-1.0-174.0","",""
"null","sound/msl/cat.wav","null","audio-keyboard-response","176","103123","0.0-1.0-175.0","",""
"null","sound/msl/clock.wav","null","audio-keyboard-response","177","103684","0.0-1.0-176.0","",""
"null","sound/msl/duck.wav","null","audio-keyboard-response","178","104192","0.0-1.0-177.0","",""
"null","sound/msl/cow.wav","null","audio-keyboard-response","179","104701","0.0-1.0-178.0","",""
"null","sound/msl/goat.wav","null","audio-keyboard-response","180","105251","0.0-1.0-179.0","",""
"null","sound/msl/bird.wav","null","audio-keyboard-response","181","105773","0.0-1.0-180.0","",""
"null","sound/msl/door_bell.wav","null","audio-keyboard-response","182","106291","0.0-1.0-181.0","",""
"null","sound/msl/frog.wav","null","audio-keyboard-response","183","106811","0.0-1.0-182.0","",""
"null","sound/msl/Water.wav","null","audio-keyboard-response","184","107331","0.0-1.0-183.0","",""
"null","sound/msl/dog.wav","null","audio-keyboard-response","185","107851","0.0-1.0-184.0","",""
"null","sound/msl/organ.wav","null","audio-keyboard-response","186","108364","0.0-1.0-185.0","",""
"null","sound/msl/slide_whistle.wav","null","audio-keyboard-response","187","108873","0.0-1.0-186.0","",""
"null","sound/msl/boing.wav","null","audio-keyboard-response","188","109381","0.0-1.0-187.0","",""
"null","sound/msl/ding.wav","null","audio-keyboard-response","189","109902","0.0-1.0-188.0","",""
"null","sound/msl/door.wav","null","audio-keyboard-response","190","110413","0.0-1.0-189.0","",""
"null","sound/msl/cat.wav","null","audio-keyboard-response","191","110924","0.0-1.0-190.0","",""
"null","sound/msl/clock.wav","null","audio-keyboard-response","192","111481","0.0-1.0-191.0","",""
"null","sound/msl/duck.wav","null","audio-keyboard-response","193","111991","0.0-1.0-192.0","",""
"null","sound/msl/cow.wav","null","audio-keyboard-response","194","112503","0.0-1.0-193.0","",""
"null","sound/msl/goat.wav","null","audio-keyboard-response","195","113054","0.0-1.0-194.0","",""
"null","sound/msl/bird.wav","null","audio-keyboard-response","196","113571","0.0-1.0-195.0","",""
"null","sound/msl/door_bell.wav","null","audio-keyboard-response","197","114091","0.0-1.0-196.0","",""
"null","sound/msl/frog.wav","null","audio-keyboard-response","198","114611","0.0-1.0-197.0","",""
"null","sound/msl/slide_whistle.wav","null","audio-keyboard-response","199","115133","0.0-1.0-198.0","",""
"null","sound/msl/boing.wav","null","audio-keyboard-response","200","115642","0.0-1.0-199.0","",""
"null","sound/msl/ding.wav","null","audio-keyboard-response","201","116151","0.0-1.0-200.0","",""
"null","sound/msl/Water.wav","null","audio-keyboard-response","202","116673","0.0-1.0-201.0","",""
"null","sound/msl/dog.wav","null","audio-keyboard-response","203","117183","0.0-1.0-202.0","",""
"null","sound/msl/organ.wav","null","audio-keyboard-response","204","117692","0.0-1.0-203.0","",""
"null","sound/msl/door.wav","null","audio-keyboard-response","205","118201","0.0-1.0-204.0","",""
"null","sound/msl/cat.wav","null","audio-keyboard-response","206","118714","0.0-1.0-205.0","",""
"null","sound/msl/clock.wav","null","audio-keyboard-response","207","119276","0.0-1.0-206.0","",""
"null","sound/msl/duck.wav","null","audio-keyboard-response","208","119781","0.0-1.0-207.0","",""
"null","sound/msl/cow.wav","null","audio-keyboard-response","209","120301","0.0-1.0-208.0","",""
"null","sound/msl/goat.wav","null","audio-keyboard-response","210","120851","0.0-1.0-209.0","",""
"null","sound/msl/slide_whistle.wav","null","audio-keyboard-response","211","121371","0.0-1.0-210.0","",""
"null","sound/msl/boing.wav","null","audio-keyboard-response","212","121883","0.0-1.0-211.0","",""
"null","sound/msl/ding.wav","null","audio-keyboard-response","213","122390","0.0-1.0-212.0","",""
"null","sound/msl/door.wav","null","audio-keyboard-response","214","122904","0.0-1.0-213.0","",""
"null","sound/msl/cat.wav","null","audio-keyboard-response","215","123412","0.0-1.0-214.0","",""
"null","sound/msl/clock.wav","null","audio-keyboard-response","216","123971","0.0-1.0-215.0","",""
"null","sound/msl/bird.wav","null","audio-keyboard-response","217","124494","0.0-1.0-216.0","",""
"null","sound/msl/door_bell.wav","null","audio-keyboard-response","218","125011","0.0-1.0-217.0","",""
"null","sound/msl/frog.wav","null","audio-keyboard-response","219","125530","0.0-1.0-218.0","",""
"null","sound/msl/Water.wav","null","audio-keyboard-response","220","126051","0.0-1.0-219.0","",""
"null","sound/msl/dog.wav","null","audio-keyboard-response","221","126571","0.0-1.0-220.0","",""
"null","sound/msl/organ.wav","null","audio-keyboard-response","222","127081","0.0-1.0-221.0","",""
"null","sound/msl/duck.wav","null","audio-keyboard-response","223","127594","0.0-1.0-222.0","",""
"null","sound/msl/cow.wav","null","audio-keyboard-response","224","128101","0.0-1.0-223.0","",""
"null","sound/msl/goat.wav","null","audio-keyboard-response","225","128652","0.0-1.0-224.0","",""
"null","sound/msl/bird.wav","null","audio-keyboard-response","226","129171","0.0-1.0-225.0","",""
"null","sound/msl/door_bell.wav","null","audio-keyboard-response","227","129693","0.0-1.0-226.0","",""
"null","sound/msl/frog.wav","null","audio-keyboard-response","228","130214","0.0-1.0-227.0","",""
"null","sound/msl/door.wav","null","audio-keyboard-response","229","130721","0.0-1.0-228.0","",""
"null","sound/msl/cat.wav","null","audio-keyboard-response","230","131234","0.0-1.0-229.0","",""
"null","sound/msl/clock.wav","null","audio-keyboard-response","231","131791","0.0-1.0-230.0","",""
"null","sound/msl/bird.wav","null","audio-keyboard-response","232","132300","0.0-1.0-231.0","",""
"null","sound/msl/door_bell.wav","null","audio-keyboard-response","233","132823","0.0-1.0-232.0","",""
"null","sound/msl/frog.wav","null","audio-keyboard-response","234","133343","0.0-1.0-233.0","",""
"null","sound/msl/duck.wav","null","audio-keyboard-response","235","133863","0.0-1.0-234.0","",""
"null","sound/msl/cow.wav","null","audio-keyboard-response","236","134384","0.0-1.0-235.0","",""
"null","sound/msl/goat.wav","null","audio-keyboard-response","237","134931","0.0-1.0-236.0","",""
"null","sound/msl/Water.wav","null","audio-keyboard-response","238","135451","0.0-1.0-237.0","",""
"null","sound/msl/dog.wav","null","audio-keyboard-response","239","135971","0.0-1.0-238.0","",""
"null","sound/msl/organ.wav","null","audio-keyboard-response","240","136481","0.0-1.0-239.0","",""
"null","sound/msl/slide_whistle.wav","null","audio-keyboard-response","241","136991","0.0-1.0-240.0","",""
"null","sound/msl/boing.wav","null","audio-keyboard-response","242","137503","0.0-1.0-241.0","",""
"null","sound/msl/ding.wav","null","audio-keyboard-response","243","138021","0.0-1.0-242.0","",""
"null","sound/msl/door.wav","null","audio-keyboard-response","244","138533","0.0-1.0-243.0","",""
"null","sound/msl/cat.wav","null","audio-keyboard-response","245","139042","0.0-1.0-244.0","",""
"null","sound/msl/clock.wav","null","audio-keyboard-response","246","139603","0.0-1.0-245.0","",""
"null","sound/msl/duck.wav","null","audio-keyboard-response","247","140111","0.0-1.0-246.0","",""
"null","sound/msl/cow.wav","null","audio-keyboard-response","248","140621","0.0-1.0-247.0","",""
"null","sound/msl/goat.wav","null","audio-keyboard-response","249","141174","0.0-1.0-248.0","",""
"null","sound/msl/Water.wav","null","audio-keyboard-response","250","141691","0.0-1.0-249.0","",""
"null","sound/msl/dog.wav","null","audio-keyboard-response","251","142211","0.0-1.0-250.0","",""
"null","sound/msl/organ.wav","null","audio-keyboard-response","252","142722","0.0-1.0-251.0","",""
"null","sound/msl/slide_whistle.wav","null","audio-keyboard-response","253","143233","0.0-1.0-252.0","",""
"null","sound/msl/boing.wav","null","audio-keyboard-response","254","143744","0.0-1.0-253.0","",""
"null","sound/msl/ding.wav","null","audio-keyboard-response","255","144264","0.0-1.0-254.0","",""
"null","sound/msl/bird.wav","null","audio-keyboard-response","256","144780","0.0-1.0-255.0","",""
"null","sound/msl/door_bell.wav","null","audio-keyboard-response","257","145303","0.0-1.0-256.0","",""
"null","sound/msl/frog.wav","null","audio-keyboard-response","258","145821","0.0-1.0-257.0","",""
"null","sound/msl/door.wav","null","audio-keyboard-response","259","146330","0.0-1.0-258.0","",""
"null","sound/msl/cat.wav","null","audio-keyboard-response","260","146844","0.0-1.0-259.0","",""
"null","sound/msl/clock.wav","null","audio-keyboard-response","261","147403","0.0-1.0-260.0","",""
"null","sound/msl/slide_whistle.wav","null","audio-keyboard-response","262","147911","0.0-1.0-261.0","",""
"null","sound/msl/boing.wav","null","audio-keyboard-response","263","148424","0.0-1.0-262.0","",""
"null","sound/msl/ding.wav","null","audio-keyboard-response","264","148940","0.0-1.0-263.0","",""
"null","sound/msl/Water.wav","null","audio-keyboard-response","265","149461","0.0-1.0-264.0","",""
"null","sound/msl/dog.wav","null","audio-keyboard-response","266","149981","0.0-1.0-265.0","",""
"null","sound/msl/organ.wav","null","audio-keyboard-response","267","150493","0.0-1.0-266.0","",""
"null","sound/msl/bird.wav","null","audio-keyboard-response","268","151012","0.0-1.0-267.0","",""
"null","sound/msl/door_bell.wav","null","audio-keyboard-response","269","151531","0.0-1.0-268.0","",""
"null","sound/msl/frog.wav","null","audio-keyboard-response","270","152053","0.0-1.0-269.0","",""
"null","sound/msl/duck.wav","null","audio-keyboard-response","271","152573","0.0-1.0-270.0","",""
"null","sound/msl/cow.wav","null","audio-keyboard-response","272","153094","0.0-1.0-271.0","",""
"null","sound/msl/goat.wav","null","audio-keyboard-response","273","153641","0.0-1.0-272.0","",""
"null","sound/msl/door.wav","null","audio-keyboard-response","274","154153","0.0-1.0-273.0","",""
"null","sound/msl/cat.wav","null","audio-keyboard-response","275","154661","0.0-1.0-274.0","",""
"null","sound/msl/clock.wav","null","audio-keyboard-response","276","155221","0.0-1.0-275.0","",""
"null","sound/msl/slide_whistle.wav","null","audio-keyboard-response","277","155743","0.0-1.0-276.0","",""
"null","sound/msl/boing.wav","null","audio-keyboard-response","278","156253","0.0-1.0-277.0","",""
"null","sound/msl/ding.wav","null","audio-keyboard-response","279","156773","0.0-1.0-278.0","",""
"null","sound/msl/Water.wav","null","audio-keyboard-response","280","157292","0.0-1.0-279.0","",""
"null","sound/msl/dog.wav","null","audio-keyboard-response","281","157814","0.0-1.0-280.0","",""
"null","sound/msl/organ.wav","null","audio-keyboard-response","282","158320","0.0-1.0-281.0","",""
"null","sound/msl/duck.wav","null","audio-keyboard-response","283","158831","0.0-1.0-282.0","",""
"null","sound/msl/cow.wav","null","audio-keyboard-response","284","159343","0.0-1.0-283.0","",""
"null","sound/msl/goat.wav","null","audio-keyboard-response","285","159893","0.0-1.0-284.0","",""
"null","sound/msl/bird.wav","null","audio-keyboard-response","286","160411","0.0-1.0-285.0","",""
"null","sound/msl/door_bell.wav","null","audio-keyboard-response","287","160931","0.0-1.0-286.0","",""
"null","sound/msl/frog.wav","null","audio-keyboard-response","288","161453","0.0-1.0-287.0","",""
"null","sound/msl/door.wav","null","audio-keyboard-response","289","161964","0.0-1.0-288.0","",""
"null","sound/msl/cat.wav","null","audio-keyboard-response","290","162473","0.0-1.0-289.0","",""
"null","sound/msl/clock.wav","null","audio-keyboard-response","291","163031","0.0-1.0-290.0","",""
"null","sound/msl/Water.wav","null","audio-keyboard-response","292","163553","0.0-1.0-291.0","",""
"null","sound/msl/dog.wav","null","audio-keyboard-response","293","164061","0.0-1.0-292.0","",""
"null","sound/msl/organ.wav","null","audio-keyboard-response","294","164574","0.0-1.0-293.0","",""
"null","sound/msl/slide_whistle.wav","null","audio-keyboard-response","295","165091","0.0-1.0-294.0","",""
"null","sound/msl/boing.wav","null","audio-keyboard-response","296","165601","0.0-1.0-295.0","",""
"null","sound/msl/ding.wav","null","audio-keyboard-response","297","166111","0.0-1.0-296.0","",""
"null","sound/msl/door.wav","null","audio-keyboard-response","298","166620","0.0-1.0-297.0","",""
"null","sound/msl/cat.wav","null","audio-keyboard-response","299","167131","0.0-1.0-298.0","",""
"null","sound/msl/clock.wav","null","audio-keyboard-response","300","167691","0.0-1.0-299.0","",""
"null","sound/msl/duck.wav","null","audio-keyboard-response","301","168213","0.0-1.0-300.0","",""
"null","sound/msl/cow.wav","null","audio-keyboard-response","302","168732","0.0-1.0-301.0","",""
"null","sound/msl/goat.wav","null","audio-keyboard-response","303","169283","0.0-1.0-302.0","",""
"null","sound/msl/Water.wav","null","audio-keyboard-response","304","169801","0.0-1.0-303.0","",""
"null","sound/msl/dog.wav","null","audio-keyboard-response","305","170311","0.0-1.0-304.0","",""
"null","sound/msl/organ.wav","null","audio-keyboard-response","306","170821","0.0-1.0-305.0","",""
"null","sound/msl/bird.wav","null","audio-keyboard-response","307","171341","0.0-1.0-306.0","",""
"null","sound/msl/door_bell.wav","null","audio-keyboard-response","308","171861","0.0-1.0-307.0","",""
"null","sound/msl/frog.wav","null","audio-keyboard-response","309","172381","0.0-1.0-308.0","",""
"null","sound/msl/slide_whistle.wav","null","audio-keyboard-response","310","172901","0.0-1.0-309.0","",""
"null","sound/msl/boing.wav","null","audio-keyboard-response","311","173411","0.0-1.0-310.0","",""
"null","sound/msl/ding.wav","null","audio-keyboard-response","312","173933","0.0-1.0-311.0","",""
"null","sound/msl/door.wav","null","audio-keyboard-response","313","174441","0.0-1.0-312.0","",""
"null","sound/msl/cat.wav","null","audio-keyboard-response","314","174951","0.0-1.0-313.0","",""
"null","sound/msl/clock.wav","null","audio-keyboard-response","315","175514","0.0-1.0-314.0","",""
"null","sound/msl/duck.wav","null","audio-keyboard-response","316","176021","0.0-1.0-315.0","",""
"null","sound/msl/cow.wav","null","audio-keyboard-response","317","176541","0.0-1.0-316.0","",""
"null","sound/msl/goat.wav","null","audio-keyboard-response","318","177091","0.0-1.0-317.0","",""
"null","sound/msl/Water.wav","null","audio-keyboard-response","319","177614","0.0-1.0-318.0","",""
"null","sound/msl/dog.wav","null","audio-keyboard-response","320","178134","0.0-1.0-319.0","",""
"null","sound/msl/organ.wav","null","audio-keyboard-response","321","178641","0.0-1.0-320.0","",""
"null","sound/msl/slide_whistle.wav","null","audio-keyboard-response","322","179153","0.0-1.0-321.0","",""
"null","sound/msl/boing.wav","null","audio-keyboard-response","323","179662","0.0-1.0-322.0","",""
"null","sound/msl/ding.wav","null","audio-keyboard-response","324","180182","0.0-1.0-323.0","",""
"null","sound/msl/duck.wav","null","audio-keyboard-response","325","180704","0.0-1.0-324.0","",""
"null","sound/msl/cow.wav","null","audio-keyboard-response","326","181221","0.0-1.0-325.0","",""
"null","sound/msl/goat.wav","null","audio-keyboard-response","327","181770","0.0-1.0-326.0","",""
"null","sound/msl/bird.wav","null","audio-keyboard-response","328","182293","0.0-1.0-327.0","",""
"null","sound/msl/door_bell.wav","null","audio-keyboard-response","329","182814","0.0-1.0-328.0","",""
"null","sound/msl/frog.wav","null","audio-keyboard-response","330","183333","0.0-1.0-329.0","",""
"null","sound/msl/door.wav","null","audio-keyboard-response","331","183842","0.0-1.0-330.0","",""
"null","sound/msl/cat.wav","null","audio-keyboard-response","332","184353","0.0-1.0-331.0","",""
"null","sound/msl/clock.wav","null","audio-keyboard-response","333","184915","0.0-1.0-332.0","",""
"null","sound/msl/Water.wav","null","audio-keyboard-response","334","185434","0.0-1.0-333.0","",""
"null","sound/msl/dog.wav","null","audio-keyboard-response","335","185941","0.0-1.0-334.0","",""
"null","sound/msl/organ.wav","null","audio-keyboard-response","336","186451","0.0-1.0-335.0","",""
"null","sound/msl/bird.wav","null","audio-keyboard-response","337","186974","0.0-1.0-336.0","",""
"null","sound/msl/door_bell.wav","null","audio-keyboard-response","338","187492","0.0-1.0-337.0","",""
"null","sound/msl/frog.wav","null","audio-keyboard-response","339","188016","0.0-1.0-338.0","",""
"null","sound/msl/slide_whistle.wav","null","audio-keyboard-response","340","188532","0.0-1.0-339.0","",""
"null","sound/msl/boing.wav","null","audio-keyboard-response","341","189043","0.0-1.0-340.0","",""
"null","sound/msl/ding.wav","null","audio-keyboard-response","342","189554","0.0-1.0-341.0","",""
"null","sound/msl/Water.wav","null","audio-keyboard-response","343","190071","0.0-1.0-342.0","",""
"null","sound/msl/dog.wav","null","audio-keyboard-response","344","190581","0.0-1.0-343.0","",""
"null","sound/msl/organ.wav","null","audio-keyboard-response","345","191094","0.0-1.0-344.0","",""
"null","sound/msl/slide_whistle.wav","null","audio-keyboard-response","346","191614","0.0-1.0-345.0","",""
"null","sound/msl/boing.wav","null","audio-keyboard-response","347","192121","0.0-1.0-346.0","",""
"null","sound/msl/ding.wav","null","audio-keyboard-response","348","192633","0.0-1.0-347.0","",""
"null","sound/msl/bird.wav","null","audio-keyboard-response","349","193144","0.0-1.0-348.0","",""
"null","sound/msl/door_bell.wav","null","audio-keyboard-response","350","193663","0.0-1.0-349.0","",""
"null","sound/msl/frog.wav","null","audio-keyboard-response","351","194182","0.0-1.0-350.0","",""
"null","sound/msl/door.wav","null","audio-keyboard-response","352","194691","0.0-1.0-351.0","",""
"null","sound/msl/cat.wav","null","audio-keyboard-response","353","195201","0.0-1.0-352.0","",""
"null","sound/msl/clock.wav","null","audio-keyboard-response","354","195764","0.0-1.0-353.0","",""
"null","sound/msl/Water.wav","null","audio-keyboard-response","355","196284","0.0-1.0-354.0","",""
"null","sound/msl/dog.wav","null","audio-keyboard-response","356","196791","0.0-1.0-355.0","",""
"null","sound/msl/organ.wav","null","audio-keyboard-response","357","197301","0.0-1.0-356.0","",""
"null","sound/msl/slide_whistle.wav","null","audio-keyboard-response","358","197821","0.0-1.0-357.0","",""
"null","sound/msl/boing.wav","null","audio-keyboard-response","359","198332","0.0-1.0-358.0","",""
"null","sound/msl/ding.wav","null","audio-keyboard-response","360","198852","0.0-1.0-359.0","",""
"26878","Instructions2-eng.png","49","image-keyboard-response","361","225731","0.0-2.0","",""
"null","sound/msl/bird.wav","null","audio-keyboard-response","362","226253","0.0-3.0-0.0","",""
"null","sound/msl/dog.wav","null","audio-keyboard-response","363","226772","0.0-3.0-1.0","",""
"null","sound/msl/clock.wav","null","audio-keyboard-response","364","227333","0.0-3.0-2.0","",""
"null","sound/asl/silence.wav","null","audio-keyboard-response","365","227846","0.0-3.0-3.0","",""
"null","sound/msl/slide_whistle.wav","null","audio-keyboard-response","366","228352","0.0-3.0-4.0","",""
"null","sound/msl/boing.wav","null","audio-keyboard-response","367","228861","0.0-3.0-5.0","",""
"null","sound/msl/ding.wav","null","audio-keyboard-response","368","229381","0.0-3.0-6.0","",""
"2630","sound/asl/silence.wav","50","audio-keyboard-response","369","232017","0.0-3.0-7.0","true",""
"null","sound/msl/door.wav","null","audio-keyboard-response","370","232522","0.0-4.0-0.0","",""
"null","sound/msl/cat.wav","null","audio-keyboard-response","371","233034","0.0-4.0-1.0","",""
"null","sound/msl/clock.wav","null","audio-keyboard-response","372","233594","0.0-4.0-2.0","",""
"null","sound/asl/silence.wav","null","audio-keyboard-response","373","234108","0.0-4.0-3.0","",""
"null","sound/msl/duck.wav","null","audio-keyboard-response","374","234621","0.0-4.0-4.0","",""
"null","sound/msl/door_bell.wav","null","audio-keyboard-response","375","235144","0.0-4.0-5.0","",""
"null","sound/msl/organ.wav","null","audio-keyboard-response","376","235651","0.0-4.0-6.0","",""
"1070","sound/asl/silence.wav","50","audio-keyboard-response","377","236723","0.0-4.0-7.0","false",""
"null","sound/msl/slide_whistle.wav","null","audio-keyboard-response","378","237231","0.0-5.0-0.0","",""
"null","sound/msl/cow.wav","null","audio-keyboard-response","379","237742","0.0-5.0-1.0","",""
"null","sound/msl/frog.wav","null","audio-keyboard-response","380","238264","0.0-5.0-2.0","",""
"null","sound/asl/silence.wav","null","audio-keyboard-response","381","238769","0.0-5.0-3.0","",""
"null","sound/msl/door.wav","null","audio-keyboard-response","382","239271","0.0-5.0-4.0","",""
"null","sound/msl/cat.wav","null","audio-keyboard-response","383","239781","0.0-5.0-5.0","",""
"null","sound/msl/clock.wav","null","audio-keyboard-response","384","240344","0.0-5.0-6.0","",""
"549","sound/asl/silence.wav","50","audio-keyboard-response","385","240892","0.0-5.0-7.0","true",""
"null","sound/msl/door.wav","null","audio-keyboard-response","386","241401","0.0-6.0-0.0","",""
"null","sound/msl/cat.wav","null","audio-keyboard-response","387","241911","0.0-6.0-1.0","",""
"null","sound/msl/clock.wav","null","audio-keyboard-response","388","242474","0.0-6.0-2.0","",""
"null","sound/asl/silence.wav","null","audio-keyboard-response","389","242979","0.0-6.0-3.0","",""
"null","sound/msl/Water.wav","null","audio-keyboard-response","390","243491","0.0-6.0-4.0","",""
"null","sound/msl/cat.wav","null","audio-keyboard-response","391","244001","0.0-6.0-5.0","",""
"null","sound/msl/ding.wav","null","audio-keyboard-response","392","244511","0.0-6.0-6.0","",""
"448","sound/asl/silence.wav","49","audio-keyboard-response","393","244965","0.0-6.0-7.0","true",""
"null","sound/msl/Water.wav","null","audio-keyboard-response","394","245484","0.0-7.0-0.0","",""
"null","sound/msl/dog.wav","null","audio-keyboard-response","395","245991","0.0-7.0-1.0","",""
"null","sound/msl/organ.wav","null","audio-keyboard-response","396","246504","0.0-7.0-2.0","",""
"null","sound/asl/silence.wav","null","audio-keyboard-response","397","247013","0.0-7.0-3.0","",""
"null","sound/msl/Water.wav","null","audio-keyboard-response","398","247534","0.0-7.0-4.0","",""
"null","sound/msl/cat.wav","null","audio-keyboard-response","399","248045","0.0-7.0-5.0","",""
"null","sound/msl/ding.wav","null","audio-keyboard-response","400","248551","0.0-7.0-6.0","",""
"1269","sound/asl/silence.wav","49","audio-keyboard-response","401","249829","0.0-7.0-7.0","true",""
"null","sound/msl/Water.wav","null","audio-keyboard-response","402","250343","0.0-8.0-0.0","",""
"null","sound/msl/dog.wav","null","audio-keyboard-response","403","250860","0.0-8.0-1.0","",""
"null","sound/msl/organ.wav","null","audio-keyboard-response","404","251374","0.0-8.0-2.0","",""
"null","sound/asl/silence.wav","null","audio-keyboard-response","405","251876","0.0-8.0-3.0","",""
"null","sound/msl/door.wav","null","audio-keyboard-response","406","252386","0.0-8.0-4.0","",""
"null","sound/msl/boing.wav","null","audio-keyboard-response","407","252891","0.0-8.0-5.0","",""
"null","sound/msl/goat.wav","null","audio-keyboard-response","408","253442","0.0-8.0-6.0","",""
"560","sound/asl/silence.wav","49","audio-keyboard-response","409","254005","0.0-8.0-7.0","true",""
"null","sound/msl/Water.wav","null","audio-keyboard-response","410","254524","0.0-9.0-0.0","",""
"null","sound/msl/cat.wav","null","audio-keyboard-response","411","255034","0.0-9.0-1.0","",""
"null","sound/msl/ding.wav","null","audio-keyboard-response","412","255541","0.0-9.0-2.0","",""
"null","sound/asl/silence.wav","null","audio-keyboard-response","413","256043","0.0-9.0-3.0","",""
"null","sound/msl/bird.wav","null","audio-keyboard-response","414","256551","0.0-9.0-4.0","",""
"null","sound/msl/door_bell.wav","null","audio-keyboard-response","415","257063","0.0-9.0-5.0","",""
"null","sound/msl/frog.wav","null","audio-keyboard-response","416","257581","0.0-9.0-6.0","",""
"371","sound/asl/silence.wav","50","audio-keyboard-response","417","257961","0.0-9.0-7.0","true",""
"null","sound/msl/duck.wav","null","audio-keyboard-response","418","258473","0.0-10.0-0.0","",""
"null","sound/msl/cow.wav","null","audio-keyboard-response","419","258984","0.0-10.0-1.0","",""
"null","sound/msl/goat.wav","null","audio-keyboard-response","420","259531","0.0-10.0-2.0","",""
"null","sound/asl/silence.wav","null","audio-keyboard-response","421","260032","0.0-10.0-3.0","",""
"null","sound/msl/bird.wav","null","audio-keyboard-response","422","260541","0.0-10.0-4.0","",""
"null","sound/msl/dog.wav","null","audio-keyboard-response","423","261062","0.0-10.0-5.0","",""
"null","sound/msl/clock.wav","null","audio-keyboard-response","424","261621","0.0-10.0-6.0","",""
"360","sound/asl/silence.wav","49","audio-keyboard-response","425","261987","0.0-10.0-7.0","true",""
"null","sound/msl/duck.wav","null","audio-keyboard-response","426","262504","0.0-11.0-0.0","",""
"null","sound/msl/cow.wav","null","audio-keyboard-response","427","263021","0.0-11.0-1.0","",""
"null","sound/msl/goat.wav","null","audio-keyboard-response","428","263573","0.0-11.0-2.0","",""
"null","sound/asl/silence.wav","null","audio-keyboard-response","429","264082","0.0-11.0-3.0","",""
"null","sound/msl/slide_whistle.wav","null","audio-keyboard-response","430","264591","0.0-11.0-4.0","",""
"null","sound/msl/cow.wav","null","audio-keyboard-response","431","265104","0.0-11.0-5.0","",""
"null","sound/msl/frog.wav","null","audio-keyboard-response","432","265623","0.0-11.0-6.0","",""
"1370","sound/asl/silence.wav","49","audio-keyboard-response","433","266995","0.0-11.0-7.0","true",""
"null","sound/msl/duck.wav","null","audio-keyboard-response","434","267504","0.0-12.0-0.0","",""
"null","sound/msl/door_bell.wav","null","audio-keyboard-response","435","268021","0.0-12.0-1.0","",""
"null","sound/msl/organ.wav","null","audio-keyboard-response","436","268531","0.0-12.0-2.0","",""
"null","sound/asl/silence.wav","null","audio-keyboard-response","437","269046","0.0-12.0-3.0","",""
"null","sound/msl/Water.wav","null","audio-keyboard-response","438","269561","0.0-12.0-4.0","",""
"null","sound/msl/dog.wav","null","audio-keyboard-response","439","270074","0.0-12.0-5.0","",""
"null","sound/msl/organ.wav","null","audio-keyboard-response","440","270584","0.0-12.0-6.0","",""
"241","sound/asl/silence.wav","49","audio-keyboard-response","441","270828","0.0-12.0-7.0","false",""
"null","sound/msl/slide_whistle.wav","null","audio-keyboard-response","442","271344","0.0-13.0-0.0","",""
"null","sound/msl/boing.wav","null","audio-keyboard-response","443","271853","0.0-13.0-1.0","",""
"null","sound/msl/ding.wav","null","audio-keyboard-response","444","272371","0.0-13.0-2.0","",""
"null","sound/asl/silence.wav","null","audio-keyboard-response","445","272875","0.0-13.0-3.0","",""
"null","sound/msl/Water.wav","null","audio-keyboard-response","446","273391","0.0-13.0-4.0","",""
"null","sound/msl/cat.wav","null","audio-keyboard-response","447","273903","0.0-13.0-5.0","",""
"null","sound/msl/ding.wav","null","audio-keyboard-response","448","274421","0.0-13.0-6.0","",""
"589","sound/asl/silence.wav","50","audio-keyboard-response","449","275023","0.0-13.0-7.0","false",""
"null","sound/msl/Water.wav","null","audio-keyboard-response","450","275542","0.0-14.0-0.0","",""
"null","sound/msl/cat.wav","null","audio-keyboard-response","451","276051","0.0-14.0-1.0","",""
"null","sound/msl/ding.wav","null","audio-keyboard-response","452","276574","0.0-14.0-2.0","",""
"null","sound/asl/silence.wav","null","audio-keyboard-response","453","277088","0.0-14.0-3.0","",""
"null","sound/msl/duck.wav","null","audio-keyboard-response","454","277591","0.0-14.0-4.0","",""
"null","sound/msl/cow.wav","null","audio-keyboard-response","455","278102","0.0-14.0-5.0","",""
"null","sound/msl/goat.wav","null","audio-keyboard-response","456","278654","0.0-14.0-6.0","",""
"171","sound/asl/silence.wav","50","audio-keyboard-response","457","278828","0.0-14.0-7.0","true",""
"null","sound/msl/slide_whistle.wav","null","audio-keyboard-response","458","279343","0.0-15.0-0.0","",""
"null","sound/msl/cow.wav","null","audio-keyboard-response","459","279861","0.0-15.0-1.0","",""
"null","sound/msl/frog.wav","null","audio-keyboard-response","460","280383","0.0-15.0-2.0","",""
"null","sound/asl/silence.wav","null","audio-keyboard-response","461","280887","0.0-15.0-3.0","",""
"null","sound/msl/Water.wav","null","audio-keyboard-response","462","281401","0.0-15.0-4.0","",""
"null","sound/msl/dog.wav","null","audio-keyboard-response","463","281913","0.0-15.0-5.0","",""
"null","sound/msl/organ.wav","null","audio-keyboard-response","464","282421","0.0-15.0-6.0","",""
"731","sound/asl/silence.wav","49","audio-keyboard-response","465","283155","0.0-15.0-7.0","false",""
"null","sound/msl/bird.wav","null","audio-keyboard-response","466","283664","0.0-16.0-0.0","",""
"null","sound/msl/door_bell.wav","null","audio-keyboard-response","467","284183","0.0-16.0-1.0","",""
"null","sound/msl/frog.wav","null","audio-keyboard-response","468","284701","0.0-16.0-2.0","",""
"null","sound/asl/silence.wav","null","audio-keyboard-response","469","285208","0.0-16.0-3.0","",""
"null","sound/msl/slide_whistle.wav","null","audio-keyboard-response","470","285713","0.0-16.0-4.0","",""
"null","sound/msl/cow.wav","null","audio-keyboard-response","471","286224","0.0-16.0-5.0","",""
"null","sound/msl/frog.wav","null","audio-keyboard-response","472","286741","0.0-16.0-6.0","",""
"430","sound/asl/silence.wav","49","audio-keyboard-response","473","287178","0.0-16.0-7.0","true",""
"null","sound/msl/bird.wav","null","audio-keyboard-response","474","287691","0.0-17.0-0.0","",""
"null","sound/msl/dog.wav","null","audio-keyboard-response","475","288214","0.0-17.0-1.0","",""
"null","sound/msl/clock.wav","null","audio-keyboard-response","476","288771","0.0-17.0-2.0","",""
"null","sound/asl/silence.wav","null","audio-keyboard-response","477","289285","0.0-17.0-3.0","",""
"null","sound/msl/bird.wav","null","audio-keyboard-response","478","289794","0.0-17.0-4.0","",""
"null","sound/msl/door_bell.wav","null","audio-keyboard-response","479","290301","0.0-17.0-5.0","",""
"null","sound/msl/frog.wav","null","audio-keyboard-response","480","290821","0.0-17.0-6.0","",""
"310","sound/asl/silence.wav","50","audio-keyboard-response","481","291138","0.0-17.0-7.0","true",""
"null","sound/msl/slide_whistle.wav","null","audio-keyboard-response","482","291651","0.0-18.0-0.0","",""
"null","sound/msl/boing.wav","null","audio-keyboard-response","483","292164","0.0-18.0-1.0","",""
"null","sound/msl/ding.wav","null","audio-keyboard-response","484","292671","0.0-18.0-2.0","",""
"null","sound/asl/silence.wav","null","audio-keyboard-response","485","293173","0.0-18.0-3.0","",""
"null","sound/msl/door.wav","null","audio-keyboard-response","486","293681","0.0-18.0-4.0","",""
"null","sound/msl/boing.wav","null","audio-keyboard-response","487","294191","0.0-18.0-5.0","",""
"null","sound/msl/goat.wav","null","audio-keyboard-response","488","294743","0.0-18.0-6.0","",""
"259","sound/asl/silence.wav","50","audio-keyboard-response","489","295004","0.0-18.0-7.0","false",""
"null","sound/msl/door.wav","null","audio-keyboard-response","490","295514","0.0-19.0-0.0","",""
"null","sound/msl/boing.wav","null","audio-keyboard-response","491","296023","0.0-19.0-1.0","",""
"null","sound/msl/goat.wav","null","audio-keyboard-response","492","296574","0.0-19.0-2.0","",""
"null","sound/asl/silence.wav","null","audio-keyboard-response","493","297081","0.0-19.0-3.0","",""
"null","sound/msl/duck.wav","null","audio-keyboard-response","494","297583","0.0-19.0-4.0","",""
"null","sound/msl/cow.wav","null","audio-keyboard-response","495","298101","0.0-19.0-5.0","",""
"null","sound/msl/goat.wav","null","audio-keyboard-response","496","298651","0.0-19.0-6.0","",""
"930","sound/asl/silence.wav","50","audio-keyboard-response","497","299588","0.0-19.0-7.0","true",""
"null","sound/msl/duck.wav","null","audio-keyboard-response","498","300104","0.0-20.0-0.0","",""
"null","sound/msl/door_bell.wav","null","audio-keyboard-response","499","300623","0.0-20.0-1.0","",""
"null","sound/msl/organ.wav","null","audio-keyboard-response","500","301132","0.0-20.0-2.0","",""
"null","sound/asl/silence.wav","null","audio-keyboard-response","501","301635","0.0-20.0-3.0","",""
"null","sound/msl/slide_whistle.wav","null","audio-keyboard-response","502","302144","0.0-20.0-4.0","",""
"null","sound/msl/boing.wav","null","audio-keyboard-response","503","302652","0.0-20.0-5.0","",""
"null","sound/msl/ding.wav","null","audio-keyboard-response","504","303170","0.0-20.0-6.0","",""
"389","sound/asl/silence.wav","50","audio-keyboard-response","505","303566","0.0-20.0-7.0","true",""
"null","sound/msl/slide_whistle.wav","null","audio-keyboard-response","506","304074","0.0-21.0-0.0","",""
"null","sound/msl/cow.wav","null","audio-keyboard-response","507","304583","0.0-21.0-1.0","",""
"null","sound/msl/frog.wav","null","audio-keyboard-response","508","305101","0.0-21.0-2.0","",""
"null","sound/asl/silence.wav","null","audio-keyboard-response","509","305617","0.0-21.0-3.0","",""
"null","sound/msl/slide_whistle.wav","null","audio-keyboard-response","510","306131","0.0-21.0-4.0","",""
"null","sound/msl/boing.wav","null","audio-keyboard-response","511","306643","0.0-21.0-5.0","",""
"null","sound/msl/ding.wav","null","audio-keyboard-response","512","307154","0.0-21.0-6.0","",""
"549","sound/asl/silence.wav","49","audio-keyboard-response","513","307712","0.0-21.0-7.0","false",""
"null","sound/msl/duck.wav","null","audio-keyboard-response","514","308221","0.0-22.0-0.0","",""
"null","sound/msl/door_bell.wav","null","audio-keyboard-response","515","308743","0.0-22.0-1.0","",""
"null","sound/msl/organ.wav","null","audio-keyboard-response","516","309253","0.0-22.0-2.0","",""
"null","sound/asl/silence.wav","null","audio-keyboard-response","517","309757","0.0-22.0-3.0","",""
"null","sound/msl/bird.wav","null","audio-keyboard-response","518","310263","0.0-22.0-4.0","",""
"null","sound/msl/door_bell.wav","null","audio-keyboard-response","519","310783","0.0-22.0-5.0","",""
"null","sound/msl/frog.wav","null","audio-keyboard-response","520","311301","0.0-22.0-6.0","",""
"699","sound/asl/silence.wav","49","audio-keyboard-response","521","312010","0.0-22.0-7.0","false",""
"null","sound/msl/bird.wav","null","audio-keyboard-response","522","312512","0.0-23.0-0.0","",""
"null","sound/msl/door_bell.wav","null","audio-keyboard-response","523","313023","0.0-23.0-1.0","",""
"null","sound/msl/frog.wav","null","audio-keyboard-response","524","313544","0.0-23.0-2.0","",""
"null","sound/asl/silence.wav","null","audio-keyboard-response","525","314053","0.0-23.0-3.0","",""
"null","sound/msl/door.wav","null","audio-keyboard-response","526","314563","0.0-23.0-4.0","",""
"null","sound/msl/boing.wav","null","audio-keyboard-response","527","315074","0.0-23.0-5.0","",""
"null","sound/msl/goat.wav","null","audio-keyboard-response","528","315622","0.0-23.0-6.0","",""
"498","sound/asl/silence.wav","50","audio-keyboard-response","529","316129","0.0-23.0-7.0","false",""
"null","sound/msl/door.wav","null","audio-keyboard-response","530","316634","0.0-24.0-0.0","",""
"null","sound/msl/cat.wav","null","audio-keyboard-response","531","317141","0.0-24.0-1.0","",""
"null","sound/msl/clock.wav","null","audio-keyboard-response","532","317701","0.0-24.0-2.0","",""
"null","sound/asl/silence.wav","null","audio-keyboard-response","533","318207","0.0-24.0-3.0","",""
"null","sound/msl/door.wav","null","audio-keyboard-response","534","318711","0.0-24.0-4.0","",""
"null","sound/msl/boing.wav","null","audio-keyboard-response","535","319223","0.0-24.0-5.0","",""
"null","sound/msl/goat.wav","null","audio-keyboard-response","536","319774","0.0-24.0-6.0","",""
"669","sound/asl/silence.wav","49","audio-keyboard-response","537","320444","0.0-24.0-7.0","true",""
"null","sound/msl/duck.wav","null","audio-keyboard-response","538","320951","0.0-25.0-0.0","",""
"null","sound/msl/cow.wav","null","audio-keyboard-response","539","321464","0.0-25.0-1.0","",""
"null","sound/msl/goat.wav","null","audio-keyboard-response","540","322012","0.0-25.0-2.0","",""
"null","sound/asl/silence.wav","null","audio-keyboard-response","541","322517","0.0-25.0-3.0","",""
"null","sound/msl/duck.wav","null","audio-keyboard-response","542","323026","0.0-25.0-4.0","",""
"null","sound/msl/door_bell.wav","null","audio-keyboard-response","543","323541","0.0-25.0-5.0","",""
"null","sound/msl/organ.wav","null","audio-keyboard-response","544","324051","0.0-25.0-6.0","",""
"252","sound/asl/silence.wav","50","audio-keyboard-response","545","324309","0.0-25.0-7.0","false",""
"null","sound/msl/bird.wav","null","audio-keyboard-response","546","324824","0.0-26.0-0.0","",""
"null","sound/msl/dog.wav","null","audio-keyboard-response","547","325343","0.0-26.0-1.0","",""
"null","sound/msl/clock.wav","null","audio-keyboard-response","548","325901","0.0-26.0-2.0","",""
"null","sound/asl/silence.wav","null","audio-keyboard-response","549","326411","0.0-26.0-3.0","",""
"null","sound/msl/door.wav","null","audio-keyboard-response","550","326914","0.0-26.0-4.0","",""
"null","sound/msl/cat.wav","null","audio-keyboard-response","551","327421","0.0-26.0-5.0","",""
"null","sound/msl/clock.wav","null","audio-keyboard-response","552","327983","0.0-26.0-6.0","",""
"921","sound/asl/silence.wav","50","audio-keyboard-response","553","328902","0.0-26.0-7.0","true",""
"null","sound/msl/bird.wav","null","audio-keyboard-response","554","329422","0.0-27.0-0.0","",""
"null","sound/msl/dog.wav","null","audio-keyboard-response","555","329943","0.0-27.0-1.0","",""
"null","sound/msl/clock.wav","null","audio-keyboard-response","556","330501","0.0-27.0-2.0","",""
"null","sound/asl/silence.wav","null","audio-keyboard-response","557","331013","0.0-27.0-3.0","",""
"null","sound/msl/Water.wav","null","audio-keyboard-response","558","331531","0.0-27.0-4.0","",""
"null","sound/msl/dog.wav","null","audio-keyboard-response","559","332051","0.0-27.0-5.0","",""
"null","sound/msl/organ.wav","null","audio-keyboard-response","560","332564","0.0-27.0-6.0","",""
"410","sound/asl/silence.wav","50","audio-keyboard-response","561","332978","0.0-27.0-7.0","true",""
"3907","","","instructions","562","336887","0.0-28.0","","[{""page_index"":0,""viewing_time"":3907}]"
