"rt","stimulus","key_press","trial_type","trial_index","time_elapsed","internal_node_id","correct","view_history"
"5867","alien.jpg","49","image-keyboard-response","0","5869","0.0-0.0","",""
"null","sound/msl/dog.wav","null","audio-keyboard-response","1","6395","0.0-1.0-0.0","",""
"null","sound/msl/organ.wav","null","audio-keyboard-response","2","6906","0.0-1.0-1.0","",""
"null","sound/msl/cat.wav","null","audio-keyboard-response","3","7415","0.0-1.0-2.0","",""
"null","sound/msl/door.wav","null","audio-keyboard-response","4","7926","0.0-1.0-3.0","",""
"null","sound/msl/boing.wav","null","audio-keyboard-response","5","8436","0.0-1.0-4.0","",""
"null","sound/msl/frog.wav","null","audio-keyboard-response","6","8957","0.0-1.0-5.0","",""
"null","sound/msl/cow.wav","null","audio-keyboard-response","7","9476","0.0-1.0-6.0","",""
"null","sound/msl/ding.wav","null","audio-keyboard-response","8","9995","0.0-1.0-7.0","",""
"null","sound/msl/goat.wav","null","audio-keyboard-response","9","10537","0.0-1.0-8.0","",""
"null","sound/msl/slide_whistle.wav","null","audio-keyboard-response","10","11045","0.0-1.0-9.0","",""
"null","sound/msl/Water.wav","null","audio-keyboard-response","11","11566","0.0-1.0-10.0","",""
"null","sound/msl/clock.wav","null","audio-keyboard-response","12","12126","0.0-1.0-11.0","",""
"null","sound/msl/door.wav","null","audio-keyboard-response","13","12635","0.0-1.0-12.0","",""
"null","sound/msl/boing.wav","null","audio-keyboard-response","14","13146","0.0-1.0-13.0","",""
"null","sound/msl/frog.wav","null","audio-keyboard-response","15","13665","0.0-1.0-14.0","",""
"null","sound/msl/dog.wav","null","audio-keyboard-response","16","14186","0.0-1.0-15.0","",""
"null","sound/msl/organ.wav","null","audio-keyboard-response","17","14696","0.0-1.0-16.0","",""
"null","sound/msl/cat.wav","null","audio-keyboard-response","18","15205","0.0-1.0-17.0","",""
"null","sound/msl/bird.wav","null","audio-keyboard-response","19","15716","0.0-1.0-18.0","",""
"null","sound/msl/duck.wav","null","audio-keyboard-response","20","16236","0.0-1.0-19.0","",""
"null","sound/msl/door_bell.wav","null","audio-keyboard-response","21","16755","0.0-1.0-20.0","",""
"null","sound/msl/slide_whistle.wav","null","audio-keyboard-response","22","17265","0.0-1.0-21.0","",""
"null","sound/msl/Water.wav","null","audio-keyboard-response","23","17786","0.0-1.0-22.0","",""
"null","sound/msl/clock.wav","null","audio-keyboard-response","24","18345","0.0-1.0-23.0","",""
"null","sound/msl/cow.wav","null","audio-keyboard-response","25","18866","0.0-1.0-24.0","",""
"null","sound/msl/ding.wav","null","audio-keyboard-response","26","19375","0.0-1.0-25.0","",""
"null","sound/msl/goat.wav","null","audio-keyboard-response","27","19915","0.0-1.0-26.0","",""
"null","sound/msl/dog.wav","null","audio-keyboard-response","28","20436","0.0-1.0-27.0","",""
"null","sound/msl/organ.wav","null","audio-keyboard-response","29","20946","0.0-1.0-28.0","",""
"null","sound/msl/cat.wav","null","audio-keyboard-response","30","21456","0.0-1.0-29.0","",""
"null","sound/msl/door.wav","null","audio-keyboard-response","31","21966","0.0-1.0-30.0","",""
"null","sound/msl/boing.wav","null","audio-keyboard-response","32","22476","0.0-1.0-31.0","",""
"null","sound/msl/frog.wav","null","audio-keyboard-response","33","22996","0.0-1.0-32.0","",""
"null","sound/msl/bird.wav","null","audio-keyboard-response","34","23506","0.0-1.0-33.0","",""
"null","sound/msl/duck.wav","null","audio-keyboard-response","35","24027","0.0-1.0-34.0","",""
"null","sound/msl/door_bell.wav","null","audio-keyboard-response","36","24546","0.0-1.0-35.0","",""
"null","sound/msl/cow.wav","null","audio-keyboard-response","37","25055","0.0-1.0-36.0","",""
"null","sound/msl/ding.wav","null","audio-keyboard-response","38","25576","0.0-1.0-37.0","",""
"null","sound/msl/goat.wav","null","audio-keyboard-response","39","26116","0.0-1.0-38.0","",""
"null","sound/msl/slide_whistle.wav","null","audio-keyboard-response","40","26624","0.0-1.0-39.0","",""
"null","sound/msl/Water.wav","null","audio-keyboard-response","41","27146","0.0-1.0-40.0","",""
"null","sound/msl/clock.wav","null","audio-keyboard-response","42","27707","0.0-1.0-41.0","",""
"null","sound/msl/bird.wav","null","audio-keyboard-response","43","28226","0.0-1.0-42.0","",""
"null","sound/msl/duck.wav","null","audio-keyboard-response","44","28745","0.0-1.0-43.0","",""
"null","sound/msl/door_bell.wav","null","audio-keyboard-response","45","29254","0.0-1.0-44.0","",""
"null","sound/msl/door.wav","null","audio-keyboard-response","46","29765","0.0-1.0-45.0","",""
"null","sound/msl/boing.wav","null","audio-keyboard-response","47","30276","0.0-1.0-46.0","",""
"null","sound/msl/frog.wav","null","audio-keyboard-response","48","30786","0.0-1.0-47.0","",""
"null","sound/msl/cow.wav","null","audio-keyboard-response","49","31305","0.0-1.0-48.0","",""
"null","sound/msl/ding.wav","null","audio-keyboard-response","50","31815","0.0-1.0-49.0","",""
"null","sound/msl/goat.wav","null","audio-keyboard-response","51","32355","0.0-1.0-50.0","",""
"null","sound/msl/dog.wav","null","audio-keyboard-response","52","32876","0.0-1.0-51.0","",""
"null","sound/msl/organ.wav","null","audio-keyboard-response","53","33385","0.0-1.0-52.0","",""
"null","sound/msl/cat.wav","null","audio-keyboard-response","54","33896","0.0-1.0-53.0","",""
"null","sound/msl/door.wav","null","audio-keyboard-response","55","34406","0.0-1.0-54.0","",""
"null","sound/msl/boing.wav","null","audio-keyboard-response","56","34915","0.0-1.0-55.0","",""
"null","sound/msl/frog.wav","null","audio-keyboard-response","57","35436","0.0-1.0-56.0","",""
"null","sound/msl/cow.wav","null","audio-keyboard-response","58","35955","0.0-1.0-57.0","",""
"null","sound/msl/ding.wav","null","audio-keyboard-response","59","36465","0.0-1.0-58.0","",""
"null","sound/msl/goat.wav","null","audio-keyboard-response","60","37005","0.0-1.0-59.0","",""
"null","sound/msl/slide_whistle.wav","null","audio-keyboard-response","61","37515","0.0-1.0-60.0","",""
"null","sound/msl/Water.wav","null","audio-keyboard-response","62","38035","0.0-1.0-61.0","",""
"null","sound/msl/clock.wav","null","audio-keyboard-response","63","38596","0.0-1.0-62.0","",""
"null","sound/msl/bird.wav","null","audio-keyboard-response","64","39115","0.0-1.0-63.0","",""
"null","sound/msl/duck.wav","null","audio-keyboard-response","65","39635","0.0-1.0-64.0","",""
"null","sound/msl/door_bell.wav","null","audio-keyboard-response","66","40144","0.0-1.0-65.0","",""
"null","sound/msl/door.wav","null","audio-keyboard-response","67","40655","0.0-1.0-66.0","",""
"null","sound/msl/boing.wav","null","audio-keyboard-response","68","41164","0.0-1.0-67.0","",""
"null","sound/msl/frog.wav","null","audio-keyboard-response","69","41675","0.0-1.0-68.0","",""
"null","sound/msl/dog.wav","null","audio-keyboard-response","70","42195","0.0-1.0-69.0","",""
"null","sound/msl/organ.wav","null","audio-keyboard-response","71","42705","0.0-1.0-70.0","",""
"null","sound/msl/cat.wav","null","audio-keyboard-response","72","43215","0.0-1.0-71.0","",""
"null","sound/msl/cow.wav","null","audio-keyboard-response","73","43735","0.0-1.0-72.0","",""
"null","sound/msl/ding.wav","null","audio-keyboard-response","74","44255","0.0-1.0-73.0","",""
"null","sound/msl/goat.wav","null","audio-keyboard-response","75","44794","0.0-1.0-74.0","",""
"null","sound/msl/slide_whistle.wav","null","audio-keyboard-response","76","45305","0.0-1.0-75.0","",""
"null","sound/msl/Water.wav","null","audio-keyboard-response","77","45825","0.0-1.0-76.0","",""
"null","sound/msl/clock.wav","null","audio-keyboard-response","78","46384","0.0-1.0-77.0","",""
"null","sound/msl/cow.wav","null","audio-keyboard-response","79","46906","0.0-1.0-78.0","",""
"null","sound/msl/ding.wav","null","audio-keyboard-response","80","47425","0.0-1.0-79.0","",""
"null","sound/msl/goat.wav","null","audio-keyboard-response","81","47964","0.0-1.0-80.0","",""
"null","sound/msl/bird.wav","null","audio-keyboard-response","82","48485","0.0-1.0-81.0","",""
"null","sound/msl/duck.wav","null","audio-keyboard-response","83","48995","0.0-1.0-82.0","",""
"null","sound/msl/door_bell.wav","null","audio-keyboard-response","84","49515","0.0-1.0-83.0","",""
"null","sound/msl/dog.wav","null","audio-keyboard-response","85","50036","0.0-1.0-84.0","",""
"null","sound/msl/organ.wav","null","audio-keyboard-response","86","50546","0.0-1.0-85.0","",""
"null","sound/msl/cat.wav","null","audio-keyboard-response","87","51056","0.0-1.0-86.0","",""
"null","sound/msl/door.wav","null","audio-keyboard-response","88","51565","0.0-1.0-87.0","",""
"null","sound/msl/boing.wav","null","audio-keyboard-response","89","52075","0.0-1.0-88.0","",""
"null","sound/msl/frog.wav","null","audio-keyboard-response","90","52596","0.0-1.0-89.0","",""
"null","sound/msl/bird.wav","null","audio-keyboard-response","91","53106","0.0-1.0-90.0","",""
"null","sound/msl/duck.wav","null","audio-keyboard-response","92","53625","0.0-1.0-91.0","",""
"null","sound/msl/door_bell.wav","null","audio-keyboard-response","93","54136","0.0-1.0-92.0","",""
"null","sound/msl/slide_whistle.wav","null","audio-keyboard-response","94","54645","0.0-1.0-93.0","",""
"null","sound/msl/Water.wav","null","audio-keyboard-response","95","55165","0.0-1.0-94.0","",""
"null","sound/msl/clock.wav","null","audio-keyboard-response","96","55725","0.0-1.0-95.0","",""
"null","sound/msl/cow.wav","null","audio-keyboard-response","97","56245","0.0-1.0-96.0","",""
"null","sound/msl/ding.wav","null","audio-keyboard-response","98","56765","0.0-1.0-97.0","",""
"null","sound/msl/goat.wav","null","audio-keyboard-response","99","57305","0.0-1.0-98.0","",""
"null","sound/msl/door.wav","null","audio-keyboard-response","100","57816","0.0-1.0-99.0","",""
"null","sound/msl/boing.wav","null","audio-keyboard-response","101","58325","0.0-1.0-100.0","",""
"null","sound/msl/frog.wav","null","audio-keyboard-response","102","58845","0.0-1.0-101.0","",""
"null","sound/msl/bird.wav","null","audio-keyboard-response","103","59365","0.0-1.0-102.0","",""
"null","sound/msl/duck.wav","null","audio-keyboard-response","104","59885","0.0-1.0-103.0","",""
"null","sound/msl/door_bell.wav","null","audio-keyboard-response","105","60405","0.0-1.0-104.0","",""
"null","sound/msl/dog.wav","null","audio-keyboard-response","106","60925","0.0-1.0-105.0","",""
"null","sound/msl/organ.wav","null","audio-keyboard-response","107","61436","0.0-1.0-106.0","",""
"null","sound/msl/cat.wav","null","audio-keyboard-response","108","61946","0.0-1.0-107.0","",""
"null","sound/msl/door.wav","null","audio-keyboard-response","109","62456","0.0-1.0-108.0","",""
"null","sound/msl/boing.wav","null","audio-keyboard-response","110","62966","0.0-1.0-109.0","",""
"null","sound/msl/frog.wav","null","audio-keyboard-response","111","63487","0.0-1.0-110.0","",""
"null","sound/msl/slide_whistle.wav","null","audio-keyboard-response","112","63996","0.0-1.0-111.0","",""
"null","sound/msl/Water.wav","null","audio-keyboard-response","113","64515","0.0-1.0-112.0","",""
"null","sound/msl/clock.wav","null","audio-keyboard-response","114","65075","0.0-1.0-113.0","",""
"null","sound/msl/bird.wav","null","audio-keyboard-response","115","65596","0.0-1.0-114.0","",""
"null","sound/msl/duck.wav","null","audio-keyboard-response","116","66104","0.0-1.0-115.0","",""
"null","sound/msl/door_bell.wav","null","audio-keyboard-response","117","66626","0.0-1.0-116.0","",""
"null","sound/msl/cow.wav","null","audio-keyboard-response","118","67146","0.0-1.0-117.0","",""
"null","sound/msl/ding.wav","null","audio-keyboard-response","119","67655","0.0-1.0-118.0","",""
"null","sound/msl/goat.wav","null","audio-keyboard-response","120","68195","0.0-1.0-119.0","",""
"null","sound/msl/dog.wav","null","audio-keyboard-response","121","68716","0.0-1.0-120.0","",""
"null","sound/msl/organ.wav","null","audio-keyboard-response","122","69225","0.0-1.0-121.0","",""
"null","sound/msl/cat.wav","null","audio-keyboard-response","123","69738","0.0-1.0-122.0","",""
"null","sound/msl/door.wav","null","audio-keyboard-response","124","70246","0.0-1.0-123.0","",""
"null","sound/msl/boing.wav","null","audio-keyboard-response","125","70756","0.0-1.0-124.0","",""
"null","sound/msl/frog.wav","null","audio-keyboard-response","126","71276","0.0-1.0-125.0","",""
"null","sound/msl/bird.wav","null","audio-keyboard-response","127","71797","0.0-1.0-126.0","",""
"null","sound/msl/duck.wav","null","audio-keyboard-response","128","72305","0.0-1.0-127.0","",""
"null","sound/msl/door_bell.wav","null","audio-keyboard-response","129","72826","0.0-1.0-128.0","",""
"null","sound/msl/slide_whistle.wav","null","audio-keyboard-response","130","73335","0.0-1.0-129.0","",""
"null","sound/msl/Water.wav","null","audio-keyboard-response","131","73856","0.0-1.0-130.0","",""
"null","sound/msl/clock.wav","null","audio-keyboard-response","132","74416","0.0-1.0-131.0","",""
"null","sound/msl/door.wav","null","audio-keyboard-response","133","74925","0.0-1.0-132.0","",""
"null","sound/msl/boing.wav","null","audio-keyboard-response","134","75435","0.0-1.0-133.0","",""
"null","sound/msl/frog.wav","null","audio-keyboard-response","135","75946","0.0-1.0-134.0","",""
"null","sound/msl/cow.wav","null","audio-keyboard-response","136","76466","0.0-1.0-135.0","",""
"null","sound/msl/ding.wav","null","audio-keyboard-response","137","76975","0.0-1.0-136.0","",""
"null","sound/msl/goat.wav","null","audio-keyboard-response","138","77515","0.0-1.0-137.0","",""
"null","sound/msl/slide_whistle.wav","null","audio-keyboard-response","139","78025","0.0-1.0-138.0","",""
"null","sound/msl/Water.wav","null","audio-keyboard-response","140","78546","0.0-1.0-139.0","",""
"null","sound/msl/clock.wav","null","audio-keyboard-response","141","79105","0.0-1.0-140.0","",""
"null","sound/msl/dog.wav","null","audio-keyboard-response","142","79625","0.0-1.0-141.0","",""
"null","sound/msl/organ.wav","null","audio-keyboard-response","143","80136","0.0-1.0-142.0","",""
"null","sound/msl/cat.wav","null","audio-keyboard-response","144","80645","0.0-1.0-143.0","",""
"null","sound/msl/bird.wav","null","audio-keyboard-response","145","81156","0.0-1.0-144.0","",""
"null","sound/msl/duck.wav","null","audio-keyboard-response","146","81675","0.0-1.0-145.0","",""
"null","sound/msl/door_bell.wav","null","audio-keyboard-response","147","82185","0.0-1.0-146.0","",""
"null","sound/msl/cow.wav","null","audio-keyboard-response","148","82705","0.0-1.0-147.0","",""
"null","sound/msl/ding.wav","null","audio-keyboard-response","149","83226","0.0-1.0-148.0","",""
"null","sound/msl/goat.wav","null","audio-keyboard-response","150","83766","0.0-1.0-149.0","",""
"null","sound/msl/dog.wav","null","audio-keyboard-response","151","84276","0.0-1.0-150.0","",""
"null","sound/msl/organ.wav","null","audio-keyboard-response","152","84786","0.0-1.0-151.0","",""
"null","sound/msl/cat.wav","null","audio-keyboard-response","153","85296","0.0-1.0-152.0","",""
"null","sound/msl/door.wav","null","audio-keyboard-response","154","85805","0.0-1.0-153.0","",""
"null","sound/msl/boing.wav","null","audio-keyboard-response","155","86317","0.0-1.0-154.0","",""
"null","sound/msl/frog.wav","null","audio-keyboard-response","156","86836","0.0-1.0-155.0","",""
"null","sound/msl/slide_whistle.wav","null","audio-keyboard-response","157","87346","0.0-1.0-156.0","",""
"null","sound/msl/Water.wav","null","audio-keyboard-response","158","87865","0.0-1.0-157.0","",""
"null","sound/msl/clock.wav","null","audio-keyboard-response","159","88426","0.0-1.0-158.0","",""
"null","sound/msl/bird.wav","null","audio-keyboard-response","160","88946","0.0-1.0-159.0","",""
"null","sound/msl/duck.wav","null","audio-keyboard-response","161","89466","0.0-1.0-160.0","",""
"null","sound/msl/door_bell.wav","null","audio-keyboard-response","162","89975","0.0-1.0-161.0","",""
"null","sound/msl/door.wav","null","audio-keyboard-response","163","90486","0.0-1.0-162.0","",""
"null","sound/msl/boing.wav","null","audio-keyboard-response","164","90995","0.0-1.0-163.0","",""
"null","sound/msl/frog.wav","null","audio-keyboard-response","165","91505","0.0-1.0-164.0","",""
"null","sound/msl/slide_whistle.wav","null","audio-keyboard-response","166","92016","0.0-1.0-165.0","",""
"null","sound/msl/Water.wav","null","audio-keyboard-response","167","92536","0.0-1.0-166.0","",""
"null","sound/msl/clock.wav","null","audio-keyboard-response","168","93096","0.0-1.0-167.0","",""
"null","sound/msl/dog.wav","null","audio-keyboard-response","169","93616","0.0-1.0-168.0","",""
"null","sound/msl/organ.wav","null","audio-keyboard-response","170","94124","0.0-1.0-169.0","",""
"null","sound/msl/cat.wav","null","audio-keyboard-response","171","94636","0.0-1.0-170.0","",""
"null","sound/msl/cow.wav","null","audio-keyboard-response","172","95146","0.0-1.0-171.0","",""
"null","sound/msl/ding.wav","null","audio-keyboard-response","173","95665","0.0-1.0-172.0","",""
"null","sound/msl/goat.wav","null","audio-keyboard-response","174","96204","0.0-1.0-173.0","",""
"null","sound/msl/bird.wav","null","audio-keyboard-response","175","96716","0.0-1.0-174.0","",""
"null","sound/msl/duck.wav","null","audio-keyboard-response","176","97236","0.0-1.0-175.0","",""
"null","sound/msl/door_bell.wav","null","audio-keyboard-response","177","97745","0.0-1.0-176.0","",""
"null","sound/msl/door.wav","null","audio-keyboard-response","178","98255","0.0-1.0-177.0","",""
"null","sound/msl/boing.wav","null","audio-keyboard-response","179","98766","0.0-1.0-178.0","",""
"null","sound/msl/frog.wav","null","audio-keyboard-response","180","99276","0.0-1.0-179.0","",""
"null","sound/msl/cow.wav","null","audio-keyboard-response","181","99794","0.0-1.0-180.0","",""
"null","sound/msl/ding.wav","null","audio-keyboard-response","182","100306","0.0-1.0-181.0","",""
"null","sound/msl/goat.wav","null","audio-keyboard-response","183","100845","0.0-1.0-182.0","",""
"null","sound/msl/slide_whistle.wav","null","audio-keyboard-response","184","101355","0.0-1.0-183.0","",""
"null","sound/msl/Water.wav","null","audio-keyboard-response","185","101875","0.0-1.0-184.0","",""
"null","sound/msl/clock.wav","null","audio-keyboard-response","186","102435","0.0-1.0-185.0","",""
"null","sound/msl/dog.wav","null","audio-keyboard-response","187","102955","0.0-1.0-186.0","",""
"null","sound/msl/organ.wav","null","audio-keyboard-response","188","103465","0.0-1.0-187.0","",""
"null","sound/msl/cat.wav","null","audio-keyboard-response","189","103975","0.0-1.0-188.0","",""
"null","sound/msl/bird.wav","null","audio-keyboard-response","190","104484","0.0-1.0-189.0","",""
"null","sound/msl/duck.wav","null","audio-keyboard-response","191","105005","0.0-1.0-190.0","",""
"null","sound/msl/door_bell.wav","null","audio-keyboard-response","192","105515","0.0-1.0-191.0","",""
"null","sound/msl/door.wav","null","audio-keyboard-response","193","106026","0.0-1.0-192.0","",""
"null","sound/msl/boing.wav","null","audio-keyboard-response","194","106535","0.0-1.0-193.0","",""
"null","sound/msl/frog.wav","null","audio-keyboard-response","195","107046","0.0-1.0-194.0","",""
"null","sound/msl/cow.wav","null","audio-keyboard-response","196","107565","0.0-1.0-195.0","",""
"null","sound/msl/ding.wav","null","audio-keyboard-response","197","108075","0.0-1.0-196.0","",""
"null","sound/msl/goat.wav","null","audio-keyboard-response","198","108615","0.0-1.0-197.0","",""
"null","sound/msl/dog.wav","null","audio-keyboard-response","199","109135","0.0-1.0-198.0","",""
"null","sound/msl/organ.wav","null","audio-keyboard-response","200","109645","0.0-1.0-199.0","",""
"null","sound/msl/cat.wav","null","audio-keyboard-response","201","110155","0.0-1.0-200.0","",""
"null","sound/msl/slide_whistle.wav","null","audio-keyboard-response","202","110665","0.0-1.0-201.0","",""
"null","sound/msl/Water.wav","null","audio-keyboard-response","203","111186","0.0-1.0-202.0","",""
"null","sound/msl/clock.wav","null","audio-keyboard-response","204","111745","0.0-1.0-203.0","",""
"null","sound/msl/bird.wav","null","audio-keyboard-response","205","112255","0.0-1.0-204.0","",""
"null","sound/msl/duck.wav","null","audio-keyboard-response","206","112775","0.0-1.0-205.0","",""
"null","sound/msl/door_bell.wav","null","audio-keyboard-response","207","113285","0.0-1.0-206.0","",""
"null","sound/msl/door.wav","null","audio-keyboard-response","208","113795","0.0-1.0-207.0","",""
"null","sound/msl/boing.wav","null","audio-keyboard-response","209","114306","0.0-1.0-208.0","",""
"null","sound/msl/frog.wav","null","audio-keyboard-response","210","114816","0.0-1.0-209.0","",""
"null","sound/msl/dog.wav","null","audio-keyboard-response","211","115335","0.0-1.0-210.0","",""
"null","sound/msl/organ.wav","null","audio-keyboard-response","212","115846","0.0-1.0-211.0","",""
"null","sound/msl/cat.wav","null","audio-keyboard-response","213","116356","0.0-1.0-212.0","",""
"null","sound/msl/bird.wav","null","audio-keyboard-response","214","116876","0.0-1.0-213.0","",""
"null","sound/msl/duck.wav","null","audio-keyboard-response","215","117395","0.0-1.0-214.0","",""
"null","sound/msl/door_bell.wav","null","audio-keyboard-response","216","117915","0.0-1.0-215.0","",""
"null","sound/msl/cow.wav","null","audio-keyboard-response","217","118436","0.0-1.0-216.0","",""
"null","sound/msl/ding.wav","null","audio-keyboard-response","218","118946","0.0-1.0-217.0","",""
"null","sound/msl/goat.wav","null","audio-keyboard-response","219","119486","0.0-1.0-218.0","",""
"null","sound/msl/slide_whistle.wav","null","audio-keyboard-response","220","119996","0.0-1.0-219.0","",""
"null","sound/msl/Water.wav","null","audio-keyboard-response","221","120516","0.0-1.0-220.0","",""
"null","sound/msl/clock.wav","null","audio-keyboard-response","222","121075","0.0-1.0-221.0","",""
"null","sound/msl/door.wav","null","audio-keyboard-response","223","121585","0.0-1.0-222.0","",""
"null","sound/msl/boing.wav","null","audio-keyboard-response","224","122096","0.0-1.0-223.0","",""
"null","sound/msl/frog.wav","null","audio-keyboard-response","225","122605","0.0-1.0-224.0","",""
"null","sound/msl/cow.wav","null","audio-keyboard-response","226","123125","0.0-1.0-225.0","",""
"null","sound/msl/ding.wav","null","audio-keyboard-response","227","123646","0.0-1.0-226.0","",""
"null","sound/msl/goat.wav","null","audio-keyboard-response","228","124186","0.0-1.0-227.0","",""
"null","sound/msl/bird.wav","null","audio-keyboard-response","229","124695","0.0-1.0-228.0","",""
"null","sound/msl/duck.wav","null","audio-keyboard-response","230","125216","0.0-1.0-229.0","",""
"null","sound/msl/door_bell.wav","null","audio-keyboard-response","231","125725","0.0-1.0-230.0","",""
"null","sound/msl/cow.wav","null","audio-keyboard-response","232","126245","0.0-1.0-231.0","",""
"null","sound/msl/ding.wav","null","audio-keyboard-response","233","126766","0.0-1.0-232.0","",""
"null","sound/msl/goat.wav","null","audio-keyboard-response","234","127306","0.0-1.0-233.0","",""
"null","sound/msl/door.wav","null","audio-keyboard-response","235","127817","0.0-1.0-234.0","",""
"null","sound/msl/boing.wav","null","audio-keyboard-response","236","128326","0.0-1.0-235.0","",""
"null","sound/msl/frog.wav","null","audio-keyboard-response","237","128845","0.0-1.0-236.0","",""
"null","sound/msl/slide_whistle.wav","null","audio-keyboard-response","238","129355","0.0-1.0-237.0","",""
"null","sound/msl/Water.wav","null","audio-keyboard-response","239","129876","0.0-1.0-238.0","",""
"null","sound/msl/clock.wav","null","audio-keyboard-response","240","130436","0.0-1.0-239.0","",""
"null","sound/msl/dog.wav","null","audio-keyboard-response","241","130956","0.0-1.0-240.0","",""
"null","sound/msl/organ.wav","null","audio-keyboard-response","242","131466","0.0-1.0-241.0","",""
"null","sound/msl/cat.wav","null","audio-keyboard-response","243","131975","0.0-1.0-242.0","",""
"null","sound/msl/bird.wav","null","audio-keyboard-response","244","132486","0.0-1.0-243.0","",""
"null","sound/msl/duck.wav","null","audio-keyboard-response","245","133005","0.0-1.0-244.0","",""
"null","sound/msl/door_bell.wav","null","audio-keyboard-response","246","133526","0.0-1.0-245.0","",""
"null","sound/msl/door.wav","null","audio-keyboard-response","247","134036","0.0-1.0-246.0","",""
"null","sound/msl/boing.wav","null","audio-keyboard-response","248","134546","0.0-1.0-247.0","",""
"null","sound/msl/frog.wav","null","audio-keyboard-response","249","135065","0.0-1.0-248.0","",""
"null","sound/msl/slide_whistle.wav","null","audio-keyboard-response","250","135575","0.0-1.0-249.0","",""
"null","sound/msl/Water.wav","null","audio-keyboard-response","251","136096","0.0-1.0-250.0","",""
"null","sound/msl/clock.wav","null","audio-keyboard-response","252","136655","0.0-1.0-251.0","",""
"null","sound/msl/dog.wav","null","audio-keyboard-response","253","137175","0.0-1.0-252.0","",""
"null","sound/msl/organ.wav","null","audio-keyboard-response","254","137685","0.0-1.0-253.0","",""
"null","sound/msl/cat.wav","null","audio-keyboard-response","255","138195","0.0-1.0-254.0","",""
"null","sound/msl/cow.wav","null","audio-keyboard-response","256","138705","0.0-1.0-255.0","",""
"null","sound/msl/ding.wav","null","audio-keyboard-response","257","139226","0.0-1.0-256.0","",""
"null","sound/msl/goat.wav","null","audio-keyboard-response","258","139765","0.0-1.0-257.0","",""
"null","sound/msl/bird.wav","null","audio-keyboard-response","259","140285","0.0-1.0-258.0","",""
"null","sound/msl/duck.wav","null","audio-keyboard-response","260","140795","0.0-1.0-259.0","",""
"null","sound/msl/door_bell.wav","null","audio-keyboard-response","261","141316","0.0-1.0-260.0","",""
"null","sound/msl/dog.wav","null","audio-keyboard-response","262","141835","0.0-1.0-261.0","",""
"null","sound/msl/organ.wav","null","audio-keyboard-response","263","142345","0.0-1.0-262.0","",""
"null","sound/msl/cat.wav","null","audio-keyboard-response","264","142855","0.0-1.0-263.0","",""
"null","sound/msl/slide_whistle.wav","null","audio-keyboard-response","265","143364","0.0-1.0-264.0","",""
"null","sound/msl/Water.wav","null","audio-keyboard-response","266","143886","0.0-1.0-265.0","",""
"null","sound/msl/clock.wav","null","audio-keyboard-response","267","144446","0.0-1.0-266.0","",""
"null","sound/msl/cow.wav","null","audio-keyboard-response","268","144966","0.0-1.0-267.0","",""
"null","sound/msl/ding.wav","null","audio-keyboard-response","269","145485","0.0-1.0-268.0","",""
"null","sound/msl/goat.wav","null","audio-keyboard-response","270","146036","0.0-1.0-269.0","",""
"null","sound/msl/door.wav","null","audio-keyboard-response","271","146546","0.0-1.0-270.0","",""
"null","sound/msl/boing.wav","null","audio-keyboard-response","272","147055","0.0-1.0-271.0","",""
"null","sound/msl/frog.wav","null","audio-keyboard-response","273","147576","0.0-1.0-272.0","",""
"null","sound/msl/bird.wav","null","audio-keyboard-response","274","148096","0.0-1.0-273.0","",""
"null","sound/msl/duck.wav","null","audio-keyboard-response","275","148615","0.0-1.0-274.0","",""
"null","sound/msl/door_bell.wav","null","audio-keyboard-response","276","149125","0.0-1.0-275.0","",""
"null","sound/msl/dog.wav","null","audio-keyboard-response","277","149646","0.0-1.0-276.0","",""
"null","sound/msl/organ.wav","null","audio-keyboard-response","278","150156","0.0-1.0-277.0","",""
"null","sound/msl/cat.wav","null","audio-keyboard-response","279","150666","0.0-1.0-278.0","",""
"null","sound/msl/slide_whistle.wav","null","audio-keyboard-response","280","151175","0.0-1.0-279.0","",""
"null","sound/msl/Water.wav","null","audio-keyboard-response","281","151696","0.0-1.0-280.0","",""
"null","sound/msl/clock.wav","null","audio-keyboard-response","282","152256","0.0-1.0-281.0","",""
"null","sound/msl/door.wav","null","audio-keyboard-response","283","152766","0.0-1.0-282.0","",""
"null","sound/msl/boing.wav","null","audio-keyboard-response","284","153276","0.0-1.0-283.0","",""
"null","sound/msl/frog.wav","null","audio-keyboard-response","285","153796","0.0-1.0-284.0","",""
"null","sound/msl/cow.wav","null","audio-keyboard-response","286","154316","0.0-1.0-285.0","",""
"null","sound/msl/ding.wav","null","audio-keyboard-response","287","154835","0.0-1.0-286.0","",""
"null","sound/msl/goat.wav","null","audio-keyboard-response","288","155376","0.0-1.0-287.0","",""
"null","sound/msl/bird.wav","null","audio-keyboard-response","289","155886","0.0-1.0-288.0","",""
"null","sound/msl/duck.wav","null","audio-keyboard-response","290","156406","0.0-1.0-289.0","",""
"null","sound/msl/door_bell.wav","null","audio-keyboard-response","291","156926","0.0-1.0-290.0","",""
"null","sound/msl/slide_whistle.wav","null","audio-keyboard-response","292","157435","0.0-1.0-291.0","",""
"null","sound/msl/Water.wav","null","audio-keyboard-response","293","157957","0.0-1.0-292.0","",""
"null","sound/msl/clock.wav","null","audio-keyboard-response","294","158516","0.0-1.0-293.0","",""
"null","sound/msl/dog.wav","null","audio-keyboard-response","295","159036","0.0-1.0-294.0","",""
"null","sound/msl/organ.wav","null","audio-keyboard-response","296","159545","0.0-1.0-295.0","",""
"null","sound/msl/cat.wav","null","audio-keyboard-response","297","160055","0.0-1.0-296.0","",""
"null","sound/msl/bird.wav","null","audio-keyboard-response","298","160575","0.0-1.0-297.0","",""
"null","sound/msl/duck.wav","null","audio-keyboard-response","299","161096","0.0-1.0-298.0","",""
"null","sound/msl/door_bell.wav","null","audio-keyboard-response","300","161616","0.0-1.0-299.0","",""
"null","sound/msl/door.wav","null","audio-keyboard-response","301","162125","0.0-1.0-300.0","",""
"null","sound/msl/boing.wav","null","audio-keyboard-response","302","162636","0.0-1.0-301.0","",""
"null","sound/msl/frog.wav","null","audio-keyboard-response","303","163156","0.0-1.0-302.0","",""
"null","sound/msl/slide_whistle.wav","null","audio-keyboard-response","304","163665","0.0-1.0-303.0","",""
"null","sound/msl/Water.wav","null","audio-keyboard-response","305","164186","0.0-1.0-304.0","",""
"null","sound/msl/clock.wav","null","audio-keyboard-response","306","164745","0.0-1.0-305.0","",""
"null","sound/msl/cow.wav","null","audio-keyboard-response","307","165265","0.0-1.0-306.0","",""
"null","sound/msl/ding.wav","null","audio-keyboard-response","308","165786","0.0-1.0-307.0","",""
"null","sound/msl/goat.wav","null","audio-keyboard-response","309","166336","0.0-1.0-308.0","",""
"null","sound/msl/dog.wav","null","audio-keyboard-response","310","166845","0.0-1.0-309.0","",""
"null","sound/msl/organ.wav","null","audio-keyboard-response","311","167355","0.0-1.0-310.0","",""
"null","sound/msl/cat.wav","null","audio-keyboard-response","312","167866","0.0-1.0-311.0","",""
"null","sound/msl/bird.wav","null","audio-keyboard-response","313","168385","0.0-1.0-312.0","",""
"null","sound/msl/duck.wav","null","audio-keyboard-response","314","168904","0.0-1.0-313.0","",""
"null","sound/msl/door_bell.wav","null","audio-keyboard-response","315","169435","0.0-1.0-314.0","",""
"null","sound/msl/door.wav","null","audio-keyboard-response","316","169945","0.0-1.0-315.0","",""
"null","sound/msl/boing.wav","null","audio-keyboard-response","317","170454","0.0-1.0-316.0","",""
"null","sound/msl/frog.wav","null","audio-keyboard-response","318","170975","0.0-1.0-317.0","",""
"null","sound/msl/slide_whistle.wav","null","audio-keyboard-response","319","171485","0.0-1.0-318.0","",""
"null","sound/msl/Water.wav","null","audio-keyboard-response","320","172005","0.0-1.0-319.0","",""
"null","sound/msl/clock.wav","null","audio-keyboard-response","321","172565","0.0-1.0-320.0","",""
"null","sound/msl/dog.wav","null","audio-keyboard-response","322","173085","0.0-1.0-321.0","",""
"null","sound/msl/organ.wav","null","audio-keyboard-response","323","173596","0.0-1.0-322.0","",""
"null","sound/msl/cat.wav","null","audio-keyboard-response","324","174106","0.0-1.0-323.0","",""
"null","sound/msl/door.wav","null","audio-keyboard-response","325","174615","0.0-1.0-324.0","",""
"null","sound/msl/boing.wav","null","audio-keyboard-response","326","175124","0.0-1.0-325.0","",""
"null","sound/msl/frog.wav","null","audio-keyboard-response","327","175646","0.0-1.0-326.0","",""
"null","sound/msl/cow.wav","null","audio-keyboard-response","328","176165","0.0-1.0-327.0","",""
"null","sound/msl/ding.wav","null","audio-keyboard-response","329","176685","0.0-1.0-328.0","",""
"null","sound/msl/goat.wav","null","audio-keyboard-response","330","177225","0.0-1.0-329.0","",""
"null","sound/msl/bird.wav","null","audio-keyboard-response","331","177736","0.0-1.0-330.0","",""
"null","sound/msl/duck.wav","null","audio-keyboard-response","332","178255","0.0-1.0-331.0","",""
"null","sound/msl/door_bell.wav","null","audio-keyboard-response","333","178775","0.0-1.0-332.0","",""
"null","sound/msl/slide_whistle.wav","null","audio-keyboard-response","334","179285","0.0-1.0-333.0","",""
"null","sound/msl/Water.wav","null","audio-keyboard-response","335","179806","0.0-1.0-334.0","",""
"null","sound/msl/clock.wav","null","audio-keyboard-response","336","180365","0.0-1.0-335.0","",""
"null","sound/msl/cow.wav","null","audio-keyboard-response","337","180886","0.0-1.0-336.0","",""
"null","sound/msl/ding.wav","null","audio-keyboard-response","338","181395","0.0-1.0-337.0","",""
"null","sound/msl/goat.wav","null","audio-keyboard-response","339","181935","0.0-1.0-338.0","",""
"null","sound/msl/dog.wav","null","audio-keyboard-response","340","182455","0.0-1.0-339.0","",""
"null","sound/msl/organ.wav","null","audio-keyboard-response","341","182965","0.0-1.0-340.0","",""
"null","sound/msl/cat.wav","null","audio-keyboard-response","342","183476","0.0-1.0-341.0","",""
"null","sound/msl/slide_whistle.wav","null","audio-keyboard-response","343","183986","0.0-1.0-342.0","",""
"null","sound/msl/Water.wav","null","audio-keyboard-response","344","184505","0.0-1.0-343.0","",""
"null","sound/msl/clock.wav","null","audio-keyboard-response","345","185065","0.0-1.0-344.0","",""
"null","sound/msl/dog.wav","null","audio-keyboard-response","346","185576","0.0-1.0-345.0","",""
"null","sound/msl/organ.wav","null","audio-keyboard-response","347","186086","0.0-1.0-346.0","",""
"null","sound/msl/cat.wav","null","audio-keyboard-response","348","186596","0.0-1.0-347.0","",""
"null","sound/msl/cow.wav","null","audio-keyboard-response","349","187116","0.0-1.0-348.0","",""
"null","sound/msl/ding.wav","null","audio-keyboard-response","350","187635","0.0-1.0-349.0","",""
"null","sound/msl/goat.wav","null","audio-keyboard-response","351","188185","0.0-1.0-350.0","",""
"null","sound/msl/bird.wav","null","audio-keyboard-response","352","188695","0.0-1.0-351.0","",""
"null","sound/msl/duck.wav","null","audio-keyboard-response","353","189216","0.0-1.0-352.0","",""
"null","sound/msl/door_bell.wav","null","audio-keyboard-response","354","189725","0.0-1.0-353.0","",""
"null","sound/msl/slide_whistle.wav","null","audio-keyboard-response","355","190235","0.0-1.0-354.0","",""
"null","sound/msl/Water.wav","null","audio-keyboard-response","356","190756","0.0-1.0-355.0","",""
"null","sound/msl/clock.wav","null","audio-keyboard-response","357","191316","0.0-1.0-356.0","",""
"null","sound/msl/dog.wav","null","audio-keyboard-response","358","191835","0.0-1.0-357.0","",""
"null","sound/msl/organ.wav","null","audio-keyboard-response","359","192346","0.0-1.0-358.0","",""
"null","sound/msl/cat.wav","null","audio-keyboard-response","360","192856","0.0-1.0-359.0","",""
"11584","Instructions2-eng.png","49","image-keyboard-response","361","204445","0.0-2.0","",""
"null","sound/msl/door.wav","null","audio-keyboard-response","362","204956","0.0-3.0-0.0","",""
"null","sound/msl/ding.wav","null","audio-keyboard-response","363","205475","0.0-3.0-1.0","",""
"null","sound/msl/clock.wav","null","audio-keyboard-response","364","206036","0.0-3.0-2.0","",""
"null","sound/asl/silence.wav","null","audio-keyboard-response","365","206539","0.0-3.0-3.0","",""
"null","sound/msl/dog.wav","null","audio-keyboard-response","366","207055","0.0-3.0-4.0","",""
"null","sound/msl/organ.wav","null","audio-keyboard-response","367","207566","0.0-3.0-5.0","",""
"null","sound/msl/cat.wav","null","audio-keyboard-response","368","208075","0.0-3.0-6.0","",""
"368","sound/asl/silence.wav","49","audio-keyboard-response","369","208454","0.0-3.0-7.0","false",""
"null","sound/msl/cow.wav","null","audio-keyboard-response","370","208975","0.0-4.0-0.0","",""
"null","sound/msl/ding.wav","null","audio-keyboard-response","371","209497","0.0-4.0-1.0","",""
"null","sound/msl/goat.wav","null","audio-keyboard-response","372","210036","0.0-4.0-2.0","",""
"null","sound/asl/silence.wav","null","audio-keyboard-response","373","210539","0.0-4.0-3.0","",""
"null","sound/msl/bird.wav","null","audio-keyboard-response","374","211056","0.0-4.0-4.0","",""
"null","sound/msl/organ.wav","null","audio-keyboard-response","375","211565","0.0-4.0-5.0","",""
"null","sound/msl/frog.wav","null","audio-keyboard-response","376","212087","0.0-4.0-6.0","",""
"409","sound/asl/silence.wav","50","audio-keyboard-response","377","212506","0.0-4.0-7.0","false",""
"null","sound/msl/cow.wav","null","audio-keyboard-response","378","213016","0.0-5.0-0.0","",""
"null","sound/msl/Water.wav","null","audio-keyboard-response","379","213535","0.0-5.0-1.0","",""
"null","sound/msl/door_bell.wav","null","audio-keyboard-response","380","214046","0.0-5.0-2.0","",""
"null","sound/asl/silence.wav","null","audio-keyboard-response","381","214547","0.0-5.0-3.0","",""
"null","sound/msl/bird.wav","null","audio-keyboard-response","382","215066","0.0-5.0-4.0","",""
"null","sound/msl/duck.wav","null","audio-keyboard-response","383","215576","0.0-5.0-5.0","",""
"null","sound/msl/door_bell.wav","null","audio-keyboard-response","384","216096","0.0-5.0-6.0","",""
"369","sound/asl/silence.wav","49","audio-keyboard-response","385","216473","0.0-5.0-7.0","false",""
"null","sound/msl/dog.wav","null","audio-keyboard-response","386","216985","0.0-6.0-0.0","",""
"null","sound/msl/boing.wav","null","audio-keyboard-response","387","217495","0.0-6.0-1.0","",""
"null","sound/msl/goat.wav","null","audio-keyboard-response","388","218047","0.0-6.0-2.0","",""
"null","sound/asl/silence.wav","null","audio-keyboard-response","389","218548","0.0-6.0-3.0","",""
"null","sound/msl/slide_whistle.wav","null","audio-keyboard-response","390","219056","0.0-6.0-4.0","",""
"null","sound/msl/Water.wav","null","audio-keyboard-response","391","219575","0.0-6.0-5.0","",""
"null","sound/msl/clock.wav","null","audio-keyboard-response","392","220135","0.0-6.0-6.0","",""
"237","sound/asl/silence.wav","50","audio-keyboard-response","393","220379","0.0-6.0-7.0","true",""
"null","sound/msl/bird.wav","null","audio-keyboard-response","394","220895","0.0-7.0-0.0","",""
"null","sound/msl/duck.wav","null","audio-keyboard-response","395","221416","0.0-7.0-1.0","",""
"null","sound/msl/door_bell.wav","null","audio-keyboard-response","396","221936","0.0-7.0-2.0","",""
"null","sound/asl/silence.wav","null","audio-keyboard-response","397","222437","0.0-7.0-3.0","",""
"null","sound/msl/slide_whistle.wav","null","audio-keyboard-response","398","222945","0.0-7.0-4.0","",""
"null","sound/msl/duck.wav","null","audio-keyboard-response","399","223455","0.0-7.0-5.0","",""
"null","sound/msl/cat.wav","null","audio-keyboard-response","400","223966","0.0-7.0-6.0","",""
"351","sound/asl/silence.wav","49","audio-keyboard-response","401","224325","0.0-7.0-7.0","true",""
"null","sound/msl/door.wav","null","audio-keyboard-response","402","224835","0.0-8.0-0.0","",""
"null","sound/msl/boing.wav","null","audio-keyboard-response","403","225345","0.0-8.0-1.0","",""
"null","sound/msl/frog.wav","null","audio-keyboard-response","404","225865","0.0-8.0-2.0","",""
"null","sound/asl/silence.wav","null","audio-keyboard-response","405","226367","0.0-8.0-3.0","",""
"null","sound/msl/door.wav","null","audio-keyboard-response","406","226875","0.0-8.0-4.0","",""
"null","sound/msl/ding.wav","null","audio-keyboard-response","407","227385","0.0-8.0-5.0","",""
"null","sound/msl/clock.wav","null","audio-keyboard-response","408","227946","0.0-8.0-6.0","",""
"543","sound/asl/silence.wav","50","audio-keyboard-response","409","228492","0.0-8.0-7.0","false",""
"null","sound/msl/bird.wav","null","audio-keyboard-response","410","229005","0.0-9.0-0.0","",""
"null","sound/msl/duck.wav","null","audio-keyboard-response","411","229526","0.0-9.0-1.0","",""
"null","sound/msl/door_bell.wav","null","audio-keyboard-response","412","230035","0.0-9.0-2.0","",""
"null","sound/asl/silence.wav","null","audio-keyboard-response","413","230536","0.0-9.0-3.0","",""
"null","sound/msl/door.wav","null","audio-keyboard-response","414","231046","0.0-9.0-4.0","",""
"null","sound/msl/ding.wav","null","audio-keyboard-response","415","231566","0.0-9.0-5.0","",""
"null","sound/msl/clock.wav","null","audio-keyboard-response","416","232126","0.0-9.0-6.0","",""
"1488","sound/asl/silence.wav","50","audio-keyboard-response","417","233623","0.0-9.0-7.0","false",""
"null","sound/msl/cow.wav","null","audio-keyboard-response","418","234125","0.0-10.0-0.0","",""
"null","sound/msl/Water.wav","null","audio-keyboard-response","419","234645","0.0-10.0-1.0","",""
"null","sound/msl/door_bell.wav","null","audio-keyboard-response","420","235155","0.0-10.0-2.0","",""
"null","sound/asl/silence.wav","null","audio-keyboard-response","421","235657","0.0-10.0-3.0","",""
"null","sound/msl/slide_whistle.wav","null","audio-keyboard-response","422","236166","0.0-10.0-4.0","",""
"null","sound/msl/Water.wav","null","audio-keyboard-response","423","236685","0.0-10.0-5.0","",""
"null","sound/msl/clock.wav","null","audio-keyboard-response","424","237246","0.0-10.0-6.0","",""
"430","sound/asl/silence.wav","49","audio-keyboard-response","425","237682","0.0-10.0-7.0","false",""
"null","sound/msl/dog.wav","null","audio-keyboard-response","426","238196","0.0-11.0-0.0","",""
"null","sound/msl/organ.wav","null","audio-keyboard-response","427","238706","0.0-11.0-1.0","",""
"null","sound/msl/cat.wav","null","audio-keyboard-response","428","239215","0.0-11.0-2.0","",""
"null","sound/asl/silence.wav","null","audio-keyboard-response","429","239717","0.0-11.0-3.0","",""
"null","sound/msl/slide_whistle.wav","null","audio-keyboard-response","430","240225","0.0-11.0-4.0","",""
"null","sound/msl/duck.wav","null","audio-keyboard-response","431","240746","0.0-11.0-5.0","",""
"null","sound/msl/cat.wav","null","audio-keyboard-response","432","241255","0.0-11.0-6.0","",""
"310","sound/asl/silence.wav","50","audio-keyboard-response","433","241572","0.0-11.0-7.0","false",""
"null","sound/msl/door.wav","null","audio-keyboard-response","434","242076","0.0-12.0-0.0","",""
"null","sound/msl/ding.wav","null","audio-keyboard-response","435","242595","0.0-12.0-1.0","",""
"null","sound/msl/clock.wav","null","audio-keyboard-response","436","243155","0.0-12.0-2.0","",""
"null","sound/asl/silence.wav","null","audio-keyboard-response","437","243659","0.0-12.0-3.0","",""
"null","sound/msl/slide_whistle.wav","null","audio-keyboard-response","438","244165","0.0-12.0-4.0","",""
"null","sound/msl/Water.wav","null","audio-keyboard-response","439","244686","0.0-12.0-5.0","",""
"null","sound/msl/clock.wav","null","audio-keyboard-response","440","245245","0.0-12.0-6.0","",""
"3210","sound/asl/silence.wav","50","audio-keyboard-response","441","248463","0.0-12.0-7.0","true",""
"null","sound/msl/bird.wav","null","audio-keyboard-response","442","248966","0.0-13.0-0.0","",""
"null","sound/msl/organ.wav","null","audio-keyboard-response","443","249476","0.0-13.0-1.0","",""
"null","sound/msl/frog.wav","null","audio-keyboard-response","444","249995","0.0-13.0-2.0","",""
"null","sound/asl/silence.wav","null","audio-keyboard-response","445","250497","0.0-13.0-3.0","",""
"null","sound/msl/door.wav","null","audio-keyboard-response","446","251005","0.0-13.0-4.0","",""
"null","sound/msl/boing.wav","null","audio-keyboard-response","447","251515","0.0-13.0-5.0","",""
"null","sound/msl/frog.wav","null","audio-keyboard-response","448","252036","0.0-13.0-6.0","",""
"441","sound/asl/silence.wav","49","audio-keyboard-response","449","252481","0.0-13.0-7.0","false",""
"null","sound/msl/cow.wav","null","audio-keyboard-response","450","252986","0.0-14.0-0.0","",""
"null","sound/msl/Water.wav","null","audio-keyboard-response","451","253506","0.0-14.0-1.0","",""
"null","sound/msl/door_bell.wav","null","audio-keyboard-response","452","254026","0.0-14.0-2.0","",""
"null","sound/asl/silence.wav","null","audio-keyboard-response","453","254527","0.0-14.0-3.0","",""
"null","sound/msl/dog.wav","null","audio-keyboard-response","454","255046","0.0-14.0-4.0","",""
"null","sound/msl/organ.wav","null","audio-keyboard-response","455","255555","0.0-14.0-5.0","",""
"null","sound/msl/cat.wav","null","audio-keyboard-response","456","256066","0.0-14.0-6.0","",""
"508","sound/asl/silence.wav","49","audio-keyboard-response","457","256582","0.0-14.0-7.0","false",""
"null","sound/msl/cow.wav","null","audio-keyboard-response","458","257095","0.0-15.0-0.0","",""
"null","sound/msl/ding.wav","null","audio-keyboard-response","459","257615","0.0-15.0-1.0","",""
"null","sound/msl/goat.wav","null","audio-keyboard-response","460","258155","0.0-15.0-2.0","",""
"null","sound/asl/silence.wav","null","audio-keyboard-response","461","258657","0.0-15.0-3.0","",""
"null","sound/msl/dog.wav","null","audio-keyboard-response","462","259166","0.0-15.0-4.0","",""
"null","sound/msl/boing.wav","null","audio-keyboard-response","463","259675","0.0-15.0-5.0","",""
"null","sound/msl/goat.wav","null","audio-keyboard-response","464","260215","0.0-15.0-6.0","",""
"1028","sound/asl/silence.wav","50","audio-keyboard-response","465","261247","0.0-15.0-7.0","false",""
"null","sound/msl/door.wav","null","audio-keyboard-response","466","261755","0.0-16.0-0.0","",""
"null","sound/msl/boing.wav","null","audio-keyboard-response","467","262265","0.0-16.0-1.0","",""
"null","sound/msl/frog.wav","null","audio-keyboard-response","468","262775","0.0-16.0-2.0","",""
"null","sound/asl/silence.wav","null","audio-keyboard-response","469","263279","0.0-16.0-3.0","",""
"null","sound/msl/cow.wav","null","audio-keyboard-response","470","263796","0.0-16.0-4.0","",""
"null","sound/msl/Water.wav","null","audio-keyboard-response","471","264316","0.0-16.0-5.0","",""
"null","sound/msl/door_bell.wav","null","audio-keyboard-response","472","264837","0.0-16.0-6.0","",""
"502","sound/asl/silence.wav","50","audio-keyboard-response","473","265344","0.0-16.0-7.0","false",""
"null","sound/msl/dog.wav","null","audio-keyboard-response","474","265855","0.0-17.0-0.0","",""
"null","sound/msl/organ.wav","null","audio-keyboard-response","475","266366","0.0-17.0-1.0","",""
"null","sound/msl/cat.wav","null","audio-keyboard-response","476","266878","0.0-17.0-2.0","",""
"null","sound/asl/silence.wav","null","audio-keyboard-response","477","267380","0.0-17.0-3.0","",""
"null","sound/msl/bird.wav","null","audio-keyboard-response","478","267896","0.0-17.0-4.0","",""
"null","sound/msl/organ.wav","null","audio-keyboard-response","479","268406","0.0-17.0-5.0","",""
"null","sound/msl/frog.wav","null","audio-keyboard-response","480","268925","0.0-17.0-6.0","",""
"433","sound/asl/silence.wav","49","audio-keyboard-response","481","269357","0.0-17.0-7.0","true",""
"null","sound/msl/slide_whistle.wav","null","audio-keyboard-response","482","269865","0.0-18.0-0.0","",""
"null","sound/msl/duck.wav","null","audio-keyboard-response","483","270385","0.0-18.0-1.0","",""
"null","sound/msl/cat.wav","null","audio-keyboard-response","484","270896","0.0-18.0-2.0","",""
"null","sound/asl/silence.wav","null","audio-keyboard-response","485","271397","0.0-18.0-3.0","",""
"null","sound/msl/door.wav","null","audio-keyboard-response","486","271906","0.0-18.0-4.0","",""
"null","sound/msl/boing.wav","null","audio-keyboard-response","487","272415","0.0-18.0-5.0","",""
"null","sound/msl/frog.wav","null","audio-keyboard-response","488","272926","0.0-18.0-6.0","",""
"827","sound/asl/silence.wav","50","audio-keyboard-response","489","273758","0.0-18.0-7.0","true",""
"null","sound/msl/dog.wav","null","audio-keyboard-response","490","274276","0.0-19.0-0.0","",""
"null","sound/msl/boing.wav","null","audio-keyboard-response","491","274785","0.0-19.0-1.0","",""
"null","sound/msl/goat.wav","null","audio-keyboard-response","492","275336","0.0-19.0-2.0","",""
"null","sound/asl/silence.wav","null","audio-keyboard-response","493","275837","0.0-19.0-3.0","",""
"null","sound/msl/dog.wav","null","audio-keyboard-response","494","276356","0.0-19.0-4.0","",""
"null","sound/msl/organ.wav","null","audio-keyboard-response","495","276866","0.0-19.0-5.0","",""
"null","sound/msl/cat.wav","null","audio-keyboard-response","496","277375","0.0-19.0-6.0","",""
"347","sound/asl/silence.wav","50","audio-keyboard-response","497","277732","0.0-19.0-7.0","true",""
"null","sound/msl/door.wav","null","audio-keyboard-response","498","278235","0.0-20.0-0.0","",""
"null","sound/msl/boing.wav","null","audio-keyboard-response","499","278745","0.0-20.0-1.0","",""
"null","sound/msl/frog.wav","null","audio-keyboard-response","500","279267","0.0-20.0-2.0","",""
"null","sound/asl/silence.wav","null","audio-keyboard-response","501","279768","0.0-20.0-3.0","",""
"null","sound/msl/dog.wav","null","audio-keyboard-response","502","280286","0.0-20.0-4.0","",""
"null","sound/msl/boing.wav","null","audio-keyboard-response","503","280795","0.0-20.0-5.0","",""
"null","sound/msl/goat.wav","null","audio-keyboard-response","504","281335","0.0-20.0-6.0","",""
"390","sound/asl/silence.wav","49","audio-keyboard-response","505","281733","0.0-20.0-7.0","true",""
"null","sound/msl/bird.wav","null","audio-keyboard-response","506","282246","0.0-21.0-0.0","",""
"null","sound/msl/duck.wav","null","audio-keyboard-response","507","282765","0.0-21.0-1.0","",""
"null","sound/msl/door_bell.wav","null","audio-keyboard-response","508","283286","0.0-21.0-2.0","",""
"null","sound/asl/silence.wav","null","audio-keyboard-response","509","283787","0.0-21.0-3.0","",""
"null","sound/msl/bird.wav","null","audio-keyboard-response","510","284306","0.0-21.0-4.0","",""
"null","sound/msl/organ.wav","null","audio-keyboard-response","511","284816","0.0-21.0-5.0","",""
"null","sound/msl/frog.wav","null","audio-keyboard-response","512","285325","0.0-21.0-6.0","",""
"479","sound/asl/silence.wav","50","audio-keyboard-response","513","285807","0.0-21.0-7.0","false",""
"null","sound/msl/slide_whistle.wav","null","audio-keyboard-response","514","286315","0.0-22.0-0.0","",""
"null","sound/msl/Water.wav","null","audio-keyboard-response","515","286836","0.0-22.0-1.0","",""
"null","sound/msl/clock.wav","null","audio-keyboard-response","516","287396","0.0-22.0-2.0","",""
"null","sound/asl/silence.wav","null","audio-keyboard-response","517","287898","0.0-22.0-3.0","",""
"null","sound/msl/slide_whistle.wav","null","audio-keyboard-response","518","288406","0.0-22.0-4.0","",""
"null","sound/msl/duck.wav","null","audio-keyboard-response","519","288916","0.0-22.0-5.0","",""
"null","sound/msl/cat.wav","null","audio-keyboard-response","520","289425","0.0-22.0-6.0","",""
"872","sound/asl/silence.wav","49","audio-keyboard-response","521","290298","0.0-22.0-7.0","true",""
"null","sound/msl/slide_whistle.wav","null","audio-keyboard-response","522","290805","0.0-23.0-0.0","",""
"null","sound/msl/Water.wav","null","audio-keyboard-response","523","291326","0.0-23.0-1.0","",""
"null","sound/msl/clock.wav","null","audio-keyboard-response","524","291885","0.0-23.0-2.0","",""
"null","sound/asl/silence.wav","null","audio-keyboard-response","525","292387","0.0-23.0-3.0","",""
"null","sound/msl/bird.wav","null","audio-keyboard-response","526","292907","0.0-23.0-4.0","",""
"null","sound/msl/organ.wav","null","audio-keyboard-response","527","293415","0.0-23.0-5.0","",""
"null","sound/msl/frog.wav","null","audio-keyboard-response","528","293925","0.0-23.0-6.0","",""
"1089","sound/asl/silence.wav","49","audio-keyboard-response","529","295020","0.0-23.0-7.0","true",""
"null","sound/msl/dog.wav","null","audio-keyboard-response","530","295535","0.0-24.0-0.0","",""
"null","sound/msl/boing.wav","null","audio-keyboard-response","531","296045","0.0-24.0-1.0","",""
"null","sound/msl/goat.wav","null","audio-keyboard-response","532","296595","0.0-24.0-2.0","",""
"null","sound/asl/silence.wav","null","audio-keyboard-response","533","297096","0.0-24.0-3.0","",""
"null","sound/msl/bird.wav","null","audio-keyboard-response","534","297605","0.0-24.0-4.0","",""
"null","sound/msl/duck.wav","null","audio-keyboard-response","535","298125","0.0-24.0-5.0","",""
"null","sound/msl/door_bell.wav","null","audio-keyboard-response","536","298646","0.0-24.0-6.0","",""
"671","sound/asl/silence.wav","50","audio-keyboard-response","537","299319","0.0-24.0-7.0","true",""
"null","sound/msl/cow.wav","null","audio-keyboard-response","538","299836","0.0-25.0-0.0","",""
"null","sound/msl/Water.wav","null","audio-keyboard-response","539","300355","0.0-25.0-1.0","",""
"null","sound/msl/door_bell.wav","null","audio-keyboard-response","540","300865","0.0-25.0-2.0","",""
"null","sound/asl/silence.wav","null","audio-keyboard-response","541","301367","0.0-25.0-3.0","",""
"null","sound/msl/cow.wav","null","audio-keyboard-response","542","301876","0.0-25.0-4.0","",""
"null","sound/msl/ding.wav","null","audio-keyboard-response","543","302396","0.0-25.0-5.0","",""
"null","sound/msl/goat.wav","null","audio-keyboard-response","544","302936","0.0-25.0-6.0","",""
"2188","sound/asl/silence.wav","50","audio-keyboard-response","545","305133","0.0-25.0-7.0","true",""
"null","sound/msl/door.wav","null","audio-keyboard-response","546","305646","0.0-26.0-0.0","",""
"null","sound/msl/ding.wav","null","audio-keyboard-response","547","306166","0.0-26.0-1.0","",""
"null","sound/msl/clock.wav","null","audio-keyboard-response","548","306726","0.0-26.0-2.0","",""
"null","sound/asl/silence.wav","null","audio-keyboard-response","549","307228","0.0-26.0-3.0","",""
"null","sound/msl/cow.wav","null","audio-keyboard-response","550","307735","0.0-26.0-4.0","",""
"null","sound/msl/ding.wav","null","audio-keyboard-response","551","308256","0.0-26.0-5.0","",""
"null","sound/msl/goat.wav","null","audio-keyboard-response","552","308796","0.0-26.0-6.0","",""
"259","sound/asl/silence.wav","49","audio-keyboard-response","553","309059","0.0-26.0-7.0","false",""
"null","sound/msl/slide_whistle.wav","null","audio-keyboard-response","554","309566","0.0-27.0-0.0","",""
"null","sound/msl/duck.wav","null","audio-keyboard-response","555","310086","0.0-27.0-1.0","",""
"null","sound/msl/cat.wav","null","audio-keyboard-response","556","310596","0.0-27.0-2.0","",""
"null","sound/asl/silence.wav","null","audio-keyboard-response","557","311098","0.0-27.0-3.0","",""
"null","sound/msl/cow.wav","null","audio-keyboard-response","558","311616","0.0-27.0-4.0","",""
"null","sound/msl/ding.wav","null","audio-keyboard-response","559","312137","0.0-27.0-5.0","",""
"null","sound/msl/goat.wav","null","audio-keyboard-response","560","312675","0.0-27.0-6.0","",""
"949","sound/asl/silence.wav","49","audio-keyboard-response","561","313627","0.0-27.0-7.0","false",""
"2385","","","instructions","562","316014","0.0-28.0","","[{""page_index"":0,""viewing_time"":2385}]"
