"rt","stimulus","key_press","trial_type","trial_index","time_elapsed","internal_node_id","correct","view_history"
"13650","alien.jpg","49","image-keyboard-response","0","13653","0.0-0.0","",""
"null","sound/msl/duck.wav","null","audio-keyboard-response","1","14174","0.0-1.0-0.0","",""
"null","sound/msl/door.wav","null","audio-keyboard-response","2","14682","0.0-1.0-1.0","",""
"null","sound/msl/organ.wav","null","audio-keyboard-response","3","15192","0.0-1.0-2.0","",""
"null","sound/msl/Water.wav","null","audio-keyboard-response","4","15712","0.0-1.0-3.0","",""
"null","sound/msl/dog.wav","null","audio-keyboard-response","5","16233","0.0-1.0-4.0","",""
"null","sound/msl/cow.wav","null","audio-keyboard-response","6","16753","0.0-1.0-5.0","",""
"null","sound/msl/ding.wav","null","audio-keyboard-response","7","17273","0.0-1.0-6.0","",""
"null","sound/msl/goat.wav","null","audio-keyboard-response","8","17813","0.0-1.0-7.0","",""
"null","sound/msl/boing.wav","null","audio-keyboard-response","9","18323","0.0-1.0-8.0","",""
"null","sound/msl/frog.wav","null","audio-keyboard-response","10","18844","0.0-1.0-9.0","",""
"null","sound/msl/cat.wav","null","audio-keyboard-response","11","19353","0.0-1.0-10.0","",""
"null","sound/msl/clock.wav","null","audio-keyboard-response","12","19913","0.0-1.0-11.0","",""
"null","sound/msl/Water.wav","null","audio-keyboard-response","13","20433","0.0-1.0-12.0","",""
"null","sound/msl/dog.wav","null","audio-keyboard-response","14","20952","0.0-1.0-13.0","",""
"null","sound/msl/cow.wav","null","audio-keyboard-response","15","21473","0.0-1.0-14.0","",""
"null","sound/msl/duck.wav","null","audio-keyboard-response","16","21982","0.0-1.0-15.0","",""
"null","sound/msl/door.wav","null","audio-keyboard-response","17","22493","0.0-1.0-16.0","",""
"null","sound/msl/organ.wav","null","audio-keyboard-response","18","23002","0.0-1.0-17.0","",""
"null","sound/msl/door_bell.wav","null","audio-keyboard-response","19","23512","0.0-1.0-18.0","",""
"null","sound/msl/slide_whistle.wav","null","audio-keyboard-response","20","24022","0.0-1.0-19.0","",""
"null","sound/msl/bird.wav","null","audio-keyboard-response","21","24543","0.0-1.0-20.0","",""
"null","sound/msl/frog.wav","null","audio-keyboard-response","22","25063","0.0-1.0-21.0","",""
"null","sound/msl/cat.wav","null","audio-keyboard-response","23","25573","0.0-1.0-22.0","",""
"null","sound/msl/clock.wav","null","audio-keyboard-response","24","26132","0.0-1.0-23.0","",""
"null","sound/msl/ding.wav","null","audio-keyboard-response","25","26653","0.0-1.0-24.0","",""
"null","sound/msl/goat.wav","null","audio-keyboard-response","26","27192","0.0-1.0-25.0","",""
"null","sound/msl/boing.wav","null","audio-keyboard-response","27","27702","0.0-1.0-26.0","",""
"null","sound/msl/duck.wav","null","audio-keyboard-response","28","28223","0.0-1.0-27.0","",""
"null","sound/msl/door.wav","null","audio-keyboard-response","29","28733","0.0-1.0-28.0","",""
"null","sound/msl/organ.wav","null","audio-keyboard-response","30","29242","0.0-1.0-29.0","",""
"null","sound/msl/Water.wav","null","audio-keyboard-response","31","29762","0.0-1.0-30.0","",""
"null","sound/msl/dog.wav","null","audio-keyboard-response","32","30273","0.0-1.0-31.0","",""
"null","sound/msl/cow.wav","null","audio-keyboard-response","33","30793","0.0-1.0-32.0","",""
"null","sound/msl/door_bell.wav","null","audio-keyboard-response","34","31302","0.0-1.0-33.0","",""
"null","sound/msl/slide_whistle.wav","null","audio-keyboard-response","35","31812","0.0-1.0-34.0","",""
"null","sound/msl/bird.wav","null","audio-keyboard-response","36","32333","0.0-1.0-35.0","",""
"null","sound/msl/ding.wav","null","audio-keyboard-response","37","32852","0.0-1.0-36.0","",""
"null","sound/msl/goat.wav","null","audio-keyboard-response","38","33393","0.0-1.0-37.0","",""
"null","sound/msl/boing.wav","null","audio-keyboard-response","39","33902","0.0-1.0-38.0","",""
"null","sound/msl/frog.wav","null","audio-keyboard-response","40","34423","0.0-1.0-39.0","",""
"null","sound/msl/cat.wav","null","audio-keyboard-response","41","34933","0.0-1.0-40.0","",""
"null","sound/msl/clock.wav","null","audio-keyboard-response","42","35493","0.0-1.0-41.0","",""
"null","sound/msl/door_bell.wav","null","audio-keyboard-response","43","36012","0.0-1.0-42.0","",""
"null","sound/msl/slide_whistle.wav","null","audio-keyboard-response","44","36523","0.0-1.0-43.0","",""
"null","sound/msl/bird.wav","null","audio-keyboard-response","45","37032","0.0-1.0-44.0","",""
"null","sound/msl/Water.wav","null","audio-keyboard-response","46","37552","0.0-1.0-45.0","",""
"null","sound/msl/dog.wav","null","audio-keyboard-response","47","38063","0.0-1.0-46.0","",""
"null","sound/msl/cow.wav","null","audio-keyboard-response","48","38583","0.0-1.0-47.0","",""
"null","sound/msl/ding.wav","null","audio-keyboard-response","49","39103","0.0-1.0-48.0","",""
"null","sound/msl/goat.wav","null","audio-keyboard-response","50","39643","0.0-1.0-49.0","",""
"null","sound/msl/boing.wav","null","audio-keyboard-response","51","40153","0.0-1.0-50.0","",""
"null","sound/msl/duck.wav","null","audio-keyboard-response","52","40672","0.0-1.0-51.0","",""
"null","sound/msl/door.wav","null","audio-keyboard-response","53","41183","0.0-1.0-52.0","",""
"null","sound/msl/organ.wav","null","audio-keyboard-response","54","41693","0.0-1.0-53.0","",""
"null","sound/msl/Water.wav","null","audio-keyboard-response","55","42212","0.0-1.0-54.0","",""
"null","sound/msl/dog.wav","null","audio-keyboard-response","56","42733","0.0-1.0-55.0","",""
"null","sound/msl/cow.wav","null","audio-keyboard-response","57","43253","0.0-1.0-56.0","",""
"null","sound/msl/ding.wav","null","audio-keyboard-response","58","43773","0.0-1.0-57.0","",""
"null","sound/msl/goat.wav","null","audio-keyboard-response","59","44312","0.0-1.0-58.0","",""
"null","sound/msl/boing.wav","null","audio-keyboard-response","60","44823","0.0-1.0-59.0","",""
"null","sound/msl/frog.wav","null","audio-keyboard-response","61","45342","0.0-1.0-60.0","",""
"null","sound/msl/cat.wav","null","audio-keyboard-response","62","45853","0.0-1.0-61.0","",""
"null","sound/msl/clock.wav","null","audio-keyboard-response","63","46413","0.0-1.0-62.0","",""
"null","sound/msl/door_bell.wav","null","audio-keyboard-response","64","46933","0.0-1.0-63.0","",""
"null","sound/msl/slide_whistle.wav","null","audio-keyboard-response","65","47442","0.0-1.0-64.0","",""
"null","sound/msl/bird.wav","null","audio-keyboard-response","66","47962","0.0-1.0-65.0","",""
"null","sound/msl/Water.wav","null","audio-keyboard-response","67","48483","0.0-1.0-66.0","",""
"null","sound/msl/dog.wav","null","audio-keyboard-response","68","49002","0.0-1.0-67.0","",""
"null","sound/msl/cow.wav","null","audio-keyboard-response","69","49523","0.0-1.0-68.0","",""
"null","sound/msl/duck.wav","null","audio-keyboard-response","70","50033","0.0-1.0-69.0","",""
"null","sound/msl/door.wav","null","audio-keyboard-response","71","50543","0.0-1.0-70.0","",""
"null","sound/msl/organ.wav","null","audio-keyboard-response","72","51053","0.0-1.0-71.0","",""
"null","sound/msl/ding.wav","null","audio-keyboard-response","73","51572","0.0-1.0-72.0","",""
"null","sound/msl/goat.wav","null","audio-keyboard-response","74","52123","0.0-1.0-73.0","",""
"null","sound/msl/boing.wav","null","audio-keyboard-response","75","52632","0.0-1.0-74.0","",""
"null","sound/msl/frog.wav","null","audio-keyboard-response","76","53153","0.0-1.0-75.0","",""
"null","sound/msl/cat.wav","null","audio-keyboard-response","77","53663","0.0-1.0-76.0","",""
"null","sound/msl/clock.wav","null","audio-keyboard-response","78","54222","0.0-1.0-77.0","",""
"null","sound/msl/ding.wav","null","audio-keyboard-response","79","54743","0.0-1.0-78.0","",""
"null","sound/msl/goat.wav","null","audio-keyboard-response","80","55292","0.0-1.0-79.0","",""
"null","sound/msl/boing.wav","null","audio-keyboard-response","81","55803","0.0-1.0-80.0","",""
"null","sound/msl/door_bell.wav","null","audio-keyboard-response","82","56323","0.0-1.0-81.0","",""
"null","sound/msl/slide_whistle.wav","null","audio-keyboard-response","83","56833","0.0-1.0-82.0","",""
"null","sound/msl/bird.wav","null","audio-keyboard-response","84","57353","0.0-1.0-83.0","",""
"null","sound/msl/duck.wav","null","audio-keyboard-response","85","57873","0.0-1.0-84.0","",""
"null","sound/msl/door.wav","null","audio-keyboard-response","86","58382","0.0-1.0-85.0","",""
"null","sound/msl/organ.wav","null","audio-keyboard-response","87","58893","0.0-1.0-86.0","",""
"null","sound/msl/Water.wav","null","audio-keyboard-response","88","59412","0.0-1.0-87.0","",""
"null","sound/msl/dog.wav","null","audio-keyboard-response","89","59933","0.0-1.0-88.0","",""
"null","sound/msl/cow.wav","null","audio-keyboard-response","90","60453","0.0-1.0-89.0","",""
"null","sound/msl/door_bell.wav","null","audio-keyboard-response","91","60973","0.0-1.0-90.0","",""
"null","sound/msl/slide_whistle.wav","null","audio-keyboard-response","92","61483","0.0-1.0-91.0","",""
"null","sound/msl/bird.wav","null","audio-keyboard-response","93","62003","0.0-1.0-92.0","",""
"null","sound/msl/frog.wav","null","audio-keyboard-response","94","62523","0.0-1.0-93.0","",""
"null","sound/msl/cat.wav","null","audio-keyboard-response","95","63033","0.0-1.0-94.0","",""
"null","sound/msl/clock.wav","null","audio-keyboard-response","96","63592","0.0-1.0-95.0","",""
"null","sound/msl/ding.wav","null","audio-keyboard-response","97","64113","0.0-1.0-96.0","",""
"null","sound/msl/goat.wav","null","audio-keyboard-response","98","64652","0.0-1.0-97.0","",""
"null","sound/msl/boing.wav","null","audio-keyboard-response","99","65164","0.0-1.0-98.0","",""
"null","sound/msl/Water.wav","null","audio-keyboard-response","100","65682","0.0-1.0-99.0","",""
"null","sound/msl/dog.wav","null","audio-keyboard-response","101","66203","0.0-1.0-100.0","",""
"null","sound/msl/cow.wav","null","audio-keyboard-response","102","66723","0.0-1.0-101.0","",""
"null","sound/msl/door_bell.wav","null","audio-keyboard-response","103","67233","0.0-1.0-102.0","",""
"null","sound/msl/slide_whistle.wav","null","audio-keyboard-response","104","67743","0.0-1.0-103.0","",""
"null","sound/msl/bird.wav","null","audio-keyboard-response","105","68263","0.0-1.0-104.0","",""
"null","sound/msl/duck.wav","null","audio-keyboard-response","106","68783","0.0-1.0-105.0","",""
"null","sound/msl/door.wav","null","audio-keyboard-response","107","69294","0.0-1.0-106.0","",""
"null","sound/msl/organ.wav","null","audio-keyboard-response","108","69803","0.0-1.0-107.0","",""
"null","sound/msl/Water.wav","null","audio-keyboard-response","109","70323","0.0-1.0-108.0","",""
"null","sound/msl/dog.wav","null","audio-keyboard-response","110","70843","0.0-1.0-109.0","",""
"null","sound/msl/cow.wav","null","audio-keyboard-response","111","71363","0.0-1.0-110.0","",""
"null","sound/msl/frog.wav","null","audio-keyboard-response","112","71883","0.0-1.0-111.0","",""
"null","sound/msl/cat.wav","null","audio-keyboard-response","113","72393","0.0-1.0-112.0","",""
"null","sound/msl/clock.wav","null","audio-keyboard-response","114","72952","0.0-1.0-113.0","",""
"null","sound/msl/door_bell.wav","null","audio-keyboard-response","115","73473","0.0-1.0-114.0","",""
"null","sound/msl/slide_whistle.wav","null","audio-keyboard-response","116","73983","0.0-1.0-115.0","",""
"null","sound/msl/bird.wav","null","audio-keyboard-response","117","74504","0.0-1.0-116.0","",""
"null","sound/msl/ding.wav","null","audio-keyboard-response","118","75023","0.0-1.0-117.0","",""
"null","sound/msl/goat.wav","null","audio-keyboard-response","119","75563","0.0-1.0-118.0","",""
"null","sound/msl/boing.wav","null","audio-keyboard-response","120","76073","0.0-1.0-119.0","",""
"null","sound/msl/duck.wav","null","audio-keyboard-response","121","76593","0.0-1.0-120.0","",""
"null","sound/msl/door.wav","null","audio-keyboard-response","122","77103","0.0-1.0-121.0","",""
"null","sound/msl/organ.wav","null","audio-keyboard-response","123","77613","0.0-1.0-122.0","",""
"null","sound/msl/Water.wav","null","audio-keyboard-response","124","78132","0.0-1.0-123.0","",""
"null","sound/msl/dog.wav","null","audio-keyboard-response","125","78643","0.0-1.0-124.0","",""
"null","sound/msl/cow.wav","null","audio-keyboard-response","126","79162","0.0-1.0-125.0","",""
"null","sound/msl/door_bell.wav","null","audio-keyboard-response","127","79673","0.0-1.0-126.0","",""
"null","sound/msl/slide_whistle.wav","null","audio-keyboard-response","128","80182","0.0-1.0-127.0","",""
"null","sound/msl/bird.wav","null","audio-keyboard-response","129","80702","0.0-1.0-128.0","",""
"null","sound/msl/frog.wav","null","audio-keyboard-response","130","81222","0.0-1.0-129.0","",""
"null","sound/msl/cat.wav","null","audio-keyboard-response","131","81733","0.0-1.0-130.0","",""
"null","sound/msl/clock.wav","null","audio-keyboard-response","132","82292","0.0-1.0-131.0","",""
"null","sound/msl/Water.wav","null","audio-keyboard-response","133","82812","0.0-1.0-132.0","",""
"null","sound/msl/dog.wav","null","audio-keyboard-response","134","83332","0.0-1.0-133.0","",""
"null","sound/msl/cow.wav","null","audio-keyboard-response","135","83853","0.0-1.0-134.0","",""
"null","sound/msl/ding.wav","null","audio-keyboard-response","136","84373","0.0-1.0-135.0","",""
"null","sound/msl/goat.wav","null","audio-keyboard-response","137","84913","0.0-1.0-136.0","",""
"null","sound/msl/boing.wav","null","audio-keyboard-response","138","85423","0.0-1.0-137.0","",""
"null","sound/msl/frog.wav","null","audio-keyboard-response","139","85943","0.0-1.0-138.0","",""
"null","sound/msl/cat.wav","null","audio-keyboard-response","140","86453","0.0-1.0-139.0","",""
"null","sound/msl/clock.wav","null","audio-keyboard-response","141","87013","0.0-1.0-140.0","",""
"null","sound/msl/duck.wav","null","audio-keyboard-response","142","87533","0.0-1.0-141.0","",""
"null","sound/msl/door.wav","null","audio-keyboard-response","143","88043","0.0-1.0-142.0","",""
"null","sound/msl/organ.wav","null","audio-keyboard-response","144","88552","0.0-1.0-143.0","",""
"null","sound/msl/door_bell.wav","null","audio-keyboard-response","145","89062","0.0-1.0-144.0","",""
"null","sound/msl/slide_whistle.wav","null","audio-keyboard-response","146","89573","0.0-1.0-145.0","",""
"null","sound/msl/bird.wav","null","audio-keyboard-response","147","90094","0.0-1.0-146.0","",""
"null","sound/msl/ding.wav","null","audio-keyboard-response","148","90613","0.0-1.0-147.0","",""
"null","sound/msl/goat.wav","null","audio-keyboard-response","149","91152","0.0-1.0-148.0","",""
"null","sound/msl/boing.wav","null","audio-keyboard-response","150","91663","0.0-1.0-149.0","",""
"null","sound/msl/duck.wav","null","audio-keyboard-response","151","92182","0.0-1.0-150.0","",""
"null","sound/msl/door.wav","null","audio-keyboard-response","152","92692","0.0-1.0-151.0","",""
"null","sound/msl/organ.wav","null","audio-keyboard-response","153","93202","0.0-1.0-152.0","",""
"null","sound/msl/Water.wav","null","audio-keyboard-response","154","93723","0.0-1.0-153.0","",""
"null","sound/msl/dog.wav","null","audio-keyboard-response","155","94243","0.0-1.0-154.0","",""
"null","sound/msl/cow.wav","null","audio-keyboard-response","156","94763","0.0-1.0-155.0","",""
"null","sound/msl/frog.wav","null","audio-keyboard-response","157","95282","0.0-1.0-156.0","",""
"null","sound/msl/cat.wav","null","audio-keyboard-response","158","95793","0.0-1.0-157.0","",""
"null","sound/msl/clock.wav","null","audio-keyboard-response","159","96353","0.0-1.0-158.0","",""
"null","sound/msl/door_bell.wav","null","audio-keyboard-response","160","96873","0.0-1.0-159.0","",""
"null","sound/msl/slide_whistle.wav","null","audio-keyboard-response","161","97382","0.0-1.0-160.0","",""
"null","sound/msl/bird.wav","null","audio-keyboard-response","162","97903","0.0-1.0-161.0","",""
"null","sound/msl/Water.wav","null","audio-keyboard-response","163","98423","0.0-1.0-162.0","",""
"null","sound/msl/dog.wav","null","audio-keyboard-response","164","98943","0.0-1.0-163.0","",""
"null","sound/msl/cow.wav","null","audio-keyboard-response","165","99463","0.0-1.0-164.0","",""
"null","sound/msl/frog.wav","null","audio-keyboard-response","166","99972","0.0-1.0-165.0","",""
"null","sound/msl/cat.wav","null","audio-keyboard-response","167","100483","0.0-1.0-166.0","",""
"null","sound/msl/clock.wav","null","audio-keyboard-response","168","101042","0.0-1.0-167.0","",""
"null","sound/msl/duck.wav","null","audio-keyboard-response","169","101563","0.0-1.0-168.0","",""
"null","sound/msl/door.wav","null","audio-keyboard-response","170","102072","0.0-1.0-169.0","",""
"null","sound/msl/organ.wav","null","audio-keyboard-response","171","102583","0.0-1.0-170.0","",""
"null","sound/msl/ding.wav","null","audio-keyboard-response","172","103103","0.0-1.0-171.0","",""
"null","sound/msl/goat.wav","null","audio-keyboard-response","173","103643","0.0-1.0-172.0","",""
"null","sound/msl/boing.wav","null","audio-keyboard-response","174","104153","0.0-1.0-173.0","",""
"null","sound/msl/door_bell.wav","null","audio-keyboard-response","175","104672","0.0-1.0-174.0","",""
"null","sound/msl/slide_whistle.wav","null","audio-keyboard-response","176","105183","0.0-1.0-175.0","",""
"null","sound/msl/bird.wav","null","audio-keyboard-response","177","105704","0.0-1.0-176.0","",""
"null","sound/msl/Water.wav","null","audio-keyboard-response","178","106223","0.0-1.0-177.0","",""
"null","sound/msl/dog.wav","null","audio-keyboard-response","179","106733","0.0-1.0-178.0","",""
"null","sound/msl/cow.wav","null","audio-keyboard-response","180","107253","0.0-1.0-179.0","",""
"null","sound/msl/ding.wav","null","audio-keyboard-response","181","107773","0.0-1.0-180.0","",""
"null","sound/msl/goat.wav","null","audio-keyboard-response","182","108312","0.0-1.0-181.0","",""
"null","sound/msl/boing.wav","null","audio-keyboard-response","183","108822","0.0-1.0-182.0","",""
"null","sound/msl/frog.wav","null","audio-keyboard-response","184","109343","0.0-1.0-183.0","",""
"null","sound/msl/cat.wav","null","audio-keyboard-response","185","109853","0.0-1.0-184.0","",""
"null","sound/msl/clock.wav","null","audio-keyboard-response","186","110412","0.0-1.0-185.0","",""
"null","sound/msl/duck.wav","null","audio-keyboard-response","187","110932","0.0-1.0-186.0","",""
"null","sound/msl/door.wav","null","audio-keyboard-response","188","111443","0.0-1.0-187.0","",""
"null","sound/msl/organ.wav","null","audio-keyboard-response","189","111953","0.0-1.0-188.0","",""
"null","sound/msl/door_bell.wav","null","audio-keyboard-response","190","112473","0.0-1.0-189.0","",""
"null","sound/msl/slide_whistle.wav","null","audio-keyboard-response","191","112982","0.0-1.0-190.0","",""
"null","sound/msl/bird.wav","null","audio-keyboard-response","192","113503","0.0-1.0-191.0","",""
"null","sound/msl/Water.wav","null","audio-keyboard-response","193","114022","0.0-1.0-192.0","",""
"null","sound/msl/dog.wav","null","audio-keyboard-response","194","114543","0.0-1.0-193.0","",""
"null","sound/msl/cow.wav","null","audio-keyboard-response","195","115053","0.0-1.0-194.0","",""
"null","sound/msl/ding.wav","null","audio-keyboard-response","196","115573","0.0-1.0-195.0","",""
"null","sound/msl/goat.wav","null","audio-keyboard-response","197","116113","0.0-1.0-196.0","",""
"null","sound/msl/boing.wav","null","audio-keyboard-response","198","116623","0.0-1.0-197.0","",""
"null","sound/msl/duck.wav","null","audio-keyboard-response","199","117143","0.0-1.0-198.0","",""
"null","sound/msl/door.wav","null","audio-keyboard-response","200","117652","0.0-1.0-199.0","",""
"null","sound/msl/organ.wav","null","audio-keyboard-response","201","118162","0.0-1.0-200.0","",""
"null","sound/msl/frog.wav","null","audio-keyboard-response","202","118673","0.0-1.0-201.0","",""
"null","sound/msl/cat.wav","null","audio-keyboard-response","203","119183","0.0-1.0-202.0","",""
"null","sound/msl/clock.wav","null","audio-keyboard-response","204","119743","0.0-1.0-203.0","",""
"null","sound/msl/door_bell.wav","null","audio-keyboard-response","205","120263","0.0-1.0-204.0","",""
"null","sound/msl/slide_whistle.wav","null","audio-keyboard-response","206","120772","0.0-1.0-205.0","",""
"null","sound/msl/bird.wav","null","audio-keyboard-response","207","121293","0.0-1.0-206.0","",""
"null","sound/msl/Water.wav","null","audio-keyboard-response","208","121813","0.0-1.0-207.0","",""
"null","sound/msl/dog.wav","null","audio-keyboard-response","209","122332","0.0-1.0-208.0","",""
"null","sound/msl/cow.wav","null","audio-keyboard-response","210","122853","0.0-1.0-209.0","",""
"null","sound/msl/duck.wav","null","audio-keyboard-response","211","123362","0.0-1.0-210.0","",""
"null","sound/msl/door.wav","null","audio-keyboard-response","212","123872","0.0-1.0-211.0","",""
"null","sound/msl/organ.wav","null","audio-keyboard-response","213","124383","0.0-1.0-212.0","",""
"null","sound/msl/door_bell.wav","null","audio-keyboard-response","214","124893","0.0-1.0-213.0","",""
"null","sound/msl/slide_whistle.wav","null","audio-keyboard-response","215","125403","0.0-1.0-214.0","",""
"null","sound/msl/bird.wav","null","audio-keyboard-response","216","125923","0.0-1.0-215.0","",""
"null","sound/msl/ding.wav","null","audio-keyboard-response","217","126443","0.0-1.0-216.0","",""
"null","sound/msl/goat.wav","null","audio-keyboard-response","218","126983","0.0-1.0-217.0","",""
"null","sound/msl/boing.wav","null","audio-keyboard-response","219","127492","0.0-1.0-218.0","",""
"null","sound/msl/frog.wav","null","audio-keyboard-response","220","128013","0.0-1.0-219.0","",""
"null","sound/msl/cat.wav","null","audio-keyboard-response","221","128523","0.0-1.0-220.0","",""
"null","sound/msl/clock.wav","null","audio-keyboard-response","222","129082","0.0-1.0-221.0","",""
"null","sound/msl/Water.wav","null","audio-keyboard-response","223","129604","0.0-1.0-222.0","",""
"null","sound/msl/dog.wav","null","audio-keyboard-response","224","130123","0.0-1.0-223.0","",""
"null","sound/msl/cow.wav","null","audio-keyboard-response","225","130643","0.0-1.0-224.0","",""
"null","sound/msl/ding.wav","null","audio-keyboard-response","226","131163","0.0-1.0-225.0","",""
"null","sound/msl/goat.wav","null","audio-keyboard-response","227","131702","0.0-1.0-226.0","",""
"null","sound/msl/boing.wav","null","audio-keyboard-response","228","132213","0.0-1.0-227.0","",""
"null","sound/msl/door_bell.wav","null","audio-keyboard-response","229","132733","0.0-1.0-228.0","",""
"null","sound/msl/slide_whistle.wav","null","audio-keyboard-response","230","133243","0.0-1.0-229.0","",""
"null","sound/msl/bird.wav","null","audio-keyboard-response","231","133764","0.0-1.0-230.0","",""
"null","sound/msl/ding.wav","null","audio-keyboard-response","232","134283","0.0-1.0-231.0","",""
"null","sound/msl/goat.wav","null","audio-keyboard-response","233","134822","0.0-1.0-232.0","",""
"null","sound/msl/boing.wav","null","audio-keyboard-response","234","135334","0.0-1.0-233.0","",""
"null","sound/msl/Water.wav","null","audio-keyboard-response","235","135853","0.0-1.0-234.0","",""
"null","sound/msl/dog.wav","null","audio-keyboard-response","236","136374","0.0-1.0-235.0","",""
"null","sound/msl/cow.wav","null","audio-keyboard-response","237","136883","0.0-1.0-236.0","",""
"null","sound/msl/frog.wav","null","audio-keyboard-response","238","137403","0.0-1.0-237.0","",""
"null","sound/msl/cat.wav","null","audio-keyboard-response","239","137913","0.0-1.0-238.0","",""
"null","sound/msl/clock.wav","null","audio-keyboard-response","240","138473","0.0-1.0-239.0","",""
"null","sound/msl/duck.wav","null","audio-keyboard-response","241","138994","0.0-1.0-240.0","",""
"null","sound/msl/door.wav","null","audio-keyboard-response","242","139502","0.0-1.0-241.0","",""
"null","sound/msl/organ.wav","null","audio-keyboard-response","243","140012","0.0-1.0-242.0","",""
"null","sound/msl/door_bell.wav","null","audio-keyboard-response","244","140523","0.0-1.0-243.0","",""
"null","sound/msl/slide_whistle.wav","null","audio-keyboard-response","245","141033","0.0-1.0-244.0","",""
"null","sound/msl/bird.wav","null","audio-keyboard-response","246","141553","0.0-1.0-245.0","",""
"null","sound/msl/Water.wav","null","audio-keyboard-response","247","142073","0.0-1.0-246.0","",""
"null","sound/msl/dog.wav","null","audio-keyboard-response","248","142592","0.0-1.0-247.0","",""
"null","sound/msl/cow.wav","null","audio-keyboard-response","249","143102","0.0-1.0-248.0","",""
"null","sound/msl/frog.wav","null","audio-keyboard-response","250","143623","0.0-1.0-249.0","",""
"null","sound/msl/cat.wav","null","audio-keyboard-response","251","144133","0.0-1.0-250.0","",""
"null","sound/msl/clock.wav","null","audio-keyboard-response","252","144693","0.0-1.0-251.0","",""
"null","sound/msl/duck.wav","null","audio-keyboard-response","253","145213","0.0-1.0-252.0","",""
"null","sound/msl/door.wav","null","audio-keyboard-response","254","145722","0.0-1.0-253.0","",""
"null","sound/msl/organ.wav","null","audio-keyboard-response","255","146233","0.0-1.0-254.0","",""
"null","sound/msl/ding.wav","null","audio-keyboard-response","256","146743","0.0-1.0-255.0","",""
"null","sound/msl/goat.wav","null","audio-keyboard-response","257","147283","0.0-1.0-256.0","",""
"null","sound/msl/boing.wav","null","audio-keyboard-response","258","147793","0.0-1.0-257.0","",""
"null","sound/msl/door_bell.wav","null","audio-keyboard-response","259","148313","0.0-1.0-258.0","",""
"null","sound/msl/slide_whistle.wav","null","audio-keyboard-response","260","148822","0.0-1.0-259.0","",""
"null","sound/msl/bird.wav","null","audio-keyboard-response","261","149343","0.0-1.0-260.0","",""
"null","sound/msl/duck.wav","null","audio-keyboard-response","262","149863","0.0-1.0-261.0","",""
"null","sound/msl/door.wav","null","audio-keyboard-response","263","150373","0.0-1.0-262.0","",""
"null","sound/msl/organ.wav","null","audio-keyboard-response","264","150883","0.0-1.0-263.0","",""
"null","sound/msl/frog.wav","null","audio-keyboard-response","265","151404","0.0-1.0-264.0","",""
"null","sound/msl/cat.wav","null","audio-keyboard-response","266","151913","0.0-1.0-265.0","",""
"null","sound/msl/clock.wav","null","audio-keyboard-response","267","152473","0.0-1.0-266.0","",""
"null","sound/msl/ding.wav","null","audio-keyboard-response","268","152983","0.0-1.0-267.0","",""
"null","sound/msl/goat.wav","null","audio-keyboard-response","269","153523","0.0-1.0-268.0","",""
"null","sound/msl/boing.wav","null","audio-keyboard-response","270","154032","0.0-1.0-269.0","",""
"null","sound/msl/Water.wav","null","audio-keyboard-response","271","154553","0.0-1.0-270.0","",""
"null","sound/msl/dog.wav","null","audio-keyboard-response","272","155073","0.0-1.0-271.0","",""
"null","sound/msl/cow.wav","null","audio-keyboard-response","273","155593","0.0-1.0-272.0","",""
"null","sound/msl/door_bell.wav","null","audio-keyboard-response","274","156102","0.0-1.0-273.0","",""
"null","sound/msl/slide_whistle.wav","null","audio-keyboard-response","275","156613","0.0-1.0-274.0","",""
"null","sound/msl/bird.wav","null","audio-keyboard-response","276","157133","0.0-1.0-275.0","",""
"null","sound/msl/duck.wav","null","audio-keyboard-response","277","157653","0.0-1.0-276.0","",""
"null","sound/msl/door.wav","null","audio-keyboard-response","278","158162","0.0-1.0-277.0","",""
"null","sound/msl/organ.wav","null","audio-keyboard-response","279","158673","0.0-1.0-278.0","",""
"null","sound/msl/frog.wav","null","audio-keyboard-response","280","159182","0.0-1.0-279.0","",""
"null","sound/msl/cat.wav","null","audio-keyboard-response","281","159692","0.0-1.0-280.0","",""
"null","sound/msl/clock.wav","null","audio-keyboard-response","282","160253","0.0-1.0-281.0","",""
"null","sound/msl/Water.wav","null","audio-keyboard-response","283","160773","0.0-1.0-282.0","",""
"null","sound/msl/dog.wav","null","audio-keyboard-response","284","161293","0.0-1.0-283.0","",""
"null","sound/msl/cow.wav","null","audio-keyboard-response","285","161813","0.0-1.0-284.0","",""
"null","sound/msl/ding.wav","null","audio-keyboard-response","286","162322","0.0-1.0-285.0","",""
"null","sound/msl/goat.wav","null","audio-keyboard-response","287","162862","0.0-1.0-286.0","",""
"null","sound/msl/boing.wav","null","audio-keyboard-response","288","163373","0.0-1.0-287.0","",""
"null","sound/msl/door_bell.wav","null","audio-keyboard-response","289","163893","0.0-1.0-288.0","",""
"null","sound/msl/slide_whistle.wav","null","audio-keyboard-response","290","164403","0.0-1.0-289.0","",""
"null","sound/msl/bird.wav","null","audio-keyboard-response","291","164923","0.0-1.0-290.0","",""
"null","sound/msl/frog.wav","null","audio-keyboard-response","292","165443","0.0-1.0-291.0","",""
"null","sound/msl/cat.wav","null","audio-keyboard-response","293","165953","0.0-1.0-292.0","",""
"null","sound/msl/clock.wav","null","audio-keyboard-response","294","166513","0.0-1.0-293.0","",""
"null","sound/msl/duck.wav","null","audio-keyboard-response","295","167032","0.0-1.0-294.0","",""
"null","sound/msl/door.wav","null","audio-keyboard-response","296","167543","0.0-1.0-295.0","",""
"null","sound/msl/organ.wav","null","audio-keyboard-response","297","168054","0.0-1.0-296.0","",""
"null","sound/msl/door_bell.wav","null","audio-keyboard-response","298","168572","0.0-1.0-297.0","",""
"null","sound/msl/slide_whistle.wav","null","audio-keyboard-response","299","169083","0.0-1.0-298.0","",""
"null","sound/msl/bird.wav","null","audio-keyboard-response","300","169603","0.0-1.0-299.0","",""
"null","sound/msl/Water.wav","null","audio-keyboard-response","301","170123","0.0-1.0-300.0","",""
"null","sound/msl/dog.wav","null","audio-keyboard-response","302","170633","0.0-1.0-301.0","",""
"null","sound/msl/cow.wav","null","audio-keyboard-response","303","171153","0.0-1.0-302.0","",""
"null","sound/msl/frog.wav","null","audio-keyboard-response","304","171673","0.0-1.0-303.0","",""
"null","sound/msl/cat.wav","null","audio-keyboard-response","305","172182","0.0-1.0-304.0","",""
"null","sound/msl/clock.wav","null","audio-keyboard-response","306","172743","0.0-1.0-305.0","",""
"null","sound/msl/ding.wav","null","audio-keyboard-response","307","173263","0.0-1.0-306.0","",""
"null","sound/msl/goat.wav","null","audio-keyboard-response","308","173802","0.0-1.0-307.0","",""
"null","sound/msl/boing.wav","null","audio-keyboard-response","309","174313","0.0-1.0-308.0","",""
"null","sound/msl/duck.wav","null","audio-keyboard-response","310","174833","0.0-1.0-309.0","",""
"null","sound/msl/door.wav","null","audio-keyboard-response","311","175342","0.0-1.0-310.0","",""
"null","sound/msl/organ.wav","null","audio-keyboard-response","312","175852","0.0-1.0-311.0","",""
"null","sound/msl/door_bell.wav","null","audio-keyboard-response","313","176363","0.0-1.0-312.0","",""
"null","sound/msl/slide_whistle.wav","null","audio-keyboard-response","314","176873","0.0-1.0-313.0","",""
"null","sound/msl/bird.wav","null","audio-keyboard-response","315","177393","0.0-1.0-314.0","",""
"null","sound/msl/Water.wav","null","audio-keyboard-response","316","177912","0.0-1.0-315.0","",""
"null","sound/msl/dog.wav","null","audio-keyboard-response","317","178433","0.0-1.0-316.0","",""
"null","sound/msl/cow.wav","null","audio-keyboard-response","318","178943","0.0-1.0-317.0","",""
"null","sound/msl/frog.wav","null","audio-keyboard-response","319","179463","0.0-1.0-318.0","",""
"null","sound/msl/cat.wav","null","audio-keyboard-response","320","179973","0.0-1.0-319.0","",""
"null","sound/msl/clock.wav","null","audio-keyboard-response","321","180532","0.0-1.0-320.0","",""
"null","sound/msl/duck.wav","null","audio-keyboard-response","322","181053","0.0-1.0-321.0","",""
"null","sound/msl/door.wav","null","audio-keyboard-response","323","181563","0.0-1.0-322.0","",""
"null","sound/msl/organ.wav","null","audio-keyboard-response","324","182072","0.0-1.0-323.0","",""
"null","sound/msl/Water.wav","null","audio-keyboard-response","325","182593","0.0-1.0-324.0","",""
"null","sound/msl/dog.wav","null","audio-keyboard-response","326","183112","0.0-1.0-325.0","",""
"null","sound/msl/cow.wav","null","audio-keyboard-response","327","183633","0.0-1.0-326.0","",""
"null","sound/msl/ding.wav","null","audio-keyboard-response","328","184153","0.0-1.0-327.0","",""
"null","sound/msl/goat.wav","null","audio-keyboard-response","329","184692","0.0-1.0-328.0","",""
"null","sound/msl/boing.wav","null","audio-keyboard-response","330","185203","0.0-1.0-329.0","",""
"null","sound/msl/door_bell.wav","null","audio-keyboard-response","331","185723","0.0-1.0-330.0","",""
"null","sound/msl/slide_whistle.wav","null","audio-keyboard-response","332","186233","0.0-1.0-331.0","",""
"null","sound/msl/bird.wav","null","audio-keyboard-response","333","186753","0.0-1.0-332.0","",""
"null","sound/msl/frog.wav","null","audio-keyboard-response","334","187273","0.0-1.0-333.0","",""
"null","sound/msl/cat.wav","null","audio-keyboard-response","335","187783","0.0-1.0-334.0","",""
"null","sound/msl/clock.wav","null","audio-keyboard-response","336","188342","0.0-1.0-335.0","",""
"null","sound/msl/ding.wav","null","audio-keyboard-response","337","188863","0.0-1.0-336.0","",""
"null","sound/msl/goat.wav","null","audio-keyboard-response","338","189413","0.0-1.0-337.0","",""
"null","sound/msl/boing.wav","null","audio-keyboard-response","339","189923","0.0-1.0-338.0","",""
"null","sound/msl/duck.wav","null","audio-keyboard-response","340","190442","0.0-1.0-339.0","",""
"null","sound/msl/door.wav","null","audio-keyboard-response","341","190953","0.0-1.0-340.0","",""
"null","sound/msl/organ.wav","null","audio-keyboard-response","342","191463","0.0-1.0-341.0","",""
"null","sound/msl/frog.wav","null","audio-keyboard-response","343","191982","0.0-1.0-342.0","",""
"null","sound/msl/cat.wav","null","audio-keyboard-response","344","192494","0.0-1.0-343.0","",""
"null","sound/msl/clock.wav","null","audio-keyboard-response","345","193052","0.0-1.0-344.0","",""
"null","sound/msl/duck.wav","null","audio-keyboard-response","346","193565","0.0-1.0-345.0","",""
"null","sound/msl/door.wav","null","audio-keyboard-response","347","194073","0.0-1.0-346.0","",""
"null","sound/msl/organ.wav","null","audio-keyboard-response","348","194583","0.0-1.0-347.0","",""
"null","sound/msl/ding.wav","null","audio-keyboard-response","349","195103","0.0-1.0-348.0","",""
"null","sound/msl/goat.wav","null","audio-keyboard-response","350","195652","0.0-1.0-349.0","",""
"null","sound/msl/boing.wav","null","audio-keyboard-response","351","196163","0.0-1.0-350.0","",""
"null","sound/msl/door_bell.wav","null","audio-keyboard-response","352","196683","0.0-1.0-351.0","",""
"null","sound/msl/slide_whistle.wav","null","audio-keyboard-response","353","197193","0.0-1.0-352.0","",""
"null","sound/msl/bird.wav","null","audio-keyboard-response","354","197714","0.0-1.0-353.0","",""
"null","sound/msl/frog.wav","null","audio-keyboard-response","355","198233","0.0-1.0-354.0","",""
"null","sound/msl/cat.wav","null","audio-keyboard-response","356","198743","0.0-1.0-355.0","",""
"null","sound/msl/clock.wav","null","audio-keyboard-response","357","199303","0.0-1.0-356.0","",""
"null","sound/msl/duck.wav","null","audio-keyboard-response","358","199823","0.0-1.0-357.0","",""
"null","sound/msl/door.wav","null","audio-keyboard-response","359","200332","0.0-1.0-358.0","",""
"null","sound/msl/organ.wav","null","audio-keyboard-response","360","200843","0.0-1.0-359.0","",""
"18480","Instructions2-eng.png","49","image-keyboard-response","361","219325","0.0-2.0","",""
"null","sound/msl/frog.wav","null","audio-keyboard-response","362","219843","0.0-3.0-0.0","",""
"null","sound/msl/cat.wav","null","audio-keyboard-response","363","220353","0.0-3.0-1.0","",""
"null","sound/msl/clock.wav","null","audio-keyboard-response","364","220914","0.0-3.0-2.0","",""
"null","sound/asl/silence.wav","null","audio-keyboard-response","365","221419","0.0-3.0-3.0","",""
"null","sound/msl/frog.wav","null","audio-keyboard-response","366","221923","0.0-3.0-4.0","",""
"null","sound/msl/slide_whistle.wav","null","audio-keyboard-response","367","222432","0.0-3.0-5.0","",""
"null","sound/msl/organ.wav","null","audio-keyboard-response","368","222942","0.0-3.0-6.0","",""
"8338","sound/asl/silence.wav","49","audio-keyboard-response","369","231288","0.0-3.0-7.0","true",""
"null","sound/msl/ding.wav","null","audio-keyboard-response","370","231803","0.0-4.0-0.0","",""
"null","sound/msl/cat.wav","null","audio-keyboard-response","371","232313","0.0-4.0-1.0","",""
"null","sound/msl/bird.wav","null","audio-keyboard-response","372","232833","0.0-4.0-2.0","",""
"null","sound/asl/silence.wav","null","audio-keyboard-response","373","233335","0.0-4.0-3.0","",""
"null","sound/msl/door_bell.wav","null","audio-keyboard-response","374","233853","0.0-4.0-4.0","",""
"null","sound/msl/slide_whistle.wav","null","audio-keyboard-response","375","234362","0.0-4.0-5.0","",""
"null","sound/msl/bird.wav","null","audio-keyboard-response","376","234883","0.0-4.0-6.0","",""
"11569","sound/asl/silence.wav","50","audio-keyboard-response","377","246458","0.0-4.0-7.0","true",""
"null","sound/msl/duck.wav","null","audio-keyboard-response","378","246962","0.0-5.0-0.0","",""
"null","sound/msl/door.wav","null","audio-keyboard-response","379","247472","0.0-5.0-1.0","",""
"null","sound/msl/organ.wav","null","audio-keyboard-response","380","247983","0.0-5.0-2.0","",""
"null","sound/asl/silence.wav","null","audio-keyboard-response","381","248484","0.0-5.0-3.0","",""
"null","sound/msl/door_bell.wav","null","audio-keyboard-response","382","249003","0.0-5.0-4.0","",""
"null","sound/msl/door.wav","null","audio-keyboard-response","383","249512","0.0-5.0-5.0","",""
"null","sound/msl/cow.wav","null","audio-keyboard-response","384","250032","0.0-5.0-6.0","",""
"13662","sound/asl/silence.wav","50","audio-keyboard-response","385","263702","0.0-5.0-7.0","false",""
"null","sound/msl/door_bell.wav","null","audio-keyboard-response","386","264224","0.0-6.0-0.0","",""
"null","sound/msl/slide_whistle.wav","null","audio-keyboard-response","387","264733","0.0-6.0-1.0","",""
"null","sound/msl/bird.wav","null","audio-keyboard-response","388","265243","0.0-6.0-2.0","",""
"null","sound/asl/silence.wav","null","audio-keyboard-response","389","265746","0.0-6.0-3.0","",""
"null","sound/msl/door_bell.wav","null","audio-keyboard-response","390","266252","0.0-6.0-4.0","",""
"null","sound/msl/door.wav","null","audio-keyboard-response","391","266763","0.0-6.0-5.0","",""
"null","sound/msl/cow.wav","null","audio-keyboard-response","392","267283","0.0-6.0-6.0","",""
"1497","sound/asl/silence.wav","50","audio-keyboard-response","393","268787","0.0-6.0-7.0","false",""
"null","sound/msl/duck.wav","null","audio-keyboard-response","394","269303","0.0-7.0-0.0","",""
"null","sound/msl/dog.wav","null","audio-keyboard-response","395","269824","0.0-7.0-1.0","",""
"null","sound/msl/boing.wav","null","audio-keyboard-response","396","270333","0.0-7.0-2.0","",""
"null","sound/asl/silence.wav","null","audio-keyboard-response","397","270834","0.0-7.0-3.0","",""
"null","sound/msl/frog.wav","null","audio-keyboard-response","398","271354","0.0-7.0-4.0","",""
"null","sound/msl/cat.wav","null","audio-keyboard-response","399","271863","0.0-7.0-5.0","",""
"null","sound/msl/clock.wav","null","audio-keyboard-response","400","272423","0.0-7.0-6.0","",""
"1170","sound/asl/silence.wav","50","audio-keyboard-response","401","273595","0.0-7.0-7.0","true",""
"null","sound/msl/Water.wav","null","audio-keyboard-response","402","274113","0.0-8.0-0.0","",""
"null","sound/msl/goat.wav","null","audio-keyboard-response","403","274654","0.0-8.0-1.0","",""
"null","sound/msl/clock.wav","null","audio-keyboard-response","404","275212","0.0-8.0-2.0","",""
"null","sound/asl/silence.wav","null","audio-keyboard-response","405","275714","0.0-8.0-3.0","",""
"null","sound/msl/duck.wav","null","audio-keyboard-response","406","276242","0.0-8.0-4.0","",""
"null","sound/msl/door.wav","null","audio-keyboard-response","407","276752","0.0-8.0-5.0","",""
"null","sound/msl/organ.wav","null","audio-keyboard-response","408","277262","0.0-8.0-6.0","",""
"1150","sound/asl/silence.wav","50","audio-keyboard-response","409","278413","0.0-8.0-7.0","true",""
"null","sound/msl/door_bell.wav","null","audio-keyboard-response","410","278933","0.0-9.0-0.0","",""
"null","sound/msl/door.wav","null","audio-keyboard-response","411","279442","0.0-9.0-1.0","",""
"null","sound/msl/cow.wav","null","audio-keyboard-response","412","279953","0.0-9.0-2.0","",""
"null","sound/asl/silence.wav","null","audio-keyboard-response","413","280456","0.0-9.0-3.0","",""
"null","sound/msl/Water.wav","null","audio-keyboard-response","414","280972","0.0-9.0-4.0","",""
"null","sound/msl/dog.wav","null","audio-keyboard-response","415","281493","0.0-9.0-5.0","",""
"null","sound/msl/cow.wav","null","audio-keyboard-response","416","282013","0.0-9.0-6.0","",""
"6652","sound/asl/silence.wav","49","audio-keyboard-response","417","288667","0.0-9.0-7.0","false",""
"null","sound/msl/Water.wav","null","audio-keyboard-response","418","289183","0.0-10.0-0.0","",""
"null","sound/msl/goat.wav","null","audio-keyboard-response","419","289723","0.0-10.0-1.0","",""
"null","sound/msl/clock.wav","null","audio-keyboard-response","420","290283","0.0-10.0-2.0","",""
"null","sound/asl/silence.wav","null","audio-keyboard-response","421","290784","0.0-10.0-3.0","",""
"null","sound/msl/ding.wav","null","audio-keyboard-response","422","291293","0.0-10.0-4.0","",""
"null","sound/msl/goat.wav","null","audio-keyboard-response","423","291833","0.0-10.0-5.0","",""
"null","sound/msl/boing.wav","null","audio-keyboard-response","424","292343","0.0-10.0-6.0","",""
"2401","sound/asl/silence.wav","50","audio-keyboard-response","425","294747","0.0-10.0-7.0","true",""
"null","sound/msl/ding.wav","null","audio-keyboard-response","426","295263","0.0-11.0-0.0","",""
"null","sound/msl/goat.wav","null","audio-keyboard-response","427","295802","0.0-11.0-1.0","",""
"null","sound/msl/boing.wav","null","audio-keyboard-response","428","296312","0.0-11.0-2.0","",""
"null","sound/asl/silence.wav","null","audio-keyboard-response","429","296814","0.0-11.0-3.0","",""
"null","sound/msl/duck.wav","null","audio-keyboard-response","430","297333","0.0-11.0-4.0","",""
"null","sound/msl/dog.wav","null","audio-keyboard-response","431","297853","0.0-11.0-5.0","",""
"null","sound/msl/boing.wav","null","audio-keyboard-response","432","298363","0.0-11.0-6.0","",""
"8428","sound/asl/silence.wav","49","audio-keyboard-response","433","306799","0.0-11.0-7.0","true",""
"null","sound/msl/frog.wav","null","audio-keyboard-response","434","307323","0.0-12.0-0.0","",""
"null","sound/msl/slide_whistle.wav","null","audio-keyboard-response","435","307833","0.0-12.0-1.0","",""
"null","sound/msl/organ.wav","null","audio-keyboard-response","436","308343","0.0-12.0-2.0","",""
"null","sound/asl/silence.wav","null","audio-keyboard-response","437","308843","0.0-12.0-3.0","",""
"null","sound/msl/ding.wav","null","audio-keyboard-response","438","309363","0.0-12.0-4.0","",""
"null","sound/msl/goat.wav","null","audio-keyboard-response","439","309913","0.0-12.0-5.0","",""
"null","sound/msl/boing.wav","null","audio-keyboard-response","440","310422","0.0-12.0-6.0","",""
"9709","sound/asl/silence.wav","50","audio-keyboard-response","441","320135","0.0-12.0-7.0","true",""
"null","sound/msl/ding.wav","null","audio-keyboard-response","442","320643","0.0-13.0-0.0","",""
"null","sound/msl/cat.wav","null","audio-keyboard-response","443","321153","0.0-13.0-1.0","",""
"null","sound/msl/bird.wav","null","audio-keyboard-response","444","321672","0.0-13.0-2.0","",""
"null","sound/asl/silence.wav","null","audio-keyboard-response","445","322173","0.0-13.0-3.0","",""
"null","sound/msl/frog.wav","null","audio-keyboard-response","446","322684","0.0-13.0-4.0","",""
"null","sound/msl/cat.wav","null","audio-keyboard-response","447","323193","0.0-13.0-5.0","",""
"null","sound/msl/clock.wav","null","audio-keyboard-response","448","323753","0.0-13.0-6.0","",""
"5251","sound/asl/silence.wav","50","audio-keyboard-response","449","329010","0.0-13.0-7.0","true",""
"null","sound/msl/door_bell.wav","null","audio-keyboard-response","450","329512","0.0-14.0-0.0","",""
"null","sound/msl/slide_whistle.wav","null","audio-keyboard-response","451","330023","0.0-14.0-1.0","",""
"null","sound/msl/bird.wav","null","audio-keyboard-response","452","330542","0.0-14.0-2.0","",""
"null","sound/asl/silence.wav","null","audio-keyboard-response","453","331045","0.0-14.0-3.0","",""
"null","sound/msl/Water.wav","null","audio-keyboard-response","454","331564","0.0-14.0-4.0","",""
"null","sound/msl/goat.wav","null","audio-keyboard-response","455","332103","0.0-14.0-5.0","",""
"null","sound/msl/clock.wav","null","audio-keyboard-response","456","332663","0.0-14.0-6.0","",""
"5080","sound/asl/silence.wav","49","audio-keyboard-response","457","337745","0.0-14.0-7.0","true",""
"null","sound/msl/duck.wav","null","audio-keyboard-response","458","338263","0.0-15.0-0.0","",""
"null","sound/msl/door.wav","null","audio-keyboard-response","459","338773","0.0-15.0-1.0","",""
"null","sound/msl/organ.wav","null","audio-keyboard-response","460","339282","0.0-15.0-2.0","",""
"null","sound/asl/silence.wav","null","audio-keyboard-response","461","339784","0.0-15.0-3.0","",""
"null","sound/msl/frog.wav","null","audio-keyboard-response","462","340293","0.0-15.0-4.0","",""
"null","sound/msl/slide_whistle.wav","null","audio-keyboard-response","463","340803","0.0-15.0-5.0","",""
"null","sound/msl/organ.wav","null","audio-keyboard-response","464","341313","0.0-15.0-6.0","",""
"2989","sound/asl/silence.wav","49","audio-keyboard-response","465","344309","0.0-15.0-7.0","true",""
"null","sound/msl/Water.wav","null","audio-keyboard-response","466","344822","0.0-16.0-0.0","",""
"null","sound/msl/dog.wav","null","audio-keyboard-response","467","345343","0.0-16.0-1.0","",""
"null","sound/msl/cow.wav","null","audio-keyboard-response","468","345862","0.0-16.0-2.0","",""
"null","sound/asl/silence.wav","null","audio-keyboard-response","469","346364","0.0-16.0-3.0","",""
"null","sound/msl/ding.wav","null","audio-keyboard-response","470","346873","0.0-16.0-4.0","",""
"null","sound/msl/cat.wav","null","audio-keyboard-response","471","347383","0.0-16.0-5.0","",""
"null","sound/msl/bird.wav","null","audio-keyboard-response","472","347903","0.0-16.0-6.0","",""
"4941","sound/asl/silence.wav","49","audio-keyboard-response","473","352844","0.0-16.0-7.0","true",""
"null","sound/msl/ding.wav","null","audio-keyboard-response","474","353363","0.0-17.0-0.0","",""
"null","sound/msl/cat.wav","null","audio-keyboard-response","475","353874","0.0-17.0-1.0","",""
"null","sound/msl/bird.wav","null","audio-keyboard-response","476","354394","0.0-17.0-2.0","",""
"null","sound/asl/silence.wav","null","audio-keyboard-response","477","354895","0.0-17.0-3.0","",""
"null","sound/msl/ding.wav","null","audio-keyboard-response","478","355402","0.0-17.0-4.0","",""
"null","sound/msl/goat.wav","null","audio-keyboard-response","479","355943","0.0-17.0-5.0","",""
"null","sound/msl/boing.wav","null","audio-keyboard-response","480","356453","0.0-17.0-6.0","",""
"5922","sound/asl/silence.wav","50","audio-keyboard-response","481","362380","0.0-17.0-7.0","true",""
"null","sound/msl/frog.wav","null","audio-keyboard-response","482","362883","0.0-18.0-0.0","",""
"null","sound/msl/cat.wav","null","audio-keyboard-response","483","363393","0.0-18.0-1.0","",""
"null","sound/msl/clock.wav","null","audio-keyboard-response","484","363953","0.0-18.0-2.0","",""
"null","sound/asl/silence.wav","null","audio-keyboard-response","485","364455","0.0-18.0-3.0","",""
"null","sound/msl/door_bell.wav","null","audio-keyboard-response","486","364973","0.0-18.0-4.0","",""
"null","sound/msl/door.wav","null","audio-keyboard-response","487","365483","0.0-18.0-5.0","",""
"null","sound/msl/cow.wav","null","audio-keyboard-response","488","366002","0.0-18.0-6.0","",""
"4229","sound/asl/silence.wav","50","audio-keyboard-response","489","370240","0.0-18.0-7.0","false",""
"null","sound/msl/ding.wav","null","audio-keyboard-response","490","370743","0.0-19.0-0.0","",""
"null","sound/msl/goat.wav","null","audio-keyboard-response","491","371283","0.0-19.0-1.0","",""
"null","sound/msl/boing.wav","null","audio-keyboard-response","492","371792","0.0-19.0-2.0","",""
"null","sound/asl/silence.wav","null","audio-keyboard-response","493","372294","0.0-19.0-3.0","",""
"null","sound/msl/door_bell.wav","null","audio-keyboard-response","494","372812","0.0-19.0-4.0","",""
"null","sound/msl/door.wav","null","audio-keyboard-response","495","373323","0.0-19.0-5.0","",""
"null","sound/msl/cow.wav","null","audio-keyboard-response","496","373843","0.0-19.0-6.0","",""
"1939","sound/asl/silence.wav","50","audio-keyboard-response","497","375786","0.0-19.0-7.0","false",""
"null","sound/msl/duck.wav","null","audio-keyboard-response","498","376303","0.0-20.0-0.0","",""
"null","sound/msl/dog.wav","null","audio-keyboard-response","499","376823","0.0-20.0-1.0","",""
"null","sound/msl/boing.wav","null","audio-keyboard-response","500","377332","0.0-20.0-2.0","",""
"null","sound/asl/silence.wav","null","audio-keyboard-response","501","377835","0.0-20.0-3.0","",""
"null","sound/msl/door_bell.wav","null","audio-keyboard-response","502","378353","0.0-20.0-4.0","",""
"null","sound/msl/slide_whistle.wav","null","audio-keyboard-response","503","378863","0.0-20.0-5.0","",""
"null","sound/msl/bird.wav","null","audio-keyboard-response","504","379383","0.0-20.0-6.0","",""
"6812","sound/asl/silence.wav","49","audio-keyboard-response","505","386197","0.0-20.0-7.0","false",""
"null","sound/msl/frog.wav","null","audio-keyboard-response","506","386713","0.0-21.0-0.0","",""
"null","sound/msl/slide_whistle.wav","null","audio-keyboard-response","507","387223","0.0-21.0-1.0","",""
"null","sound/msl/organ.wav","null","audio-keyboard-response","508","387732","0.0-21.0-2.0","",""
"null","sound/asl/silence.wav","null","audio-keyboard-response","509","388234","0.0-21.0-3.0","",""
"null","sound/msl/Water.wav","null","audio-keyboard-response","510","388753","0.0-21.0-4.0","",""
"null","sound/msl/dog.wav","null","audio-keyboard-response","511","389273","0.0-21.0-5.0","",""
"null","sound/msl/cow.wav","null","audio-keyboard-response","512","389782","0.0-21.0-6.0","",""
"2028","sound/asl/silence.wav","50","audio-keyboard-response","513","391821","0.0-21.0-7.0","true",""
"null","sound/msl/duck.wav","null","audio-keyboard-response","514","392323","0.0-22.0-0.0","",""
"null","sound/msl/dog.wav","null","audio-keyboard-response","515","392843","0.0-22.0-1.0","",""
"null","sound/msl/boing.wav","null","audio-keyboard-response","516","393353","0.0-22.0-2.0","",""
"null","sound/asl/silence.wav","null","audio-keyboard-response","517","393855","0.0-22.0-3.0","",""
"null","sound/msl/duck.wav","null","audio-keyboard-response","518","394363","0.0-22.0-4.0","",""
"null","sound/msl/door.wav","null","audio-keyboard-response","519","394872","0.0-22.0-5.0","",""
"null","sound/msl/organ.wav","null","audio-keyboard-response","520","395383","0.0-22.0-6.0","",""
"11078","sound/asl/silence.wav","50","audio-keyboard-response","521","406470","0.0-22.0-7.0","true",""
"null","sound/msl/door_bell.wav","null","audio-keyboard-response","522","406982","0.0-23.0-0.0","",""
"null","sound/msl/slide_whistle.wav","null","audio-keyboard-response","523","407492","0.0-23.0-1.0","",""
"null","sound/msl/bird.wav","null","audio-keyboard-response","524","408012","0.0-23.0-2.0","",""
"null","sound/asl/silence.wav","null","audio-keyboard-response","525","408515","0.0-23.0-3.0","",""
"null","sound/msl/frog.wav","null","audio-keyboard-response","526","409033","0.0-23.0-4.0","",""
"null","sound/msl/slide_whistle.wav","null","audio-keyboard-response","527","409542","0.0-23.0-5.0","",""
"null","sound/msl/organ.wav","null","audio-keyboard-response","528","410053","0.0-23.0-6.0","",""
"4070","sound/asl/silence.wav","49","audio-keyboard-response","529","414127","0.0-23.0-7.0","true",""
"null","sound/msl/Water.wav","null","audio-keyboard-response","530","414642","0.0-24.0-0.0","",""
"null","sound/msl/dog.wav","null","audio-keyboard-response","531","415163","0.0-24.0-1.0","",""
"null","sound/msl/cow.wav","null","audio-keyboard-response","532","415683","0.0-24.0-2.0","",""
"null","sound/asl/silence.wav","null","audio-keyboard-response","533","416184","0.0-24.0-3.0","",""
"null","sound/msl/Water.wav","null","audio-keyboard-response","534","416703","0.0-24.0-4.0","",""
"null","sound/msl/goat.wav","null","audio-keyboard-response","535","417253","0.0-24.0-5.0","",""
"null","sound/msl/clock.wav","null","audio-keyboard-response","536","417813","0.0-24.0-6.0","",""
"8081","sound/asl/silence.wav","50","audio-keyboard-response","537","425895","0.0-24.0-7.0","false",""
"null","sound/msl/Water.wav","null","audio-keyboard-response","538","426414","0.0-25.0-0.0","",""
"null","sound/msl/goat.wav","null","audio-keyboard-response","539","426953","0.0-25.0-1.0","",""
"null","sound/msl/clock.wav","null","audio-keyboard-response","540","427512","0.0-25.0-2.0","",""
"null","sound/asl/silence.wav","null","audio-keyboard-response","541","428014","0.0-25.0-3.0","",""
"null","sound/msl/frog.wav","null","audio-keyboard-response","542","428522","0.0-25.0-4.0","",""
"null","sound/msl/cat.wav","null","audio-keyboard-response","543","429033","0.0-25.0-5.0","",""
"null","sound/msl/clock.wav","null","audio-keyboard-response","544","429593","0.0-25.0-6.0","",""
"6151","sound/asl/silence.wav","50","audio-keyboard-response","545","435751","0.0-25.0-7.0","true",""
"null","sound/msl/Water.wav","null","audio-keyboard-response","546","436272","0.0-26.0-0.0","",""
"null","sound/msl/dog.wav","null","audio-keyboard-response","547","436783","0.0-26.0-1.0","",""
"null","sound/msl/cow.wav","null","audio-keyboard-response","548","437303","0.0-26.0-2.0","",""
"null","sound/asl/silence.wav","null","audio-keyboard-response","549","437804","0.0-26.0-3.0","",""
"null","sound/msl/duck.wav","null","audio-keyboard-response","550","438312","0.0-26.0-4.0","",""
"null","sound/msl/dog.wav","null","audio-keyboard-response","551","438833","0.0-26.0-5.0","",""
"null","sound/msl/boing.wav","null","audio-keyboard-response","552","439343","0.0-26.0-6.0","",""
"23728","sound/asl/silence.wav","49","audio-keyboard-response","553","463073","0.0-26.0-7.0","true",""
"null","sound/msl/ding.wav","null","audio-keyboard-response","554","463593","0.0-27.0-0.0","",""
"null","sound/msl/cat.wav","null","audio-keyboard-response","555","464103","0.0-27.0-1.0","",""
"null","sound/msl/bird.wav","null","audio-keyboard-response","556","464623","0.0-27.0-2.0","",""
"null","sound/asl/silence.wav","null","audio-keyboard-response","557","465124","0.0-27.0-3.0","",""
"null","sound/msl/duck.wav","null","audio-keyboard-response","558","465643","0.0-27.0-4.0","",""
"null","sound/msl/door.wav","null","audio-keyboard-response","559","466153","0.0-27.0-5.0","",""
"null","sound/msl/organ.wav","null","audio-keyboard-response","560","466663","0.0-27.0-6.0","",""
"4559","sound/asl/silence.wav","50","audio-keyboard-response","561","471227","0.0-27.0-7.0","true",""
"5265","","","instructions","562","476493","0.0-28.0","","[{""page_index"":0,""viewing_time"":5265}]"
