"rt","stimulus","key_press","trial_type","trial_index","time_elapsed","internal_node_id","correct","view_history"
"8154","alien.jpg","49","image-keyboard-response","0","8158","0.0-0.0","",""
"null","sound/msl/cow.wav","null","audio-keyboard-response","1","8678","0.0-1.0-0.0","",""
"null","sound/msl/door_bell.wav","null","audio-keyboard-response","2","9198","0.0-1.0-1.0","",""
"null","sound/msl/door.wav","null","audio-keyboard-response","3","9707","0.0-1.0-2.0","",""
"null","sound/msl/slide_whistle.wav","null","audio-keyboard-response","4","10217","0.0-1.0-3.0","",""
"null","sound/msl/duck.wav","null","audio-keyboard-response","5","10727","0.0-1.0-4.0","",""
"null","sound/msl/bird.wav","null","audio-keyboard-response","6","11248","0.0-1.0-5.0","",""
"null","sound/msl/clock.wav","null","audio-keyboard-response","7","11808","0.0-1.0-6.0","",""
"null","sound/msl/frog.wav","null","audio-keyboard-response","8","12328","0.0-1.0-7.0","",""
"null","sound/msl/ding.wav","null","audio-keyboard-response","9","12848","0.0-1.0-8.0","",""
"null","sound/msl/boing.wav","null","audio-keyboard-response","10","13359","0.0-1.0-9.0","",""
"null","sound/msl/dog.wav","null","audio-keyboard-response","11","13878","0.0-1.0-10.0","",""
"null","sound/msl/organ.wav","null","audio-keyboard-response","12","14388","0.0-1.0-11.0","",""
"null","sound/msl/slide_whistle.wav","null","audio-keyboard-response","13","14898","0.0-1.0-12.0","",""
"null","sound/msl/duck.wav","null","audio-keyboard-response","14","15407","0.0-1.0-13.0","",""
"null","sound/msl/bird.wav","null","audio-keyboard-response","15","15929","0.0-1.0-14.0","",""
"null","sound/msl/cow.wav","null","audio-keyboard-response","16","16449","0.0-1.0-15.0","",""
"null","sound/msl/door_bell.wav","null","audio-keyboard-response","17","16969","0.0-1.0-16.0","",""
"null","sound/msl/door.wav","null","audio-keyboard-response","18","17479","0.0-1.0-17.0","",""
"null","sound/msl/goat.wav","null","audio-keyboard-response","19","18028","0.0-1.0-18.0","",""
"null","sound/msl/Water.wav","null","audio-keyboard-response","20","18549","0.0-1.0-19.0","",""
"null","sound/msl/cat.wav","null","audio-keyboard-response","21","19059","0.0-1.0-20.0","",""
"null","sound/msl/boing.wav","null","audio-keyboard-response","22","19569","0.0-1.0-21.0","",""
"null","sound/msl/dog.wav","null","audio-keyboard-response","23","20089","0.0-1.0-22.0","",""
"null","sound/msl/organ.wav","null","audio-keyboard-response","24","20599","0.0-1.0-23.0","",""
"null","sound/msl/clock.wav","null","audio-keyboard-response","25","21159","0.0-1.0-24.0","",""
"null","sound/msl/frog.wav","null","audio-keyboard-response","26","21679","0.0-1.0-25.0","",""
"null","sound/msl/ding.wav","null","audio-keyboard-response","27","22199","0.0-1.0-26.0","",""
"null","sound/msl/cow.wav","null","audio-keyboard-response","28","22719","0.0-1.0-27.0","",""
"null","sound/msl/door_bell.wav","null","audio-keyboard-response","29","23240","0.0-1.0-28.0","",""
"null","sound/msl/door.wav","null","audio-keyboard-response","30","23748","0.0-1.0-29.0","",""
"null","sound/msl/slide_whistle.wav","null","audio-keyboard-response","31","24259","0.0-1.0-30.0","",""
"null","sound/msl/duck.wav","null","audio-keyboard-response","32","24769","0.0-1.0-31.0","",""
"null","sound/msl/bird.wav","null","audio-keyboard-response","33","25290","0.0-1.0-32.0","",""
"null","sound/msl/goat.wav","null","audio-keyboard-response","34","25840","0.0-1.0-33.0","",""
"null","sound/msl/Water.wav","null","audio-keyboard-response","35","26360","0.0-1.0-34.0","",""
"null","sound/msl/cat.wav","null","audio-keyboard-response","36","26869","0.0-1.0-35.0","",""
"null","sound/msl/clock.wav","null","audio-keyboard-response","37","27430","0.0-1.0-36.0","",""
"null","sound/msl/frog.wav","null","audio-keyboard-response","38","27939","0.0-1.0-37.0","",""
"null","sound/msl/ding.wav","null","audio-keyboard-response","39","28450","0.0-1.0-38.0","",""
"null","sound/msl/boing.wav","null","audio-keyboard-response","40","28960","0.0-1.0-39.0","",""
"null","sound/msl/dog.wav","null","audio-keyboard-response","41","29480","0.0-1.0-40.0","",""
"null","sound/msl/organ.wav","null","audio-keyboard-response","42","29989","0.0-1.0-41.0","",""
"null","sound/msl/goat.wav","null","audio-keyboard-response","43","30540","0.0-1.0-42.0","",""
"null","sound/msl/Water.wav","null","audio-keyboard-response","44","31061","0.0-1.0-43.0","",""
"null","sound/msl/cat.wav","null","audio-keyboard-response","45","31570","0.0-1.0-44.0","",""
"null","sound/msl/slide_whistle.wav","null","audio-keyboard-response","46","32091","0.0-1.0-45.0","",""
"null","sound/msl/duck.wav","null","audio-keyboard-response","47","32610","0.0-1.0-46.0","",""
"null","sound/msl/bird.wav","null","audio-keyboard-response","48","33131","0.0-1.0-47.0","",""
"null","sound/msl/clock.wav","null","audio-keyboard-response","49","33691","0.0-1.0-48.0","",""
"null","sound/msl/frog.wav","null","audio-keyboard-response","50","34211","0.0-1.0-49.0","",""
"null","sound/msl/ding.wav","null","audio-keyboard-response","51","34731","0.0-1.0-50.0","",""
"null","sound/msl/cow.wav","null","audio-keyboard-response","52","35250","0.0-1.0-51.0","",""
"null","sound/msl/door_bell.wav","null","audio-keyboard-response","53","35771","0.0-1.0-52.0","",""
"null","sound/msl/door.wav","null","audio-keyboard-response","54","36280","0.0-1.0-53.0","",""
"null","sound/msl/slide_whistle.wav","null","audio-keyboard-response","55","36801","0.0-1.0-54.0","",""
"null","sound/msl/duck.wav","null","audio-keyboard-response","56","37321","0.0-1.0-55.0","",""
"null","sound/msl/bird.wav","null","audio-keyboard-response","57","37841","0.0-1.0-56.0","",""
"null","sound/msl/clock.wav","null","audio-keyboard-response","58","38400","0.0-1.0-57.0","",""
"null","sound/msl/frog.wav","null","audio-keyboard-response","59","38921","0.0-1.0-58.0","",""
"null","sound/msl/ding.wav","null","audio-keyboard-response","60","39442","0.0-1.0-59.0","",""
"null","sound/msl/boing.wav","null","audio-keyboard-response","61","39952","0.0-1.0-60.0","",""
"null","sound/msl/dog.wav","null","audio-keyboard-response","62","40462","0.0-1.0-61.0","",""
"null","sound/msl/organ.wav","null","audio-keyboard-response","63","40972","0.0-1.0-62.0","",""
"null","sound/msl/goat.wav","null","audio-keyboard-response","64","41521","0.0-1.0-63.0","",""
"null","sound/msl/Water.wav","null","audio-keyboard-response","65","42042","0.0-1.0-64.0","",""
"null","sound/msl/cat.wav","null","audio-keyboard-response","66","42552","0.0-1.0-65.0","",""
"null","sound/msl/slide_whistle.wav","null","audio-keyboard-response","67","43061","0.0-1.0-66.0","",""
"null","sound/msl/duck.wav","null","audio-keyboard-response","68","43572","0.0-1.0-67.0","",""
"null","sound/msl/bird.wav","null","audio-keyboard-response","69","44092","0.0-1.0-68.0","",""
"null","sound/msl/cow.wav","null","audio-keyboard-response","70","44612","0.0-1.0-69.0","",""
"null","sound/msl/door_bell.wav","null","audio-keyboard-response","71","45132","0.0-1.0-70.0","",""
"null","sound/msl/door.wav","null","audio-keyboard-response","72","45642","0.0-1.0-71.0","",""
"null","sound/msl/clock.wav","null","audio-keyboard-response","73","46197","0.0-1.0-72.0","",""
"null","sound/msl/frog.wav","null","audio-keyboard-response","74","46718","0.0-1.0-73.0","",""
"null","sound/msl/ding.wav","null","audio-keyboard-response","75","47237","0.0-1.0-74.0","",""
"null","sound/msl/boing.wav","null","audio-keyboard-response","76","47748","0.0-1.0-75.0","",""
"null","sound/msl/dog.wav","null","audio-keyboard-response","77","48257","0.0-1.0-76.0","",""
"null","sound/msl/organ.wav","null","audio-keyboard-response","78","48767","0.0-1.0-77.0","",""
"null","sound/msl/clock.wav","null","audio-keyboard-response","79","49327","0.0-1.0-78.0","",""
"null","sound/msl/frog.wav","null","audio-keyboard-response","80","49848","0.0-1.0-79.0","",""
"null","sound/msl/ding.wav","null","audio-keyboard-response","81","50368","0.0-1.0-80.0","",""
"null","sound/msl/goat.wav","null","audio-keyboard-response","82","50918","0.0-1.0-81.0","",""
"null","sound/msl/Water.wav","null","audio-keyboard-response","83","51438","0.0-1.0-82.0","",""
"null","sound/msl/cat.wav","null","audio-keyboard-response","84","51948","0.0-1.0-83.0","",""
"null","sound/msl/cow.wav","null","audio-keyboard-response","85","52458","0.0-1.0-84.0","",""
"null","sound/msl/door_bell.wav","null","audio-keyboard-response","86","52969","0.0-1.0-85.0","",""
"null","sound/msl/door.wav","null","audio-keyboard-response","87","53478","0.0-1.0-86.0","",""
"null","sound/msl/slide_whistle.wav","null","audio-keyboard-response","88","53998","0.0-1.0-87.0","",""
"null","sound/msl/duck.wav","null","audio-keyboard-response","89","54518","0.0-1.0-88.0","",""
"null","sound/msl/bird.wav","null","audio-keyboard-response","90","55038","0.0-1.0-89.0","",""
"null","sound/msl/goat.wav","null","audio-keyboard-response","91","55589","0.0-1.0-90.0","",""
"null","sound/msl/Water.wav","null","audio-keyboard-response","92","56109","0.0-1.0-91.0","",""
"null","sound/msl/cat.wav","null","audio-keyboard-response","93","56619","0.0-1.0-92.0","",""
"null","sound/msl/boing.wav","null","audio-keyboard-response","94","57129","0.0-1.0-93.0","",""
"null","sound/msl/dog.wav","null","audio-keyboard-response","95","57649","0.0-1.0-94.0","",""
"null","sound/msl/organ.wav","null","audio-keyboard-response","96","58159","0.0-1.0-95.0","",""
"null","sound/msl/clock.wav","null","audio-keyboard-response","97","58721","0.0-1.0-96.0","",""
"null","sound/msl/frog.wav","null","audio-keyboard-response","98","59239","0.0-1.0-97.0","",""
"null","sound/msl/ding.wav","null","audio-keyboard-response","99","59759","0.0-1.0-98.0","",""
"null","sound/msl/slide_whistle.wav","null","audio-keyboard-response","100","60279","0.0-1.0-99.0","",""
"null","sound/msl/duck.wav","null","audio-keyboard-response","101","60799","0.0-1.0-100.0","",""
"null","sound/msl/bird.wav","null","audio-keyboard-response","102","61320","0.0-1.0-101.0","",""
"null","sound/msl/goat.wav","null","audio-keyboard-response","103","61870","0.0-1.0-102.0","",""
"null","sound/msl/Water.wav","null","audio-keyboard-response","104","62390","0.0-1.0-103.0","",""
"null","sound/msl/cat.wav","null","audio-keyboard-response","105","62901","0.0-1.0-104.0","",""
"null","sound/msl/cow.wav","null","audio-keyboard-response","106","63409","0.0-1.0-105.0","",""
"null","sound/msl/door_bell.wav","null","audio-keyboard-response","107","63930","0.0-1.0-106.0","",""
"null","sound/msl/door.wav","null","audio-keyboard-response","108","64439","0.0-1.0-107.0","",""
"null","sound/msl/slide_whistle.wav","null","audio-keyboard-response","109","64960","0.0-1.0-108.0","",""
"null","sound/msl/duck.wav","null","audio-keyboard-response","110","65480","0.0-1.0-109.0","",""
"null","sound/msl/bird.wav","null","audio-keyboard-response","111","66000","0.0-1.0-110.0","",""
"null","sound/msl/boing.wav","null","audio-keyboard-response","112","66510","0.0-1.0-111.0","",""
"null","sound/msl/dog.wav","null","audio-keyboard-response","113","67020","0.0-1.0-112.0","",""
"null","sound/msl/organ.wav","null","audio-keyboard-response","114","67530","0.0-1.0-113.0","",""
"null","sound/msl/goat.wav","null","audio-keyboard-response","115","68081","0.0-1.0-114.0","",""
"null","sound/msl/Water.wav","null","audio-keyboard-response","116","68600","0.0-1.0-115.0","",""
"null","sound/msl/cat.wav","null","audio-keyboard-response","117","69110","0.0-1.0-116.0","",""
"null","sound/msl/clock.wav","null","audio-keyboard-response","118","69670","0.0-1.0-117.0","",""
"null","sound/msl/frog.wav","null","audio-keyboard-response","119","70180","0.0-1.0-118.0","",""
"null","sound/msl/ding.wav","null","audio-keyboard-response","120","70690","0.0-1.0-119.0","",""
"null","sound/msl/cow.wav","null","audio-keyboard-response","121","71211","0.0-1.0-120.0","",""
"null","sound/msl/door_bell.wav","null","audio-keyboard-response","122","71730","0.0-1.0-121.0","",""
"null","sound/msl/door.wav","null","audio-keyboard-response","123","72241","0.0-1.0-122.0","",""
"null","sound/msl/slide_whistle.wav","null","audio-keyboard-response","124","72761","0.0-1.0-123.0","",""
"null","sound/msl/duck.wav","null","audio-keyboard-response","125","73281","0.0-1.0-124.0","",""
"null","sound/msl/bird.wav","null","audio-keyboard-response","126","73801","0.0-1.0-125.0","",""
"null","sound/msl/goat.wav","null","audio-keyboard-response","127","74351","0.0-1.0-126.0","",""
"null","sound/msl/Water.wav","null","audio-keyboard-response","128","74871","0.0-1.0-127.0","",""
"null","sound/msl/cat.wav","null","audio-keyboard-response","129","75381","0.0-1.0-128.0","",""
"null","sound/msl/boing.wav","null","audio-keyboard-response","130","75892","0.0-1.0-129.0","",""
"null","sound/msl/dog.wav","null","audio-keyboard-response","131","76411","0.0-1.0-130.0","",""
"null","sound/msl/organ.wav","null","audio-keyboard-response","132","76922","0.0-1.0-131.0","",""
"null","sound/msl/slide_whistle.wav","null","audio-keyboard-response","133","77442","0.0-1.0-132.0","",""
"null","sound/msl/duck.wav","null","audio-keyboard-response","134","77961","0.0-1.0-133.0","",""
"null","sound/msl/bird.wav","null","audio-keyboard-response","135","78481","0.0-1.0-134.0","",""
"null","sound/msl/clock.wav","null","audio-keyboard-response","136","79042","0.0-1.0-135.0","",""
"null","sound/msl/frog.wav","null","audio-keyboard-response","137","79562","0.0-1.0-136.0","",""
"null","sound/msl/ding.wav","null","audio-keyboard-response","138","80083","0.0-1.0-137.0","",""
"null","sound/msl/boing.wav","null","audio-keyboard-response","139","80592","0.0-1.0-138.0","",""
"null","sound/msl/dog.wav","null","audio-keyboard-response","140","81102","0.0-1.0-139.0","",""
"null","sound/msl/organ.wav","null","audio-keyboard-response","141","81612","0.0-1.0-140.0","",""
"null","sound/msl/cow.wav","null","audio-keyboard-response","142","82132","0.0-1.0-141.0","",""
"null","sound/msl/door_bell.wav","null","audio-keyboard-response","143","82652","0.0-1.0-142.0","",""
"null","sound/msl/door.wav","null","audio-keyboard-response","144","83162","0.0-1.0-143.0","",""
"null","sound/msl/goat.wav","null","audio-keyboard-response","145","83713","0.0-1.0-144.0","",""
"null","sound/msl/Water.wav","null","audio-keyboard-response","146","84232","0.0-1.0-145.0","",""
"null","sound/msl/cat.wav","null","audio-keyboard-response","147","84743","0.0-1.0-146.0","",""
"null","sound/msl/clock.wav","null","audio-keyboard-response","148","85303","0.0-1.0-147.0","",""
"null","sound/msl/frog.wav","null","audio-keyboard-response","149","85812","0.0-1.0-148.0","",""
"null","sound/msl/ding.wav","null","audio-keyboard-response","150","86328","0.0-1.0-149.0","",""
"null","sound/msl/cow.wav","null","audio-keyboard-response","151","86848","0.0-1.0-150.0","",""
"null","sound/msl/door_bell.wav","null","audio-keyboard-response","152","87367","0.0-1.0-151.0","",""
"null","sound/msl/door.wav","null","audio-keyboard-response","153","87878","0.0-1.0-152.0","",""
"null","sound/msl/slide_whistle.wav","null","audio-keyboard-response","154","88398","0.0-1.0-153.0","",""
"null","sound/msl/duck.wav","null","audio-keyboard-response","155","88918","0.0-1.0-154.0","",""
"null","sound/msl/bird.wav","null","audio-keyboard-response","156","89438","0.0-1.0-155.0","",""
"null","sound/msl/boing.wav","null","audio-keyboard-response","157","89948","0.0-1.0-156.0","",""
"null","sound/msl/dog.wav","null","audio-keyboard-response","158","90458","0.0-1.0-157.0","",""
"null","sound/msl/organ.wav","null","audio-keyboard-response","159","90968","0.0-1.0-158.0","",""
"null","sound/msl/goat.wav","null","audio-keyboard-response","160","91518","0.0-1.0-159.0","",""
"null","sound/msl/Water.wav","null","audio-keyboard-response","161","92038","0.0-1.0-160.0","",""
"null","sound/msl/cat.wav","null","audio-keyboard-response","162","92549","0.0-1.0-161.0","",""
"null","sound/msl/slide_whistle.wav","null","audio-keyboard-response","163","93059","0.0-1.0-162.0","",""
"null","sound/msl/duck.wav","null","audio-keyboard-response","164","93568","0.0-1.0-163.0","",""
"null","sound/msl/bird.wav","null","audio-keyboard-response","165","94089","0.0-1.0-164.0","",""
"null","sound/msl/boing.wav","null","audio-keyboard-response","166","94598","0.0-1.0-165.0","",""
"null","sound/msl/dog.wav","null","audio-keyboard-response","167","95118","0.0-1.0-166.0","",""
"null","sound/msl/organ.wav","null","audio-keyboard-response","168","95629","0.0-1.0-167.0","",""
"null","sound/msl/cow.wav","null","audio-keyboard-response","169","96139","0.0-1.0-168.0","",""
"null","sound/msl/door_bell.wav","null","audio-keyboard-response","170","96649","0.0-1.0-169.0","",""
"null","sound/msl/door.wav","null","audio-keyboard-response","171","97159","0.0-1.0-170.0","",""
"null","sound/msl/clock.wav","null","audio-keyboard-response","172","97719","0.0-1.0-171.0","",""
"null","sound/msl/frog.wav","null","audio-keyboard-response","173","98239","0.0-1.0-172.0","",""
"null","sound/msl/ding.wav","null","audio-keyboard-response","174","98760","0.0-1.0-173.0","",""
"null","sound/msl/goat.wav","null","audio-keyboard-response","175","99310","0.0-1.0-174.0","",""
"null","sound/msl/Water.wav","null","audio-keyboard-response","176","99829","0.0-1.0-175.0","",""
"null","sound/msl/cat.wav","null","audio-keyboard-response","177","100340","0.0-1.0-176.0","",""
"null","sound/msl/slide_whistle.wav","null","audio-keyboard-response","178","100849","0.0-1.0-177.0","",""
"null","sound/msl/duck.wav","null","audio-keyboard-response","179","101370","0.0-1.0-178.0","",""
"null","sound/msl/bird.wav","null","audio-keyboard-response","180","101890","0.0-1.0-179.0","",""
"null","sound/msl/clock.wav","null","audio-keyboard-response","181","102449","0.0-1.0-180.0","",""
"null","sound/msl/frog.wav","null","audio-keyboard-response","182","102970","0.0-1.0-181.0","",""
"null","sound/msl/ding.wav","null","audio-keyboard-response","183","103490","0.0-1.0-182.0","",""
"null","sound/msl/boing.wav","null","audio-keyboard-response","184","104000","0.0-1.0-183.0","",""
"null","sound/msl/dog.wav","null","audio-keyboard-response","185","104520","0.0-1.0-184.0","",""
"null","sound/msl/organ.wav","null","audio-keyboard-response","186","105029","0.0-1.0-185.0","",""
"null","sound/msl/cow.wav","null","audio-keyboard-response","187","105540","0.0-1.0-186.0","",""
"null","sound/msl/door_bell.wav","null","audio-keyboard-response","188","106049","0.0-1.0-187.0","",""
"null","sound/msl/door.wav","null","audio-keyboard-response","189","106560","0.0-1.0-188.0","",""
"null","sound/msl/goat.wav","null","audio-keyboard-response","190","107110","0.0-1.0-189.0","",""
"null","sound/msl/Water.wav","null","audio-keyboard-response","191","107630","0.0-1.0-190.0","",""
"null","sound/msl/cat.wav","null","audio-keyboard-response","192","108141","0.0-1.0-191.0","",""
"null","sound/msl/slide_whistle.wav","null","audio-keyboard-response","193","108651","0.0-1.0-192.0","",""
"null","sound/msl/duck.wav","null","audio-keyboard-response","194","109170","0.0-1.0-193.0","",""
"null","sound/msl/bird.wav","null","audio-keyboard-response","195","109691","0.0-1.0-194.0","",""
"null","sound/msl/clock.wav","null","audio-keyboard-response","196","110251","0.0-1.0-195.0","",""
"null","sound/msl/frog.wav","null","audio-keyboard-response","197","110771","0.0-1.0-196.0","",""
"null","sound/msl/ding.wav","null","audio-keyboard-response","198","111291","0.0-1.0-197.0","",""
"null","sound/msl/cow.wav","null","audio-keyboard-response","199","111811","0.0-1.0-198.0","",""
"null","sound/msl/door_bell.wav","null","audio-keyboard-response","200","112331","0.0-1.0-199.0","",""
"null","sound/msl/door.wav","null","audio-keyboard-response","201","112841","0.0-1.0-200.0","",""
"null","sound/msl/boing.wav","null","audio-keyboard-response","202","113351","0.0-1.0-201.0","",""
"null","sound/msl/dog.wav","null","audio-keyboard-response","203","113861","0.0-1.0-202.0","",""
"null","sound/msl/organ.wav","null","audio-keyboard-response","204","114371","0.0-1.0-203.0","",""
"null","sound/msl/goat.wav","null","audio-keyboard-response","205","114922","0.0-1.0-204.0","",""
"null","sound/msl/Water.wav","null","audio-keyboard-response","206","115442","0.0-1.0-205.0","",""
"null","sound/msl/cat.wav","null","audio-keyboard-response","207","115951","0.0-1.0-206.0","",""
"null","sound/msl/slide_whistle.wav","null","audio-keyboard-response","208","116461","0.0-1.0-207.0","",""
"null","sound/msl/duck.wav","null","audio-keyboard-response","209","116972","0.0-1.0-208.0","",""
"null","sound/msl/bird.wav","null","audio-keyboard-response","210","117492","0.0-1.0-209.0","",""
"null","sound/msl/cow.wav","null","audio-keyboard-response","211","118012","0.0-1.0-210.0","",""
"null","sound/msl/door_bell.wav","null","audio-keyboard-response","212","118532","0.0-1.0-211.0","",""
"null","sound/msl/door.wav","null","audio-keyboard-response","213","119042","0.0-1.0-212.0","",""
"null","sound/msl/goat.wav","null","audio-keyboard-response","214","119591","0.0-1.0-213.0","",""
"null","sound/msl/Water.wav","null","audio-keyboard-response","215","120112","0.0-1.0-214.0","",""
"null","sound/msl/cat.wav","null","audio-keyboard-response","216","120622","0.0-1.0-215.0","",""
"null","sound/msl/clock.wav","null","audio-keyboard-response","217","121182","0.0-1.0-216.0","",""
"null","sound/msl/frog.wav","null","audio-keyboard-response","218","121692","0.0-1.0-217.0","",""
"null","sound/msl/ding.wav","null","audio-keyboard-response","219","122212","0.0-1.0-218.0","",""
"null","sound/msl/boing.wav","null","audio-keyboard-response","220","122723","0.0-1.0-219.0","",""
"null","sound/msl/dog.wav","null","audio-keyboard-response","221","123244","0.0-1.0-220.0","",""
"null","sound/msl/organ.wav","null","audio-keyboard-response","222","123753","0.0-1.0-221.0","",""
"null","sound/msl/slide_whistle.wav","null","audio-keyboard-response","223","124262","0.0-1.0-222.0","",""
"null","sound/msl/duck.wav","null","audio-keyboard-response","224","124772","0.0-1.0-223.0","",""
"null","sound/msl/bird.wav","null","audio-keyboard-response","225","125292","0.0-1.0-224.0","",""
"null","sound/msl/clock.wav","null","audio-keyboard-response","226","125853","0.0-1.0-225.0","",""
"null","sound/msl/frog.wav","null","audio-keyboard-response","227","126373","0.0-1.0-226.0","",""
"null","sound/msl/ding.wav","null","audio-keyboard-response","228","126893","0.0-1.0-227.0","",""
"null","sound/msl/goat.wav","null","audio-keyboard-response","229","127440","0.0-1.0-228.0","",""
"null","sound/msl/Water.wav","null","audio-keyboard-response","230","127958","0.0-1.0-229.0","",""
"null","sound/msl/cat.wav","null","audio-keyboard-response","231","128469","0.0-1.0-230.0","",""
"null","sound/msl/clock.wav","null","audio-keyboard-response","232","129029","0.0-1.0-231.0","",""
"null","sound/msl/frog.wav","null","audio-keyboard-response","233","129538","0.0-1.0-232.0","",""
"null","sound/msl/ding.wav","null","audio-keyboard-response","234","130049","0.0-1.0-233.0","",""
"null","sound/msl/slide_whistle.wav","null","audio-keyboard-response","235","130569","0.0-1.0-234.0","",""
"null","sound/msl/duck.wav","null","audio-keyboard-response","236","131089","0.0-1.0-235.0","",""
"null","sound/msl/bird.wav","null","audio-keyboard-response","237","131608","0.0-1.0-236.0","",""
"null","sound/msl/boing.wav","null","audio-keyboard-response","238","132118","0.0-1.0-237.0","",""
"null","sound/msl/dog.wav","null","audio-keyboard-response","239","132640","0.0-1.0-238.0","",""
"null","sound/msl/organ.wav","null","audio-keyboard-response","240","133148","0.0-1.0-239.0","",""
"null","sound/msl/cow.wav","null","audio-keyboard-response","241","133659","0.0-1.0-240.0","",""
"null","sound/msl/door_bell.wav","null","audio-keyboard-response","242","134169","0.0-1.0-241.0","",""
"null","sound/msl/door.wav","null","audio-keyboard-response","243","134679","0.0-1.0-242.0","",""
"null","sound/msl/goat.wav","null","audio-keyboard-response","244","135229","0.0-1.0-243.0","",""
"null","sound/msl/Water.wav","null","audio-keyboard-response","245","135749","0.0-1.0-244.0","",""
"null","sound/msl/cat.wav","null","audio-keyboard-response","246","136259","0.0-1.0-245.0","",""
"null","sound/msl/slide_whistle.wav","null","audio-keyboard-response","247","136770","0.0-1.0-246.0","",""
"null","sound/msl/duck.wav","null","audio-keyboard-response","248","137290","0.0-1.0-247.0","",""
"null","sound/msl/bird.wav","null","audio-keyboard-response","249","137810","0.0-1.0-248.0","",""
"null","sound/msl/boing.wav","null","audio-keyboard-response","250","138319","0.0-1.0-249.0","",""
"null","sound/msl/dog.wav","null","audio-keyboard-response","251","138840","0.0-1.0-250.0","",""
"null","sound/msl/organ.wav","null","audio-keyboard-response","252","139350","0.0-1.0-251.0","",""
"null","sound/msl/cow.wav","null","audio-keyboard-response","253","139859","0.0-1.0-252.0","",""
"null","sound/msl/door_bell.wav","null","audio-keyboard-response","254","140369","0.0-1.0-253.0","",""
"null","sound/msl/door.wav","null","audio-keyboard-response","255","140880","0.0-1.0-254.0","",""
"null","sound/msl/clock.wav","null","audio-keyboard-response","256","141439","0.0-1.0-255.0","",""
"null","sound/msl/frog.wav","null","audio-keyboard-response","257","141960","0.0-1.0-256.0","",""
"null","sound/msl/ding.wav","null","audio-keyboard-response","258","142480","0.0-1.0-257.0","",""
"null","sound/msl/goat.wav","null","audio-keyboard-response","259","143030","0.0-1.0-258.0","",""
"null","sound/msl/Water.wav","null","audio-keyboard-response","260","143551","0.0-1.0-259.0","",""
"null","sound/msl/cat.wav","null","audio-keyboard-response","261","144060","0.0-1.0-260.0","",""
"null","sound/msl/cow.wav","null","audio-keyboard-response","262","144570","0.0-1.0-261.0","",""
"null","sound/msl/door_bell.wav","null","audio-keyboard-response","263","145090","0.0-1.0-262.0","",""
"null","sound/msl/door.wav","null","audio-keyboard-response","264","145600","0.0-1.0-263.0","",""
"null","sound/msl/boing.wav","null","audio-keyboard-response","265","146111","0.0-1.0-264.0","",""
"null","sound/msl/dog.wav","null","audio-keyboard-response","266","146621","0.0-1.0-265.0","",""
"null","sound/msl/organ.wav","null","audio-keyboard-response","267","147131","0.0-1.0-266.0","",""
"null","sound/msl/clock.wav","null","audio-keyboard-response","268","147691","0.0-1.0-267.0","",""
"null","sound/msl/frog.wav","null","audio-keyboard-response","269","148211","0.0-1.0-268.0","",""
"null","sound/msl/ding.wav","null","audio-keyboard-response","270","148731","0.0-1.0-269.0","",""
"null","sound/msl/slide_whistle.wav","null","audio-keyboard-response","271","149251","0.0-1.0-270.0","",""
"null","sound/msl/duck.wav","null","audio-keyboard-response","272","149771","0.0-1.0-271.0","",""
"null","sound/msl/bird.wav","null","audio-keyboard-response","273","150291","0.0-1.0-272.0","",""
"null","sound/msl/goat.wav","null","audio-keyboard-response","274","150841","0.0-1.0-273.0","",""
"null","sound/msl/Water.wav","null","audio-keyboard-response","275","151361","0.0-1.0-274.0","",""
"null","sound/msl/cat.wav","null","audio-keyboard-response","276","151871","0.0-1.0-275.0","",""
"null","sound/msl/cow.wav","null","audio-keyboard-response","277","152381","0.0-1.0-276.0","",""
"null","sound/msl/door_bell.wav","null","audio-keyboard-response","278","152891","0.0-1.0-277.0","",""
"null","sound/msl/door.wav","null","audio-keyboard-response","279","153401","0.0-1.0-278.0","",""
"null","sound/msl/boing.wav","null","audio-keyboard-response","280","153911","0.0-1.0-279.0","",""
"null","sound/msl/dog.wav","null","audio-keyboard-response","281","154422","0.0-1.0-280.0","",""
"null","sound/msl/organ.wav","null","audio-keyboard-response","282","154932","0.0-1.0-281.0","",""
"null","sound/msl/slide_whistle.wav","null","audio-keyboard-response","283","155452","0.0-1.0-282.0","",""
"null","sound/msl/duck.wav","null","audio-keyboard-response","284","155971","0.0-1.0-283.0","",""
"null","sound/msl/bird.wav","null","audio-keyboard-response","285","156492","0.0-1.0-284.0","",""
"null","sound/msl/clock.wav","null","audio-keyboard-response","286","157052","0.0-1.0-285.0","",""
"null","sound/msl/frog.wav","null","audio-keyboard-response","287","157572","0.0-1.0-286.0","",""
"null","sound/msl/ding.wav","null","audio-keyboard-response","288","158092","0.0-1.0-287.0","",""
"null","sound/msl/goat.wav","null","audio-keyboard-response","289","158642","0.0-1.0-288.0","",""
"null","sound/msl/Water.wav","null","audio-keyboard-response","290","159162","0.0-1.0-289.0","",""
"null","sound/msl/cat.wav","null","audio-keyboard-response","291","159672","0.0-1.0-290.0","",""
"null","sound/msl/boing.wav","null","audio-keyboard-response","292","160183","0.0-1.0-291.0","",""
"null","sound/msl/dog.wav","null","audio-keyboard-response","293","160692","0.0-1.0-292.0","",""
"null","sound/msl/organ.wav","null","audio-keyboard-response","294","161202","0.0-1.0-293.0","",""
"null","sound/msl/cow.wav","null","audio-keyboard-response","295","161723","0.0-1.0-294.0","",""
"null","sound/msl/door_bell.wav","null","audio-keyboard-response","296","162243","0.0-1.0-295.0","",""
"null","sound/msl/door.wav","null","audio-keyboard-response","297","162753","0.0-1.0-296.0","",""
"null","sound/msl/goat.wav","null","audio-keyboard-response","298","163303","0.0-1.0-297.0","",""
"null","sound/msl/Water.wav","null","audio-keyboard-response","299","163823","0.0-1.0-298.0","",""
"null","sound/msl/cat.wav","null","audio-keyboard-response","300","164333","0.0-1.0-299.0","",""
"null","sound/msl/slide_whistle.wav","null","audio-keyboard-response","301","164853","0.0-1.0-300.0","",""
"null","sound/msl/duck.wav","null","audio-keyboard-response","302","165373","0.0-1.0-301.0","",""
"null","sound/msl/bird.wav","null","audio-keyboard-response","303","165893","0.0-1.0-302.0","",""
"null","sound/msl/boing.wav","null","audio-keyboard-response","304","166403","0.0-1.0-303.0","",""
"null","sound/msl/dog.wav","null","audio-keyboard-response","305","166924","0.0-1.0-304.0","",""
"null","sound/msl/organ.wav","null","audio-keyboard-response","306","167433","0.0-1.0-305.0","",""
"null","sound/msl/clock.wav","null","audio-keyboard-response","307","167988","0.0-1.0-306.0","",""
"null","sound/msl/frog.wav","null","audio-keyboard-response","308","168499","0.0-1.0-307.0","",""
"null","sound/msl/ding.wav","null","audio-keyboard-response","309","169009","0.0-1.0-308.0","",""
"null","sound/msl/cow.wav","null","audio-keyboard-response","310","169528","0.0-1.0-309.0","",""
"null","sound/msl/door_bell.wav","null","audio-keyboard-response","311","170049","0.0-1.0-310.0","",""
"null","sound/msl/door.wav","null","audio-keyboard-response","312","170559","0.0-1.0-311.0","",""
"null","sound/msl/goat.wav","null","audio-keyboard-response","313","171108","0.0-1.0-312.0","",""
"null","sound/msl/Water.wav","null","audio-keyboard-response","314","171629","0.0-1.0-313.0","",""
"null","sound/msl/cat.wav","null","audio-keyboard-response","315","172139","0.0-1.0-314.0","",""
"null","sound/msl/slide_whistle.wav","null","audio-keyboard-response","316","172649","0.0-1.0-315.0","",""
"null","sound/msl/duck.wav","null","audio-keyboard-response","317","173169","0.0-1.0-316.0","",""
"null","sound/msl/bird.wav","null","audio-keyboard-response","318","173690","0.0-1.0-317.0","",""
"null","sound/msl/boing.wav","null","audio-keyboard-response","319","174200","0.0-1.0-318.0","",""
"null","sound/msl/dog.wav","null","audio-keyboard-response","320","174719","0.0-1.0-319.0","",""
"null","sound/msl/organ.wav","null","audio-keyboard-response","321","175229","0.0-1.0-320.0","",""
"null","sound/msl/cow.wav","null","audio-keyboard-response","322","175740","0.0-1.0-321.0","",""
"null","sound/msl/door_bell.wav","null","audio-keyboard-response","323","176249","0.0-1.0-322.0","",""
"null","sound/msl/door.wav","null","audio-keyboard-response","324","176759","0.0-1.0-323.0","",""
"null","sound/msl/slide_whistle.wav","null","audio-keyboard-response","325","177280","0.0-1.0-324.0","",""
"null","sound/msl/duck.wav","null","audio-keyboard-response","326","177799","0.0-1.0-325.0","",""
"null","sound/msl/bird.wav","null","audio-keyboard-response","327","178320","0.0-1.0-326.0","",""
"null","sound/msl/clock.wav","null","audio-keyboard-response","328","178880","0.0-1.0-327.0","",""
"null","sound/msl/frog.wav","null","audio-keyboard-response","329","179400","0.0-1.0-328.0","",""
"null","sound/msl/ding.wav","null","audio-keyboard-response","330","179920","0.0-1.0-329.0","",""
"null","sound/msl/goat.wav","null","audio-keyboard-response","331","180471","0.0-1.0-330.0","",""
"null","sound/msl/Water.wav","null","audio-keyboard-response","332","180990","0.0-1.0-331.0","",""
"null","sound/msl/cat.wav","null","audio-keyboard-response","333","181500","0.0-1.0-332.0","",""
"null","sound/msl/boing.wav","null","audio-keyboard-response","334","182011","0.0-1.0-333.0","",""
"null","sound/msl/dog.wav","null","audio-keyboard-response","335","182530","0.0-1.0-334.0","",""
"null","sound/msl/organ.wav","null","audio-keyboard-response","336","183041","0.0-1.0-335.0","",""
"null","sound/msl/clock.wav","null","audio-keyboard-response","337","183601","0.0-1.0-336.0","",""
"null","sound/msl/frog.wav","null","audio-keyboard-response","338","184121","0.0-1.0-337.0","",""
"null","sound/msl/ding.wav","null","audio-keyboard-response","339","184641","0.0-1.0-338.0","",""
"null","sound/msl/cow.wav","null","audio-keyboard-response","340","185161","0.0-1.0-339.0","",""
"null","sound/msl/door_bell.wav","null","audio-keyboard-response","341","185680","0.0-1.0-340.0","",""
"null","sound/msl/door.wav","null","audio-keyboard-response","342","186191","0.0-1.0-341.0","",""
"null","sound/msl/boing.wav","null","audio-keyboard-response","343","186701","0.0-1.0-342.0","",""
"null","sound/msl/dog.wav","null","audio-keyboard-response","344","187214","0.0-1.0-343.0","",""
"null","sound/msl/organ.wav","null","audio-keyboard-response","345","187721","0.0-1.0-344.0","",""
"null","sound/msl/cow.wav","null","audio-keyboard-response","346","188242","0.0-1.0-345.0","",""
"null","sound/msl/door_bell.wav","null","audio-keyboard-response","347","188762","0.0-1.0-346.0","",""
"null","sound/msl/door.wav","null","audio-keyboard-response","348","189271","0.0-1.0-347.0","",""
"null","sound/msl/clock.wav","null","audio-keyboard-response","349","189831","0.0-1.0-348.0","",""
"null","sound/msl/frog.wav","null","audio-keyboard-response","350","190341","0.0-1.0-349.0","",""
"null","sound/msl/ding.wav","null","audio-keyboard-response","351","190851","0.0-1.0-350.0","",""
"null","sound/msl/goat.wav","null","audio-keyboard-response","352","191401","0.0-1.0-351.0","",""
"null","sound/msl/Water.wav","null","audio-keyboard-response","353","191924","0.0-1.0-352.0","",""
"null","sound/msl/cat.wav","null","audio-keyboard-response","354","192432","0.0-1.0-353.0","",""
"null","sound/msl/boing.wav","null","audio-keyboard-response","355","192942","0.0-1.0-354.0","",""
"null","sound/msl/dog.wav","null","audio-keyboard-response","356","193451","0.0-1.0-355.0","",""
"null","sound/msl/organ.wav","null","audio-keyboard-response","357","193962","0.0-1.0-356.0","",""
"null","sound/msl/cow.wav","null","audio-keyboard-response","358","194482","0.0-1.0-357.0","",""
"null","sound/msl/door_bell.wav","null","audio-keyboard-response","359","195002","0.0-1.0-358.0","",""
"null","sound/msl/door.wav","null","audio-keyboard-response","360","195512","0.0-1.0-359.0","",""
"11365","Instructions2-eng.png","49","image-keyboard-response","361","206880","0.0-2.0","",""
"null","sound/msl/clock.wav","null","audio-keyboard-response","362","207434","0.0-3.0-0.0","",""
"null","sound/msl/dog.wav","null","audio-keyboard-response","363","207945","0.0-3.0-1.0","",""
"null","sound/msl/cat.wav","null","audio-keyboard-response","364","208449","0.0-3.0-2.0","",""
"null","sound/asl/silence.wav","null","audio-keyboard-response","365","208952","0.0-3.0-3.0","",""
"null","sound/msl/cow.wav","null","audio-keyboard-response","366","209459","0.0-3.0-4.0","",""
"null","sound/msl/door_bell.wav","null","audio-keyboard-response","367","209969","0.0-3.0-5.0","",""
"null","sound/msl/door.wav","null","audio-keyboard-response","368","210479","0.0-3.0-6.0","",""
"1941","sound/asl/silence.wav","50","audio-keyboard-response","369","212430","0.0-3.0-7.0","true",""
"null","sound/msl/cow.wav","null","audio-keyboard-response","370","212939","0.0-4.0-0.0","",""
"null","sound/msl/duck.wav","null","audio-keyboard-response","371","213450","0.0-4.0-1.0","",""
"null","sound/msl/ding.wav","null","audio-keyboard-response","372","213970","0.0-4.0-2.0","",""
"null","sound/asl/silence.wav","null","audio-keyboard-response","373","214471","0.0-4.0-3.0","",""
"null","sound/msl/goat.wav","null","audio-keyboard-response","374","215020","0.0-4.0-4.0","",""
"null","sound/msl/Water.wav","null","audio-keyboard-response","375","215539","0.0-4.0-5.0","",""
"null","sound/msl/cat.wav","null","audio-keyboard-response","376","216050","0.0-4.0-6.0","",""
"1851","sound/asl/silence.wav","50","audio-keyboard-response","377","217910","0.0-4.0-7.0","true",""
"null","sound/msl/slide_whistle.wav","null","audio-keyboard-response","378","218420","0.0-5.0-0.0","",""
"null","sound/msl/duck.wav","null","audio-keyboard-response","379","218930","0.0-5.0-1.0","",""
"null","sound/msl/bird.wav","null","audio-keyboard-response","380","219451","0.0-5.0-2.0","",""
"null","sound/asl/silence.wav","null","audio-keyboard-response","381","219951","0.0-5.0-3.0","",""
"null","sound/msl/slide_whistle.wav","null","audio-keyboard-response","382","220460","0.0-5.0-4.0","",""
"null","sound/msl/frog.wav","null","audio-keyboard-response","383","220971","0.0-5.0-5.0","",""
"null","sound/msl/organ.wav","null","audio-keyboard-response","384","221480","0.0-5.0-6.0","",""
"891","sound/asl/silence.wav","49","audio-keyboard-response","385","222372","0.0-5.0-7.0","true",""
"null","sound/msl/goat.wav","null","audio-keyboard-response","386","222921","0.0-6.0-0.0","",""
"null","sound/msl/Water.wav","null","audio-keyboard-response","387","223441","0.0-6.0-1.0","",""
"null","sound/msl/cat.wav","null","audio-keyboard-response","388","223951","0.0-6.0-2.0","",""
"null","sound/asl/silence.wav","null","audio-keyboard-response","389","224452","0.0-6.0-3.0","",""
"null","sound/msl/boing.wav","null","audio-keyboard-response","390","224961","0.0-6.0-4.0","",""
"null","sound/msl/Water.wav","null","audio-keyboard-response","391","225481","0.0-6.0-5.0","",""
"null","sound/msl/door.wav","null","audio-keyboard-response","392","225991","0.0-6.0-6.0","",""
"3371","sound/asl/silence.wav","49","audio-keyboard-response","393","229372","0.0-6.0-7.0","true",""
"null","sound/msl/boing.wav","null","audio-keyboard-response","394","229881","0.0-7.0-0.0","",""
"null","sound/msl/Water.wav","null","audio-keyboard-response","395","230402","0.0-7.0-1.0","",""
"null","sound/msl/door.wav","null","audio-keyboard-response","396","230912","0.0-7.0-2.0","",""
"null","sound/asl/silence.wav","null","audio-keyboard-response","397","231413","0.0-7.0-3.0","",""
"null","sound/msl/slide_whistle.wav","null","audio-keyboard-response","398","231932","0.0-7.0-4.0","",""
"null","sound/msl/duck.wav","null","audio-keyboard-response","399","232452","0.0-7.0-5.0","",""
"null","sound/msl/bird.wav","null","audio-keyboard-response","400","232972","0.0-7.0-6.0","",""
"1571","sound/asl/silence.wav","50","audio-keyboard-response","401","234544","0.0-7.0-7.0","true",""
"null","sound/msl/boing.wav","null","audio-keyboard-response","402","235052","0.0-8.0-0.0","",""
"null","sound/msl/dog.wav","null","audio-keyboard-response","403","235572","0.0-8.0-1.0","",""
"null","sound/msl/organ.wav","null","audio-keyboard-response","404","236082","0.0-8.0-2.0","",""
"null","sound/asl/silence.wav","null","audio-keyboard-response","405","236584","0.0-8.0-3.0","",""
"null","sound/msl/boing.wav","null","audio-keyboard-response","406","237093","0.0-8.0-4.0","",""
"null","sound/msl/Water.wav","null","audio-keyboard-response","407","237612","0.0-8.0-5.0","",""
"null","sound/msl/door.wav","null","audio-keyboard-response","408","238122","0.0-8.0-6.0","",""
"1021","sound/asl/silence.wav","49","audio-keyboard-response","409","239144","0.0-8.0-7.0","true",""
"null","sound/msl/cow.wav","null","audio-keyboard-response","410","239653","0.0-9.0-0.0","",""
"null","sound/msl/door_bell.wav","null","audio-keyboard-response","411","240173","0.0-9.0-1.0","",""
"null","sound/msl/door.wav","null","audio-keyboard-response","412","240683","0.0-9.0-2.0","",""
"null","sound/asl/silence.wav","null","audio-keyboard-response","413","241184","0.0-9.0-3.0","",""
"null","sound/msl/boing.wav","null","audio-keyboard-response","414","241693","0.0-9.0-4.0","",""
"null","sound/msl/Water.wav","null","audio-keyboard-response","415","242213","0.0-9.0-5.0","",""
"null","sound/msl/door.wav","null","audio-keyboard-response","416","242723","0.0-9.0-6.0","",""
"531","sound/asl/silence.wav","49","audio-keyboard-response","417","243253","0.0-9.0-7.0","true",""
"null","sound/msl/goat.wav","null","audio-keyboard-response","418","243803","0.0-10.0-0.0","",""
"null","sound/msl/door_bell.wav","null","audio-keyboard-response","419","244324","0.0-10.0-1.0","",""
"null","sound/msl/bird.wav","null","audio-keyboard-response","420","244844","0.0-10.0-2.0","",""
"null","sound/asl/silence.wav","null","audio-keyboard-response","421","245345","0.0-10.0-3.0","",""
"null","sound/msl/slide_whistle.wav","null","audio-keyboard-response","422","245853","0.0-10.0-4.0","",""
"null","sound/msl/duck.wav","null","audio-keyboard-response","423","246374","0.0-10.0-5.0","",""
"null","sound/msl/bird.wav","null","audio-keyboard-response","424","246894","0.0-10.0-6.0","",""
"3800","sound/asl/silence.wav","49","audio-keyboard-response","425","250695","0.0-10.0-7.0","false",""
"null","sound/msl/clock.wav","null","audio-keyboard-response","426","251249","0.0-11.0-0.0","",""
"null","sound/msl/dog.wav","null","audio-keyboard-response","427","251772","0.0-11.0-1.0","",""
"null","sound/msl/cat.wav","null","audio-keyboard-response","428","252279","0.0-11.0-2.0","",""
"null","sound/asl/silence.wav","null","audio-keyboard-response","429","252784","0.0-11.0-3.0","",""
"null","sound/msl/boing.wav","null","audio-keyboard-response","430","253289","0.0-11.0-4.0","",""
"null","sound/msl/dog.wav","null","audio-keyboard-response","431","253810","0.0-11.0-5.0","",""
"null","sound/msl/organ.wav","null","audio-keyboard-response","432","254320","0.0-11.0-6.0","",""
"1091","sound/asl/silence.wav","49","audio-keyboard-response","433","255420","0.0-11.0-7.0","false",""
"null","sound/msl/boing.wav","null","audio-keyboard-response","434","255931","0.0-12.0-0.0","",""
"null","sound/msl/dog.wav","null","audio-keyboard-response","435","256450","0.0-12.0-1.0","",""
"null","sound/msl/organ.wav","null","audio-keyboard-response","436","256960","0.0-12.0-2.0","",""
"null","sound/asl/silence.wav","null","audio-keyboard-response","437","257463","0.0-12.0-3.0","",""
"null","sound/msl/goat.wav","null","audio-keyboard-response","438","258011","0.0-12.0-4.0","",""
"null","sound/msl/door_bell.wav","null","audio-keyboard-response","439","258530","0.0-12.0-5.0","",""
"null","sound/msl/bird.wav","null","audio-keyboard-response","440","259051","0.0-12.0-6.0","",""
"819","sound/asl/silence.wav","50","audio-keyboard-response","441","259879","0.0-12.0-7.0","false",""
"null","sound/msl/clock.wav","null","audio-keyboard-response","442","260440","0.0-13.0-0.0","",""
"null","sound/msl/dog.wav","null","audio-keyboard-response","443","260961","0.0-13.0-1.0","",""
"null","sound/msl/cat.wav","null","audio-keyboard-response","444","261472","0.0-13.0-2.0","",""
"null","sound/asl/silence.wav","null","audio-keyboard-response","445","261975","0.0-13.0-3.0","",""
"null","sound/msl/clock.wav","null","audio-keyboard-response","446","262531","0.0-13.0-4.0","",""
"null","sound/msl/frog.wav","null","audio-keyboard-response","447","263051","0.0-13.0-5.0","",""
"null","sound/msl/ding.wav","null","audio-keyboard-response","448","263571","0.0-13.0-6.0","",""
"880","sound/asl/silence.wav","50","audio-keyboard-response","449","264454","0.0-13.0-7.0","true",""
"null","sound/msl/slide_whistle.wav","null","audio-keyboard-response","450","264971","0.0-14.0-0.0","",""
"null","sound/msl/frog.wav","null","audio-keyboard-response","451","265492","0.0-14.0-1.0","",""
"null","sound/msl/organ.wav","null","audio-keyboard-response","452","266002","0.0-14.0-2.0","",""
"null","sound/asl/silence.wav","null","audio-keyboard-response","453","266503","0.0-14.0-3.0","",""
"null","sound/msl/clock.wav","null","audio-keyboard-response","454","267062","0.0-14.0-4.0","",""
"null","sound/msl/frog.wav","null","audio-keyboard-response","455","267572","0.0-14.0-5.0","",""
"null","sound/msl/ding.wav","null","audio-keyboard-response","456","268091","0.0-14.0-6.0","",""
"1629","sound/asl/silence.wav","49","audio-keyboard-response","457","269725","0.0-14.0-7.0","false",""
"null","sound/msl/cow.wav","null","audio-keyboard-response","458","270242","0.0-15.0-0.0","",""
"null","sound/msl/door_bell.wav","null","audio-keyboard-response","459","270762","0.0-15.0-1.0","",""
"null","sound/msl/door.wav","null","audio-keyboard-response","460","271272","0.0-15.0-2.0","",""
"null","sound/asl/silence.wav","null","audio-keyboard-response","461","271774","0.0-15.0-3.0","",""
"null","sound/msl/goat.wav","null","audio-keyboard-response","462","272323","0.0-15.0-4.0","",""
"null","sound/msl/door_bell.wav","null","audio-keyboard-response","463","272843","0.0-15.0-5.0","",""
"null","sound/msl/bird.wav","null","audio-keyboard-response","464","273362","0.0-15.0-6.0","",""
"389","sound/asl/silence.wav","49","audio-keyboard-response","465","273761","0.0-15.0-7.0","true",""
"null","sound/msl/clock.wav","null","audio-keyboard-response","466","274323","0.0-16.0-0.0","",""
"null","sound/msl/frog.wav","null","audio-keyboard-response","467","274843","0.0-16.0-1.0","",""
"null","sound/msl/ding.wav","null","audio-keyboard-response","468","275363","0.0-16.0-2.0","",""
"null","sound/asl/silence.wav","null","audio-keyboard-response","469","275864","0.0-16.0-3.0","",""
"null","sound/msl/cow.wav","null","audio-keyboard-response","470","276373","0.0-16.0-4.0","",""
"null","sound/msl/duck.wav","null","audio-keyboard-response","471","276893","0.0-16.0-5.0","",""
"null","sound/msl/ding.wav","null","audio-keyboard-response","472","277413","0.0-16.0-6.0","",""
"651","sound/asl/silence.wav","49","audio-keyboard-response","473","278069","0.0-16.0-7.0","true",""
"null","sound/msl/slide_whistle.wav","null","audio-keyboard-response","474","278573","0.0-17.0-0.0","",""
"null","sound/msl/frog.wav","null","audio-keyboard-response","475","279093","0.0-17.0-1.0","",""
"null","sound/msl/organ.wav","null","audio-keyboard-response","476","279603","0.0-17.0-2.0","",""
"null","sound/asl/silence.wav","null","audio-keyboard-response","477","280104","0.0-17.0-3.0","",""
"null","sound/msl/boing.wav","null","audio-keyboard-response","478","280614","0.0-17.0-4.0","",""
"null","sound/msl/dog.wav","null","audio-keyboard-response","479","281133","0.0-17.0-5.0","",""
"null","sound/msl/organ.wav","null","audio-keyboard-response","480","281643","0.0-17.0-6.0","",""
"1469","sound/asl/silence.wav","49","audio-keyboard-response","481","283119","0.0-17.0-7.0","false",""
"null","sound/msl/slide_whistle.wav","null","audio-keyboard-response","482","283624","0.0-18.0-0.0","",""
"null","sound/msl/duck.wav","null","audio-keyboard-response","483","284134","0.0-18.0-1.0","",""
"null","sound/msl/bird.wav","null","audio-keyboard-response","484","284654","0.0-18.0-2.0","",""
"null","sound/asl/silence.wav","null","audio-keyboard-response","485","285156","0.0-18.0-3.0","",""
"null","sound/msl/clock.wav","null","audio-keyboard-response","486","285714","0.0-18.0-4.0","",""
"null","sound/msl/dog.wav","null","audio-keyboard-response","487","286224","0.0-18.0-5.0","",""
"null","sound/msl/cat.wav","null","audio-keyboard-response","488","286735","0.0-18.0-6.0","",""
"1909","sound/asl/silence.wav","50","audio-keyboard-response","489","288648","0.0-18.0-7.0","false",""
"null","sound/msl/boing.wav","null","audio-keyboard-response","490","289155","0.0-19.0-0.0","",""
"null","sound/msl/Water.wav","null","audio-keyboard-response","491","289670","0.0-19.0-1.0","",""
"null","sound/msl/door.wav","null","audio-keyboard-response","492","290179","0.0-19.0-2.0","",""
"null","sound/asl/silence.wav","null","audio-keyboard-response","493","290681","0.0-19.0-3.0","",""
"null","sound/msl/clock.wav","null","audio-keyboard-response","494","291240","0.0-19.0-4.0","",""
"null","sound/msl/frog.wav","null","audio-keyboard-response","495","291760","0.0-19.0-5.0","",""
"null","sound/msl/ding.wav","null","audio-keyboard-response","496","292280","0.0-19.0-6.0","",""
"680","sound/asl/silence.wav","49","audio-keyboard-response","497","292963","0.0-19.0-7.0","false",""
"null","sound/msl/slide_whistle.wav","null","audio-keyboard-response","498","293480","0.0-20.0-0.0","",""
"null","sound/msl/duck.wav","null","audio-keyboard-response","499","294000","0.0-20.0-1.0","",""
"null","sound/msl/bird.wav","null","audio-keyboard-response","500","294520","0.0-20.0-2.0","",""
"null","sound/asl/silence.wav","null","audio-keyboard-response","501","295023","0.0-20.0-3.0","",""
"null","sound/msl/cow.wav","null","audio-keyboard-response","502","295530","0.0-20.0-4.0","",""
"null","sound/msl/duck.wav","null","audio-keyboard-response","503","296050","0.0-20.0-5.0","",""
"null","sound/msl/ding.wav","null","audio-keyboard-response","504","296571","0.0-20.0-6.0","",""
"2819","sound/asl/silence.wav","50","audio-keyboard-response","505","299401","0.0-20.0-7.0","false",""
"null","sound/msl/slide_whistle.wav","null","audio-keyboard-response","506","299921","0.0-21.0-0.0","",""
"null","sound/msl/frog.wav","null","audio-keyboard-response","507","300441","0.0-21.0-1.0","",""
"null","sound/msl/organ.wav","null","audio-keyboard-response","508","300951","0.0-21.0-2.0","",""
"null","sound/asl/silence.wav","null","audio-keyboard-response","509","301452","0.0-21.0-3.0","",""
"null","sound/msl/cow.wav","null","audio-keyboard-response","510","301972","0.0-21.0-4.0","",""
"null","sound/msl/door_bell.wav","null","audio-keyboard-response","511","302491","0.0-21.0-5.0","",""
"null","sound/msl/door.wav","null","audio-keyboard-response","512","303001","0.0-21.0-6.0","",""
"1600","sound/asl/silence.wav","50","audio-keyboard-response","513","304608","0.0-21.0-7.0","true",""
"null","sound/msl/goat.wav","null","audio-keyboard-response","514","305151","0.0-22.0-0.0","",""
"null","sound/msl/Water.wav","null","audio-keyboard-response","515","305672","0.0-22.0-1.0","",""
"null","sound/msl/cat.wav","null","audio-keyboard-response","516","306182","0.0-22.0-2.0","",""
"null","sound/asl/silence.wav","null","audio-keyboard-response","517","306684","0.0-22.0-3.0","",""
"null","sound/msl/slide_whistle.wav","null","audio-keyboard-response","518","307201","0.0-22.0-4.0","",""
"null","sound/msl/frog.wav","null","audio-keyboard-response","519","307722","0.0-22.0-5.0","",""
"null","sound/msl/organ.wav","null","audio-keyboard-response","520","308232","0.0-22.0-6.0","",""
"1691","sound/asl/silence.wav","49","audio-keyboard-response","521","309926","0.0-22.0-7.0","true",""
"null","sound/msl/cow.wav","null","audio-keyboard-response","522","310443","0.0-23.0-0.0","",""
"null","sound/msl/duck.wav","null","audio-keyboard-response","523","310963","0.0-23.0-1.0","",""
"null","sound/msl/ding.wav","null","audio-keyboard-response","524","311482","0.0-23.0-2.0","",""
"null","sound/asl/silence.wav","null","audio-keyboard-response","525","311984","0.0-23.0-3.0","",""
"null","sound/msl/cow.wav","null","audio-keyboard-response","526","312493","0.0-23.0-4.0","",""
"null","sound/msl/door_bell.wav","null","audio-keyboard-response","527","313013","0.0-23.0-5.0","",""
"null","sound/msl/door.wav","null","audio-keyboard-response","528","313523","0.0-23.0-6.0","",""
"461","sound/asl/silence.wav","50","audio-keyboard-response","529","313984","0.0-23.0-7.0","true",""
"null","sound/msl/clock.wav","null","audio-keyboard-response","530","314543","0.0-24.0-0.0","",""
"null","sound/msl/frog.wav","null","audio-keyboard-response","531","315053","0.0-24.0-1.0","",""
"null","sound/msl/ding.wav","null","audio-keyboard-response","532","315573","0.0-24.0-2.0","",""
"null","sound/asl/silence.wav","null","audio-keyboard-response","533","316076","0.0-24.0-3.0","",""
"null","sound/msl/goat.wav","null","audio-keyboard-response","534","316624","0.0-24.0-4.0","",""
"null","sound/msl/door_bell.wav","null","audio-keyboard-response","535","317133","0.0-24.0-5.0","",""
"null","sound/msl/bird.wav","null","audio-keyboard-response","536","317654","0.0-24.0-6.0","",""
"1419","sound/asl/silence.wav","50","audio-keyboard-response","537","319075","0.0-24.0-7.0","false",""
"null","sound/msl/cow.wav","null","audio-keyboard-response","538","319583","0.0-25.0-0.0","",""
"null","sound/msl/duck.wav","null","audio-keyboard-response","539","320093","0.0-25.0-1.0","",""
"null","sound/msl/ding.wav","null","audio-keyboard-response","540","320616","0.0-25.0-2.0","",""
"null","sound/asl/silence.wav","null","audio-keyboard-response","541","321119","0.0-25.0-3.0","",""
"null","sound/msl/boing.wav","null","audio-keyboard-response","542","321624","0.0-25.0-4.0","",""
"null","sound/msl/dog.wav","null","audio-keyboard-response","543","322134","0.0-25.0-5.0","",""
"null","sound/msl/organ.wav","null","audio-keyboard-response","544","322644","0.0-25.0-6.0","",""
"880","sound/asl/silence.wav","49","audio-keyboard-response","545","323528","0.0-25.0-7.0","false",""
"null","sound/msl/clock.wav","null","audio-keyboard-response","546","324084","0.0-26.0-0.0","",""
"null","sound/msl/dog.wav","null","audio-keyboard-response","547","324605","0.0-26.0-1.0","",""
"null","sound/msl/cat.wav","null","audio-keyboard-response","548","325115","0.0-26.0-2.0","",""
"null","sound/asl/silence.wav","null","audio-keyboard-response","549","325616","0.0-26.0-3.0","",""
"null","sound/msl/goat.wav","null","audio-keyboard-response","550","326166","0.0-26.0-4.0","",""
"null","sound/msl/Water.wav","null","audio-keyboard-response","551","326684","0.0-26.0-5.0","",""
"null","sound/msl/cat.wav","null","audio-keyboard-response","552","327195","0.0-26.0-6.0","",""
"2440","sound/asl/silence.wav","49","audio-keyboard-response","553","329644","0.0-26.0-7.0","false",""
"null","sound/msl/goat.wav","null","audio-keyboard-response","554","330190","0.0-27.0-0.0","",""
"null","sound/msl/Water.wav","null","audio-keyboard-response","555","330710","0.0-27.0-1.0","",""
"null","sound/msl/cat.wav","null","audio-keyboard-response","556","331220","0.0-27.0-2.0","",""
"null","sound/asl/silence.wav","null","audio-keyboard-response","557","331722","0.0-27.0-3.0","",""
"null","sound/msl/goat.wav","null","audio-keyboard-response","558","332270","0.0-27.0-4.0","",""
"null","sound/msl/door_bell.wav","null","audio-keyboard-response","559","332780","0.0-27.0-5.0","",""
"null","sound/msl/bird.wav","null","audio-keyboard-response","560","333291","0.0-27.0-6.0","",""
"549","sound/asl/silence.wav","50","audio-keyboard-response","561","333841","0.0-27.0-7.0","false",""
"2967","","","instructions","562","336810","0.0-28.0","","[{""page_index"":0,""viewing_time"":2967}]"
