"rt","stimulus","key_press","trial_type","trial_index","time_elapsed","internal_node_id","correct","view_history"
"4732","alien.jpg","49","image-keyboard-response","0","4733","0.0-0.0","",""
"null","sound/msl/cat.wav","null","audio-keyboard-response","1","5225","0.0-1.0-0.0","",""
"null","sound/msl/slide_whistle.wav","null","audio-keyboard-response","2","5726","0.0-1.0-1.0","",""
"null","sound/msl/dog.wav","null","audio-keyboard-response","3","6226","0.0-1.0-2.0","",""
"null","sound/msl/organ.wav","null","audio-keyboard-response","4","6726","0.0-1.0-3.0","",""
"null","sound/msl/boing.wav","null","audio-keyboard-response","5","7226","0.0-1.0-4.0","",""
"null","sound/msl/clock.wav","null","audio-keyboard-response","6","7775","0.0-1.0-5.0","",""
"null","sound/msl/door_bell.wav","null","audio-keyboard-response","7","8286","0.0-1.0-6.0","",""
"null","sound/msl/goat.wav","null","audio-keyboard-response","8","8826","0.0-1.0-7.0","",""
"null","sound/msl/door.wav","null","audio-keyboard-response","9","9325","0.0-1.0-8.0","",""
"null","sound/msl/duck.wav","null","audio-keyboard-response","10","9825","0.0-1.0-9.0","",""
"null","sound/msl/Water.wav","null","audio-keyboard-response","11","10336","0.0-1.0-10.0","",""
"null","sound/msl/ding.wav","null","audio-keyboard-response","12","10846","0.0-1.0-11.0","",""
"null","sound/msl/organ.wav","null","audio-keyboard-response","13","11345","0.0-1.0-12.0","",""
"null","sound/msl/boing.wav","null","audio-keyboard-response","14","11846","0.0-1.0-13.0","",""
"null","sound/msl/clock.wav","null","audio-keyboard-response","15","12396","0.0-1.0-14.0","",""
"null","sound/msl/cat.wav","null","audio-keyboard-response","16","12895","0.0-1.0-15.0","",""
"null","sound/msl/slide_whistle.wav","null","audio-keyboard-response","17","13396","0.0-1.0-16.0","",""
"null","sound/msl/dog.wav","null","audio-keyboard-response","18","13895","0.0-1.0-17.0","",""
"null","sound/msl/cow.wav","null","audio-keyboard-response","19","14405","0.0-1.0-18.0","",""
"null","sound/msl/frog.wav","null","audio-keyboard-response","20","14906","0.0-1.0-19.0","",""
"null","sound/msl/bird.wav","null","audio-keyboard-response","21","15415","0.0-1.0-20.0","",""
"null","sound/msl/duck.wav","null","audio-keyboard-response","22","15926","0.0-1.0-21.0","",""
"null","sound/msl/Water.wav","null","audio-keyboard-response","23","16435","0.0-1.0-22.0","",""
"null","sound/msl/ding.wav","null","audio-keyboard-response","24","16935","0.0-1.0-23.0","",""
"null","sound/msl/door_bell.wav","null","audio-keyboard-response","25","17446","0.0-1.0-24.0","",""
"null","sound/msl/goat.wav","null","audio-keyboard-response","26","17986","0.0-1.0-25.0","",""
"null","sound/msl/door.wav","null","audio-keyboard-response","27","18485","0.0-1.0-26.0","",""
"null","sound/msl/cat.wav","null","audio-keyboard-response","28","18985","0.0-1.0-27.0","",""
"null","sound/msl/slide_whistle.wav","null","audio-keyboard-response","29","19486","0.0-1.0-28.0","",""
"null","sound/msl/dog.wav","null","audio-keyboard-response","30","19985","0.0-1.0-29.0","",""
"null","sound/msl/organ.wav","null","audio-keyboard-response","31","20485","0.0-1.0-30.0","",""
"null","sound/msl/boing.wav","null","audio-keyboard-response","32","20985","0.0-1.0-31.0","",""
"null","sound/msl/clock.wav","null","audio-keyboard-response","33","21536","0.0-1.0-32.0","",""
"null","sound/msl/cow.wav","null","audio-keyboard-response","34","22045","0.0-1.0-33.0","",""
"null","sound/msl/frog.wav","null","audio-keyboard-response","35","22545","0.0-1.0-34.0","",""
"null","sound/msl/bird.wav","null","audio-keyboard-response","36","23056","0.0-1.0-35.0","",""
"null","sound/msl/door_bell.wav","null","audio-keyboard-response","37","23566","0.0-1.0-36.0","",""
"null","sound/msl/goat.wav","null","audio-keyboard-response","38","24105","0.0-1.0-37.0","",""
"null","sound/msl/door.wav","null","audio-keyboard-response","39","24605","0.0-1.0-38.0","",""
"null","sound/msl/duck.wav","null","audio-keyboard-response","40","25105","0.0-1.0-39.0","",""
"null","sound/msl/Water.wav","null","audio-keyboard-response","41","25615","0.0-1.0-40.0","",""
"null","sound/msl/ding.wav","null","audio-keyboard-response","42","26126","0.0-1.0-41.0","",""
"null","sound/msl/cow.wav","null","audio-keyboard-response","43","26625","0.0-1.0-42.0","",""
"null","sound/msl/frog.wav","null","audio-keyboard-response","44","27135","0.0-1.0-43.0","",""
"null","sound/msl/bird.wav","null","audio-keyboard-response","45","27645","0.0-1.0-44.0","",""
"null","sound/msl/organ.wav","null","audio-keyboard-response","46","28146","0.0-1.0-45.0","",""
"null","sound/msl/boing.wav","null","audio-keyboard-response","47","28646","0.0-1.0-46.0","",""
"null","sound/msl/clock.wav","null","audio-keyboard-response","48","29196","0.0-1.0-47.0","",""
"null","sound/msl/door_bell.wav","null","audio-keyboard-response","49","29695","0.0-1.0-48.0","",""
"null","sound/msl/goat.wav","null","audio-keyboard-response","50","30236","0.0-1.0-49.0","",""
"null","sound/msl/door.wav","null","audio-keyboard-response","51","30736","0.0-1.0-50.0","",""
"null","sound/msl/cat.wav","null","audio-keyboard-response","52","31236","0.0-1.0-51.0","",""
"null","sound/msl/slide_whistle.wav","null","audio-keyboard-response","53","31735","0.0-1.0-52.0","",""
"null","sound/msl/dog.wav","null","audio-keyboard-response","54","32245","0.0-1.0-53.0","",""
"null","sound/msl/organ.wav","null","audio-keyboard-response","55","32745","0.0-1.0-54.0","",""
"null","sound/msl/boing.wav","null","audio-keyboard-response","56","33246","0.0-1.0-55.0","",""
"null","sound/msl/clock.wav","null","audio-keyboard-response","57","33795","0.0-1.0-56.0","",""
"null","sound/msl/door_bell.wav","null","audio-keyboard-response","58","34295","0.0-1.0-57.0","",""
"null","sound/msl/goat.wav","null","audio-keyboard-response","59","34836","0.0-1.0-58.0","",""
"null","sound/msl/door.wav","null","audio-keyboard-response","60","35335","0.0-1.0-59.0","",""
"null","sound/msl/duck.wav","null","audio-keyboard-response","61","35845","0.0-1.0-60.0","",""
"null","sound/msl/Water.wav","null","audio-keyboard-response","62","36355","0.0-1.0-61.0","",""
"null","sound/msl/ding.wav","null","audio-keyboard-response","63","36855","0.0-1.0-62.0","",""
"null","sound/msl/cow.wav","null","audio-keyboard-response","64","37365","0.0-1.0-63.0","",""
"null","sound/msl/frog.wav","null","audio-keyboard-response","65","37865","0.0-1.0-64.0","",""
"null","sound/msl/bird.wav","null","audio-keyboard-response","66","38375","0.0-1.0-65.0","",""
"null","sound/msl/organ.wav","null","audio-keyboard-response","67","38876","0.0-1.0-66.0","",""
"null","sound/msl/boing.wav","null","audio-keyboard-response","68","39375","0.0-1.0-67.0","",""
"null","sound/msl/clock.wav","null","audio-keyboard-response","69","39925","0.0-1.0-68.0","",""
"null","sound/msl/cat.wav","null","audio-keyboard-response","70","40425","0.0-1.0-69.0","",""
"null","sound/msl/slide_whistle.wav","null","audio-keyboard-response","71","40925","0.0-1.0-70.0","",""
"null","sound/msl/dog.wav","null","audio-keyboard-response","72","41426","0.0-1.0-71.0","",""
"null","sound/msl/door_bell.wav","null","audio-keyboard-response","73","41935","0.0-1.0-72.0","",""
"null","sound/msl/goat.wav","null","audio-keyboard-response","74","42475","0.0-1.0-73.0","",""
"null","sound/msl/door.wav","null","audio-keyboard-response","75","42976","0.0-1.0-74.0","",""
"null","sound/msl/duck.wav","null","audio-keyboard-response","76","43486","0.0-1.0-75.0","",""
"null","sound/msl/Water.wav","null","audio-keyboard-response","77","43995","0.0-1.0-76.0","",""
"null","sound/msl/ding.wav","null","audio-keyboard-response","78","44496","0.0-1.0-77.0","",""
"null","sound/msl/door_bell.wav","null","audio-keyboard-response","79","45006","0.0-1.0-78.0","",""
"null","sound/msl/goat.wav","null","audio-keyboard-response","80","45546","0.0-1.0-79.0","",""
"null","sound/msl/door.wav","null","audio-keyboard-response","81","46045","0.0-1.0-80.0","",""
"null","sound/msl/cow.wav","null","audio-keyboard-response","82","46546","0.0-1.0-81.0","",""
"null","sound/msl/frog.wav","null","audio-keyboard-response","83","47056","0.0-1.0-82.0","",""
"null","sound/msl/bird.wav","null","audio-keyboard-response","84","47566","0.0-1.0-83.0","",""
"null","sound/msl/cat.wav","null","audio-keyboard-response","85","48065","0.0-1.0-84.0","",""
"null","sound/msl/slide_whistle.wav","null","audio-keyboard-response","86","48566","0.0-1.0-85.0","",""
"null","sound/msl/dog.wav","null","audio-keyboard-response","87","49065","0.0-1.0-86.0","",""
"null","sound/msl/organ.wav","null","audio-keyboard-response","88","49565","0.0-1.0-87.0","",""
"null","sound/msl/boing.wav","null","audio-keyboard-response","89","50065","0.0-1.0-88.0","",""
"null","sound/msl/clock.wav","null","audio-keyboard-response","90","50615","0.0-1.0-89.0","",""
"null","sound/msl/cow.wav","null","audio-keyboard-response","91","51125","0.0-1.0-90.0","",""
"null","sound/msl/frog.wav","null","audio-keyboard-response","92","51626","0.0-1.0-91.0","",""
"null","sound/msl/bird.wav","null","audio-keyboard-response","93","52135","0.0-1.0-92.0","",""
"null","sound/msl/duck.wav","null","audio-keyboard-response","94","52645","0.0-1.0-93.0","",""
"null","sound/msl/Water.wav","null","audio-keyboard-response","95","53155","0.0-1.0-94.0","",""
"null","sound/msl/ding.wav","null","audio-keyboard-response","96","53656","0.0-1.0-95.0","",""
"null","sound/msl/door_bell.wav","null","audio-keyboard-response","97","54165","0.0-1.0-96.0","",""
"null","sound/msl/goat.wav","null","audio-keyboard-response","98","54706","0.0-1.0-97.0","",""
"null","sound/msl/door.wav","null","audio-keyboard-response","99","55205","0.0-1.0-98.0","",""
"null","sound/msl/organ.wav","null","audio-keyboard-response","100","55706","0.0-1.0-99.0","",""
"null","sound/msl/boing.wav","null","audio-keyboard-response","101","56205","0.0-1.0-100.0","",""
"null","sound/msl/clock.wav","null","audio-keyboard-response","102","56756","0.0-1.0-101.0","",""
"null","sound/msl/cow.wav","null","audio-keyboard-response","103","57256","0.0-1.0-102.0","",""
"null","sound/msl/frog.wav","null","audio-keyboard-response","104","57766","0.0-1.0-103.0","",""
"null","sound/msl/bird.wav","null","audio-keyboard-response","105","58266","0.0-1.0-104.0","",""
"null","sound/msl/cat.wav","null","audio-keyboard-response","106","58766","0.0-1.0-105.0","",""
"null","sound/msl/slide_whistle.wav","null","audio-keyboard-response","107","59265","0.0-1.0-106.0","",""
"null","sound/msl/dog.wav","null","audio-keyboard-response","108","59775","0.0-1.0-107.0","",""
"null","sound/msl/organ.wav","null","audio-keyboard-response","109","60276","0.0-1.0-108.0","",""
"null","sound/msl/boing.wav","null","audio-keyboard-response","110","60775","0.0-1.0-109.0","",""
"null","sound/msl/clock.wav","null","audio-keyboard-response","111","61325","0.0-1.0-110.0","",""
"null","sound/msl/duck.wav","null","audio-keyboard-response","112","61825","0.0-1.0-111.0","",""
"null","sound/msl/Water.wav","null","audio-keyboard-response","113","62335","0.0-1.0-112.0","",""
"null","sound/msl/ding.wav","null","audio-keyboard-response","114","62846","0.0-1.0-113.0","",""
"null","sound/msl/cow.wav","null","audio-keyboard-response","115","63345","0.0-1.0-114.0","",""
"null","sound/msl/frog.wav","null","audio-keyboard-response","116","63855","0.0-1.0-115.0","",""
"null","sound/msl/bird.wav","null","audio-keyboard-response","117","64365","0.0-1.0-116.0","",""
"null","sound/msl/door_bell.wav","null","audio-keyboard-response","118","64865","0.0-1.0-117.0","",""
"null","sound/msl/goat.wav","null","audio-keyboard-response","119","65405","0.0-1.0-118.0","",""
"null","sound/msl/door.wav","null","audio-keyboard-response","120","65905","0.0-1.0-119.0","",""
"null","sound/msl/cat.wav","null","audio-keyboard-response","121","66405","0.0-1.0-120.0","",""
"null","sound/msl/slide_whistle.wav","null","audio-keyboard-response","122","66905","0.0-1.0-121.0","",""
"null","sound/msl/dog.wav","null","audio-keyboard-response","123","67415","0.0-1.0-122.0","",""
"null","sound/msl/organ.wav","null","audio-keyboard-response","124","67915","0.0-1.0-123.0","",""
"null","sound/msl/boing.wav","null","audio-keyboard-response","125","68415","0.0-1.0-124.0","",""
"null","sound/msl/clock.wav","null","audio-keyboard-response","126","68966","0.0-1.0-125.0","",""
"null","sound/msl/cow.wav","null","audio-keyboard-response","127","69465","0.0-1.0-126.0","",""
"null","sound/msl/frog.wav","null","audio-keyboard-response","128","69975","0.0-1.0-127.0","",""
"null","sound/msl/bird.wav","null","audio-keyboard-response","129","70485","0.0-1.0-128.0","",""
"null","sound/msl/duck.wav","null","audio-keyboard-response","130","70986","0.0-1.0-129.0","",""
"null","sound/msl/Water.wav","null","audio-keyboard-response","131","71496","0.0-1.0-130.0","",""
"null","sound/msl/ding.wav","null","audio-keyboard-response","132","72005","0.0-1.0-131.0","",""
"null","sound/msl/organ.wav","null","audio-keyboard-response","133","72505","0.0-1.0-132.0","",""
"null","sound/msl/boing.wav","null","audio-keyboard-response","134","73005","0.0-1.0-133.0","",""
"null","sound/msl/clock.wav","null","audio-keyboard-response","135","73556","0.0-1.0-134.0","",""
"null","sound/msl/door_bell.wav","null","audio-keyboard-response","136","74055","0.0-1.0-135.0","",""
"null","sound/msl/goat.wav","null","audio-keyboard-response","137","74596","0.0-1.0-136.0","",""
"null","sound/msl/door.wav","null","audio-keyboard-response","138","75096","0.0-1.0-137.0","",""
"null","sound/msl/duck.wav","null","audio-keyboard-response","139","75605","0.0-1.0-138.0","",""
"null","sound/msl/Water.wav","null","audio-keyboard-response","140","76115","0.0-1.0-139.0","",""
"null","sound/msl/ding.wav","null","audio-keyboard-response","141","76616","0.0-1.0-140.0","",""
"null","sound/msl/cat.wav","null","audio-keyboard-response","142","77115","0.0-1.0-141.0","",""
"null","sound/msl/slide_whistle.wav","null","audio-keyboard-response","143","77616","0.0-1.0-142.0","",""
"null","sound/msl/dog.wav","null","audio-keyboard-response","144","78125","0.0-1.0-143.0","",""
"null","sound/msl/cow.wav","null","audio-keyboard-response","145","78626","0.0-1.0-144.0","",""
"null","sound/msl/frog.wav","null","audio-keyboard-response","146","79136","0.0-1.0-145.0","",""
"null","sound/msl/bird.wav","null","audio-keyboard-response","147","79645","0.0-1.0-146.0","",""
"null","sound/msl/door_bell.wav","null","audio-keyboard-response","148","80145","0.0-1.0-147.0","",""
"null","sound/msl/goat.wav","null","audio-keyboard-response","149","80685","0.0-1.0-148.0","",""
"null","sound/msl/door.wav","null","audio-keyboard-response","150","81186","0.0-1.0-149.0","",""
"null","sound/msl/cat.wav","null","audio-keyboard-response","151","81685","0.0-1.0-150.0","",""
"null","sound/msl/slide_whistle.wav","null","audio-keyboard-response","152","82185","0.0-1.0-151.0","",""
"null","sound/msl/dog.wav","null","audio-keyboard-response","153","82695","0.0-1.0-152.0","",""
"null","sound/msl/organ.wav","null","audio-keyboard-response","154","83196","0.0-1.0-153.0","",""
"null","sound/msl/boing.wav","null","audio-keyboard-response","155","83696","0.0-1.0-154.0","",""
"null","sound/msl/clock.wav","null","audio-keyboard-response","156","84246","0.0-1.0-155.0","",""
"null","sound/msl/duck.wav","null","audio-keyboard-response","157","84745","0.0-1.0-156.0","",""
"null","sound/msl/Water.wav","null","audio-keyboard-response","158","85255","0.0-1.0-157.0","",""
"null","sound/msl/ding.wav","null","audio-keyboard-response","159","85766","0.0-1.0-158.0","",""
"null","sound/msl/cow.wav","null","audio-keyboard-response","160","86266","0.0-1.0-159.0","",""
"null","sound/msl/frog.wav","null","audio-keyboard-response","161","86775","0.0-1.0-160.0","",""
"null","sound/msl/bird.wav","null","audio-keyboard-response","162","87285","0.0-1.0-161.0","",""
"null","sound/msl/organ.wav","null","audio-keyboard-response","163","87786","0.0-1.0-162.0","",""
"null","sound/msl/boing.wav","null","audio-keyboard-response","164","88285","0.0-1.0-163.0","",""
"null","sound/msl/clock.wav","null","audio-keyboard-response","165","88835","0.0-1.0-164.0","",""
"null","sound/msl/duck.wav","null","audio-keyboard-response","166","89335","0.0-1.0-165.0","",""
"null","sound/msl/Water.wav","null","audio-keyboard-response","167","89846","0.0-1.0-166.0","",""
"null","sound/msl/ding.wav","null","audio-keyboard-response","168","90345","0.0-1.0-167.0","",""
"null","sound/msl/cat.wav","null","audio-keyboard-response","169","90845","0.0-1.0-168.0","",""
"null","sound/msl/slide_whistle.wav","null","audio-keyboard-response","170","91346","0.0-1.0-169.0","",""
"null","sound/msl/dog.wav","null","audio-keyboard-response","171","91855","0.0-1.0-170.0","",""
"null","sound/msl/door_bell.wav","null","audio-keyboard-response","172","92366","0.0-1.0-171.0","",""
"null","sound/msl/goat.wav","null","audio-keyboard-response","173","92905","0.0-1.0-172.0","",""
"null","sound/msl/door.wav","null","audio-keyboard-response","174","93405","0.0-1.0-173.0","",""
"null","sound/msl/cow.wav","null","audio-keyboard-response","175","93905","0.0-1.0-174.0","",""
"null","sound/msl/frog.wav","null","audio-keyboard-response","176","94416","0.0-1.0-175.0","",""
"null","sound/msl/bird.wav","null","audio-keyboard-response","177","94925","0.0-1.0-176.0","",""
"null","sound/msl/organ.wav","null","audio-keyboard-response","178","95425","0.0-1.0-177.0","",""
"null","sound/msl/boing.wav","null","audio-keyboard-response","179","95925","0.0-1.0-178.0","",""
"null","sound/msl/clock.wav","null","audio-keyboard-response","180","96475","0.0-1.0-179.0","",""
"null","sound/msl/door_bell.wav","null","audio-keyboard-response","181","96975","0.0-1.0-180.0","",""
"null","sound/msl/goat.wav","null","audio-keyboard-response","182","97515","0.0-1.0-181.0","",""
"null","sound/msl/door.wav","null","audio-keyboard-response","183","98016","0.0-1.0-182.0","",""
"null","sound/msl/duck.wav","null","audio-keyboard-response","184","98526","0.0-1.0-183.0","",""
"null","sound/msl/Water.wav","null","audio-keyboard-response","185","99036","0.0-1.0-184.0","",""
"null","sound/msl/ding.wav","null","audio-keyboard-response","186","99536","0.0-1.0-185.0","",""
"null","sound/msl/cat.wav","null","audio-keyboard-response","187","100035","0.0-1.0-186.0","",""
"null","sound/msl/slide_whistle.wav","null","audio-keyboard-response","188","100535","0.0-1.0-187.0","",""
"null","sound/msl/dog.wav","null","audio-keyboard-response","189","101045","0.0-1.0-188.0","",""
"null","sound/msl/cow.wav","null","audio-keyboard-response","190","101546","0.0-1.0-189.0","",""
"null","sound/msl/frog.wav","null","audio-keyboard-response","191","102056","0.0-1.0-190.0","",""
"null","sound/msl/bird.wav","null","audio-keyboard-response","192","102565","0.0-1.0-191.0","",""
"null","sound/msl/organ.wav","null","audio-keyboard-response","193","103065","0.0-1.0-192.0","",""
"null","sound/msl/boing.wav","null","audio-keyboard-response","194","103565","0.0-1.0-193.0","",""
"null","sound/msl/clock.wav","null","audio-keyboard-response","195","104115","0.0-1.0-194.0","",""
"null","sound/msl/door_bell.wav","null","audio-keyboard-response","196","104616","0.0-1.0-195.0","",""
"null","sound/msl/goat.wav","null","audio-keyboard-response","197","105156","0.0-1.0-196.0","",""
"null","sound/msl/door.wav","null","audio-keyboard-response","198","105655","0.0-1.0-197.0","",""
"null","sound/msl/cat.wav","null","audio-keyboard-response","199","106155","0.0-1.0-198.0","",""
"null","sound/msl/slide_whistle.wav","null","audio-keyboard-response","200","106655","0.0-1.0-199.0","",""
"null","sound/msl/dog.wav","null","audio-keyboard-response","201","107165","0.0-1.0-200.0","",""
"null","sound/msl/duck.wav","null","audio-keyboard-response","202","107665","0.0-1.0-201.0","",""
"null","sound/msl/Water.wav","null","audio-keyboard-response","203","108177","0.0-1.0-202.0","",""
"null","sound/msl/ding.wav","null","audio-keyboard-response","204","108685","0.0-1.0-203.0","",""
"null","sound/msl/cow.wav","null","audio-keyboard-response","205","109185","0.0-1.0-204.0","",""
"null","sound/msl/frog.wav","null","audio-keyboard-response","206","109696","0.0-1.0-205.0","",""
"null","sound/msl/bird.wav","null","audio-keyboard-response","207","110206","0.0-1.0-206.0","",""
"null","sound/msl/organ.wav","null","audio-keyboard-response","208","110705","0.0-1.0-207.0","",""
"null","sound/msl/boing.wav","null","audio-keyboard-response","209","111205","0.0-1.0-208.0","",""
"null","sound/msl/clock.wav","null","audio-keyboard-response","210","111756","0.0-1.0-209.0","",""
"null","sound/msl/cat.wav","null","audio-keyboard-response","211","112255","0.0-1.0-210.0","",""
"null","sound/msl/slide_whistle.wav","null","audio-keyboard-response","212","112755","0.0-1.0-211.0","",""
"null","sound/msl/dog.wav","null","audio-keyboard-response","213","113256","0.0-1.0-212.0","",""
"null","sound/msl/cow.wav","null","audio-keyboard-response","214","113766","0.0-1.0-213.0","",""
"null","sound/msl/frog.wav","null","audio-keyboard-response","215","114266","0.0-1.0-214.0","",""
"null","sound/msl/bird.wav","null","audio-keyboard-response","216","114775","0.0-1.0-215.0","",""
"null","sound/msl/door_bell.wav","null","audio-keyboard-response","217","115285","0.0-1.0-216.0","",""
"null","sound/msl/goat.wav","null","audio-keyboard-response","218","115825","0.0-1.0-217.0","",""
"null","sound/msl/door.wav","null","audio-keyboard-response","219","116325","0.0-1.0-218.0","",""
"null","sound/msl/duck.wav","null","audio-keyboard-response","220","116825","0.0-1.0-219.0","",""
"null","sound/msl/Water.wav","null","audio-keyboard-response","221","117336","0.0-1.0-220.0","",""
"null","sound/msl/ding.wav","null","audio-keyboard-response","222","117845","0.0-1.0-221.0","",""
"null","sound/msl/organ.wav","null","audio-keyboard-response","223","118345","0.0-1.0-222.0","",""
"null","sound/msl/boing.wav","null","audio-keyboard-response","224","118845","0.0-1.0-223.0","",""
"null","sound/msl/clock.wav","null","audio-keyboard-response","225","119395","0.0-1.0-224.0","",""
"null","sound/msl/door_bell.wav","null","audio-keyboard-response","226","119895","0.0-1.0-225.0","",""
"null","sound/msl/goat.wav","null","audio-keyboard-response","227","120435","0.0-1.0-226.0","",""
"null","sound/msl/door.wav","null","audio-keyboard-response","228","120935","0.0-1.0-227.0","",""
"null","sound/msl/cow.wav","null","audio-keyboard-response","229","121445","0.0-1.0-228.0","",""
"null","sound/msl/frog.wav","null","audio-keyboard-response","230","121945","0.0-1.0-229.0","",""
"null","sound/msl/bird.wav","null","audio-keyboard-response","231","122455","0.0-1.0-230.0","",""
"null","sound/msl/door_bell.wav","null","audio-keyboard-response","232","122965","0.0-1.0-231.0","",""
"null","sound/msl/goat.wav","null","audio-keyboard-response","233","123505","0.0-1.0-232.0","",""
"null","sound/msl/door.wav","null","audio-keyboard-response","234","124005","0.0-1.0-233.0","",""
"null","sound/msl/organ.wav","null","audio-keyboard-response","235","124506","0.0-1.0-234.0","",""
"null","sound/msl/boing.wav","null","audio-keyboard-response","236","125005","0.0-1.0-235.0","",""
"null","sound/msl/clock.wav","null","audio-keyboard-response","237","125555","0.0-1.0-236.0","",""
"null","sound/msl/duck.wav","null","audio-keyboard-response","238","126056","0.0-1.0-237.0","",""
"null","sound/msl/Water.wav","null","audio-keyboard-response","239","126565","0.0-1.0-238.0","",""
"null","sound/msl/ding.wav","null","audio-keyboard-response","240","127065","0.0-1.0-239.0","",""
"null","sound/msl/cat.wav","null","audio-keyboard-response","241","127565","0.0-1.0-240.0","",""
"null","sound/msl/slide_whistle.wav","null","audio-keyboard-response","242","128065","0.0-1.0-241.0","",""
"null","sound/msl/dog.wav","null","audio-keyboard-response","243","128575","0.0-1.0-242.0","",""
"null","sound/msl/cow.wav","null","audio-keyboard-response","244","129085","0.0-1.0-243.0","",""
"null","sound/msl/frog.wav","null","audio-keyboard-response","245","129585","0.0-1.0-244.0","",""
"null","sound/msl/bird.wav","null","audio-keyboard-response","246","130095","0.0-1.0-245.0","",""
"null","sound/msl/organ.wav","null","audio-keyboard-response","247","130595","0.0-1.0-246.0","",""
"null","sound/msl/boing.wav","null","audio-keyboard-response","248","131094","0.0-1.0-247.0","",""
"null","sound/msl/clock.wav","null","audio-keyboard-response","249","131646","0.0-1.0-248.0","",""
"null","sound/msl/duck.wav","null","audio-keyboard-response","250","132145","0.0-1.0-249.0","",""
"null","sound/msl/Water.wav","null","audio-keyboard-response","251","132655","0.0-1.0-250.0","",""
"null","sound/msl/ding.wav","null","audio-keyboard-response","252","133165","0.0-1.0-251.0","",""
"null","sound/msl/cat.wav","null","audio-keyboard-response","253","133665","0.0-1.0-252.0","",""
"null","sound/msl/slide_whistle.wav","null","audio-keyboard-response","254","134165","0.0-1.0-253.0","",""
"null","sound/msl/dog.wav","null","audio-keyboard-response","255","134666","0.0-1.0-254.0","",""
"null","sound/msl/door_bell.wav","null","audio-keyboard-response","256","135175","0.0-1.0-255.0","",""
"null","sound/msl/goat.wav","null","audio-keyboard-response","257","135715","0.0-1.0-256.0","",""
"null","sound/msl/door.wav","null","audio-keyboard-response","258","136215","0.0-1.0-257.0","",""
"null","sound/msl/cow.wav","null","audio-keyboard-response","259","136725","0.0-1.0-258.0","",""
"null","sound/msl/frog.wav","null","audio-keyboard-response","260","137225","0.0-1.0-259.0","",""
"null","sound/msl/bird.wav","null","audio-keyboard-response","261","137736","0.0-1.0-260.0","",""
"null","sound/msl/cat.wav","null","audio-keyboard-response","262","138236","0.0-1.0-261.0","",""
"null","sound/msl/slide_whistle.wav","null","audio-keyboard-response","263","138735","0.0-1.0-262.0","",""
"null","sound/msl/dog.wav","null","audio-keyboard-response","264","139245","0.0-1.0-263.0","",""
"null","sound/msl/duck.wav","null","audio-keyboard-response","265","139745","0.0-1.0-264.0","",""
"null","sound/msl/Water.wav","null","audio-keyboard-response","266","140255","0.0-1.0-265.0","",""
"null","sound/msl/ding.wav","null","audio-keyboard-response","267","140765","0.0-1.0-266.0","",""
"null","sound/msl/door_bell.wav","null","audio-keyboard-response","268","141265","0.0-1.0-267.0","",""
"null","sound/msl/goat.wav","null","audio-keyboard-response","269","141805","0.0-1.0-268.0","",""
"null","sound/msl/door.wav","null","audio-keyboard-response","270","142305","0.0-1.0-269.0","",""
"null","sound/msl/organ.wav","null","audio-keyboard-response","271","142805","0.0-1.0-270.0","",""
"null","sound/msl/boing.wav","null","audio-keyboard-response","272","143305","0.0-1.0-271.0","",""
"null","sound/msl/clock.wav","null","audio-keyboard-response","273","143855","0.0-1.0-272.0","",""
"null","sound/msl/cow.wav","null","audio-keyboard-response","274","144364","0.0-1.0-273.0","",""
"null","sound/msl/frog.wav","null","audio-keyboard-response","275","144865","0.0-1.0-274.0","",""
"null","sound/msl/bird.wav","null","audio-keyboard-response","276","145375","0.0-1.0-275.0","",""
"null","sound/msl/cat.wav","null","audio-keyboard-response","277","145875","0.0-1.0-276.0","",""
"null","sound/msl/slide_whistle.wav","null","audio-keyboard-response","278","146375","0.0-1.0-277.0","",""
"null","sound/msl/dog.wav","null","audio-keyboard-response","279","146885","0.0-1.0-278.0","",""
"null","sound/msl/duck.wav","null","audio-keyboard-response","280","147385","0.0-1.0-279.0","",""
"null","sound/msl/Water.wav","null","audio-keyboard-response","281","147895","0.0-1.0-280.0","",""
"null","sound/msl/ding.wav","null","audio-keyboard-response","282","148405","0.0-1.0-281.0","",""
"null","sound/msl/organ.wav","null","audio-keyboard-response","283","148905","0.0-1.0-282.0","",""
"null","sound/msl/boing.wav","null","audio-keyboard-response","284","149406","0.0-1.0-283.0","",""
"null","sound/msl/clock.wav","null","audio-keyboard-response","285","149955","0.0-1.0-284.0","",""
"null","sound/msl/door_bell.wav","null","audio-keyboard-response","286","150455","0.0-1.0-285.0","",""
"null","sound/msl/goat.wav","null","audio-keyboard-response","287","150995","0.0-1.0-286.0","",""
"null","sound/msl/door.wav","null","audio-keyboard-response","288","151495","0.0-1.0-287.0","",""
"null","sound/msl/cow.wav","null","audio-keyboard-response","289","152005","0.0-1.0-288.0","",""
"null","sound/msl/frog.wav","null","audio-keyboard-response","290","152505","0.0-1.0-289.0","",""
"null","sound/msl/bird.wav","null","audio-keyboard-response","291","153016","0.0-1.0-290.0","",""
"null","sound/msl/duck.wav","null","audio-keyboard-response","292","153525","0.0-1.0-291.0","",""
"null","sound/msl/Water.wav","null","audio-keyboard-response","293","154035","0.0-1.0-292.0","",""
"null","sound/msl/ding.wav","null","audio-keyboard-response","294","154535","0.0-1.0-293.0","",""
"null","sound/msl/cat.wav","null","audio-keyboard-response","295","155035","0.0-1.0-294.0","",""
"null","sound/msl/slide_whistle.wav","null","audio-keyboard-response","296","155535","0.0-1.0-295.0","",""
"null","sound/msl/dog.wav","null","audio-keyboard-response","297","156045","0.0-1.0-296.0","",""
"null","sound/msl/cow.wav","null","audio-keyboard-response","298","156545","0.0-1.0-297.0","",""
"null","sound/msl/frog.wav","null","audio-keyboard-response","299","157056","0.0-1.0-298.0","",""
"null","sound/msl/bird.wav","null","audio-keyboard-response","300","157565","0.0-1.0-299.0","",""
"null","sound/msl/organ.wav","null","audio-keyboard-response","301","158065","0.0-1.0-300.0","",""
"null","sound/msl/boing.wav","null","audio-keyboard-response","302","158565","0.0-1.0-301.0","",""
"null","sound/msl/clock.wav","null","audio-keyboard-response","303","159116","0.0-1.0-302.0","",""
"null","sound/msl/duck.wav","null","audio-keyboard-response","304","159615","0.0-1.0-303.0","",""
"null","sound/msl/Water.wav","null","audio-keyboard-response","305","160125","0.0-1.0-304.0","",""
"null","sound/msl/ding.wav","null","audio-keyboard-response","306","160625","0.0-1.0-305.0","",""
"null","sound/msl/door_bell.wav","null","audio-keyboard-response","307","161135","0.0-1.0-306.0","",""
"null","sound/msl/goat.wav","null","audio-keyboard-response","308","161676","0.0-1.0-307.0","",""
"null","sound/msl/door.wav","null","audio-keyboard-response","309","162175","0.0-1.0-308.0","",""
"null","sound/msl/cat.wav","null","audio-keyboard-response","310","162676","0.0-1.0-309.0","",""
"null","sound/msl/slide_whistle.wav","null","audio-keyboard-response","311","163175","0.0-1.0-310.0","",""
"null","sound/msl/dog.wav","null","audio-keyboard-response","312","163685","0.0-1.0-311.0","",""
"null","sound/msl/cow.wav","null","audio-keyboard-response","313","164185","0.0-1.0-312.0","",""
"null","sound/msl/frog.wav","null","audio-keyboard-response","314","164694","0.0-1.0-313.0","",""
"null","sound/msl/bird.wav","null","audio-keyboard-response","315","165205","0.0-1.0-314.0","",""
"null","sound/msl/organ.wav","null","audio-keyboard-response","316","165705","0.0-1.0-315.0","",""
"null","sound/msl/boing.wav","null","audio-keyboard-response","317","166205","0.0-1.0-316.0","",""
"null","sound/msl/clock.wav","null","audio-keyboard-response","318","166755","0.0-1.0-317.0","",""
"null","sound/msl/duck.wav","null","audio-keyboard-response","319","167256","0.0-1.0-318.0","",""
"null","sound/msl/Water.wav","null","audio-keyboard-response","320","167765","0.0-1.0-319.0","",""
"null","sound/msl/ding.wav","null","audio-keyboard-response","321","168265","0.0-1.0-320.0","",""
"null","sound/msl/cat.wav","null","audio-keyboard-response","322","168765","0.0-1.0-321.0","",""
"null","sound/msl/slide_whistle.wav","null","audio-keyboard-response","323","169265","0.0-1.0-322.0","",""
"null","sound/msl/dog.wav","null","audio-keyboard-response","324","169775","0.0-1.0-323.0","",""
"null","sound/msl/organ.wav","null","audio-keyboard-response","325","170275","0.0-1.0-324.0","",""
"null","sound/msl/boing.wav","null","audio-keyboard-response","326","170775","0.0-1.0-325.0","",""
"null","sound/msl/clock.wav","null","audio-keyboard-response","327","171326","0.0-1.0-326.0","",""
"null","sound/msl/door_bell.wav","null","audio-keyboard-response","328","171826","0.0-1.0-327.0","",""
"null","sound/msl/goat.wav","null","audio-keyboard-response","329","172366","0.0-1.0-328.0","",""
"null","sound/msl/door.wav","null","audio-keyboard-response","330","172865","0.0-1.0-329.0","",""
"null","sound/msl/cow.wav","null","audio-keyboard-response","331","173375","0.0-1.0-330.0","",""
"null","sound/msl/frog.wav","null","audio-keyboard-response","332","173885","0.0-1.0-331.0","",""
"null","sound/msl/bird.wav","null","audio-keyboard-response","333","174385","0.0-1.0-332.0","",""
"null","sound/msl/duck.wav","null","audio-keyboard-response","334","174895","0.0-1.0-333.0","",""
"null","sound/msl/Water.wav","null","audio-keyboard-response","335","175405","0.0-1.0-334.0","",""
"null","sound/msl/ding.wav","null","audio-keyboard-response","336","175905","0.0-1.0-335.0","",""
"null","sound/msl/door_bell.wav","null","audio-keyboard-response","337","176415","0.0-1.0-336.0","",""
"null","sound/msl/goat.wav","null","audio-keyboard-response","338","176956","0.0-1.0-337.0","",""
"null","sound/msl/door.wav","null","audio-keyboard-response","339","177456","0.0-1.0-338.0","",""
"null","sound/msl/cat.wav","null","audio-keyboard-response","340","177955","0.0-1.0-339.0","",""
"null","sound/msl/slide_whistle.wav","null","audio-keyboard-response","341","178455","0.0-1.0-340.0","",""
"null","sound/msl/dog.wav","null","audio-keyboard-response","342","178965","0.0-1.0-341.0","",""
"null","sound/msl/duck.wav","null","audio-keyboard-response","343","179465","0.0-1.0-342.0","",""
"null","sound/msl/Water.wav","null","audio-keyboard-response","344","179976","0.0-1.0-343.0","",""
"null","sound/msl/ding.wav","null","audio-keyboard-response","345","180485","0.0-1.0-344.0","",""
"null","sound/msl/cat.wav","null","audio-keyboard-response","346","180985","0.0-1.0-345.0","",""
"null","sound/msl/slide_whistle.wav","null","audio-keyboard-response","347","181485","0.0-1.0-346.0","",""
"null","sound/msl/dog.wav","null","audio-keyboard-response","348","181986","0.0-1.0-347.0","",""
"null","sound/msl/door_bell.wav","null","audio-keyboard-response","349","182495","0.0-1.0-348.0","",""
"null","sound/msl/goat.wav","null","audio-keyboard-response","350","183035","0.0-1.0-349.0","",""
"null","sound/msl/door.wav","null","audio-keyboard-response","351","183535","0.0-1.0-350.0","",""
"null","sound/msl/cow.wav","null","audio-keyboard-response","352","184045","0.0-1.0-351.0","",""
"null","sound/msl/frog.wav","null","audio-keyboard-response","353","184546","0.0-1.0-352.0","",""
"null","sound/msl/bird.wav","null","audio-keyboard-response","354","185055","0.0-1.0-353.0","",""
"null","sound/msl/duck.wav","null","audio-keyboard-response","355","185565","0.0-1.0-354.0","",""
"null","sound/msl/Water.wav","null","audio-keyboard-response","356","186075","0.0-1.0-355.0","",""
"null","sound/msl/ding.wav","null","audio-keyboard-response","357","186576","0.0-1.0-356.0","",""
"null","sound/msl/cat.wav","null","audio-keyboard-response","358","187075","0.0-1.0-357.0","",""
"null","sound/msl/slide_whistle.wav","null","audio-keyboard-response","359","187575","0.0-1.0-358.0","",""
"null","sound/msl/dog.wav","null","audio-keyboard-response","360","188086","0.0-1.0-359.0","",""
"4183","Instructions2-eng.png","49","image-keyboard-response","361","192269","0.0-2.0","",""
"null","sound/msl/door_bell.wav","null","audio-keyboard-response","362","192775","0.0-3.0-0.0","",""
"null","sound/msl/goat.wav","null","audio-keyboard-response","363","193315","0.0-3.0-1.0","",""
"null","sound/msl/door.wav","null","audio-keyboard-response","364","193816","0.0-3.0-2.0","",""
"null","sound/asl/silence.wav","null","audio-keyboard-response","365","194317","0.0-3.0-3.0","",""
"null","sound/msl/cat.wav","null","audio-keyboard-response","366","194816","0.0-3.0-4.0","",""
"null","sound/msl/boing.wav","null","audio-keyboard-response","367","195315","0.0-3.0-5.0","",""
"null","sound/msl/door.wav","null","audio-keyboard-response","368","195815","0.0-3.0-6.0","",""
"840","sound/asl/silence.wav","49","audio-keyboard-response","369","196663","0.0-3.0-7.0","true",""
"null","sound/msl/cow.wav","null","audio-keyboard-response","370","197165","0.0-4.0-0.0","",""
"null","sound/msl/frog.wav","null","audio-keyboard-response","371","197665","0.0-4.0-1.0","",""
"null","sound/msl/bird.wav","null","audio-keyboard-response","372","198175","0.0-4.0-2.0","",""
"null","sound/asl/silence.wav","null","audio-keyboard-response","373","198685","0.0-4.0-3.0","",""
"null","sound/msl/cow.wav","null","audio-keyboard-response","374","199185","0.0-4.0-4.0","",""
"null","sound/msl/slide_whistle.wav","null","audio-keyboard-response","375","199685","0.0-4.0-5.0","",""
"null","sound/msl/clock.wav","null","audio-keyboard-response","376","200235","0.0-4.0-6.0","",""
"272","sound/asl/silence.wav","49","audio-keyboard-response","377","200515","0.0-4.0-7.0","true",""
"null","sound/msl/cat.wav","null","audio-keyboard-response","378","201015","0.0-5.0-0.0","",""
"null","sound/msl/boing.wav","null","audio-keyboard-response","379","201516","0.0-5.0-1.0","",""
"null","sound/msl/door.wav","null","audio-keyboard-response","380","202016","0.0-5.0-2.0","",""
"null","sound/asl/silence.wav","null","audio-keyboard-response","381","202518","0.0-5.0-3.0","",""
"null","sound/msl/cow.wav","null","audio-keyboard-response","382","203015","0.0-5.0-4.0","",""
"null","sound/msl/frog.wav","null","audio-keyboard-response","383","203525","0.0-5.0-5.0","",""
"null","sound/msl/bird.wav","null","audio-keyboard-response","384","204026","0.0-5.0-6.0","",""
"379","sound/asl/silence.wav","50","audio-keyboard-response","385","204408","0.0-5.0-7.0","true",""
"null","sound/msl/organ.wav","null","audio-keyboard-response","386","204906","0.0-6.0-0.0","",""
"null","sound/msl/goat.wav","null","audio-keyboard-response","387","205445","0.0-6.0-1.0","",""
"null","sound/msl/ding.wav","null","audio-keyboard-response","388","205946","0.0-6.0-2.0","",""
"null","sound/asl/silence.wav","null","audio-keyboard-response","389","206464","0.0-6.0-3.0","",""
"null","sound/msl/duck.wav","null","audio-keyboard-response","390","206975","0.0-6.0-4.0","",""
"null","sound/msl/Water.wav","null","audio-keyboard-response","391","207485","0.0-6.0-5.0","",""
"null","sound/msl/ding.wav","null","audio-keyboard-response","392","207985","0.0-6.0-6.0","",""
"528","sound/asl/silence.wav","50","audio-keyboard-response","393","208516","0.0-6.0-7.0","true",""
"null","sound/msl/cat.wav","null","audio-keyboard-response","394","209016","0.0-7.0-0.0","",""
"null","sound/msl/slide_whistle.wav","null","audio-keyboard-response","395","209516","0.0-7.0-1.0","",""
"null","sound/msl/dog.wav","null","audio-keyboard-response","396","210015","0.0-7.0-2.0","",""
"null","sound/asl/silence.wav","null","audio-keyboard-response","397","210525","0.0-7.0-3.0","",""
"null","sound/msl/cow.wav","null","audio-keyboard-response","398","211025","0.0-7.0-4.0","",""
"null","sound/msl/slide_whistle.wav","null","audio-keyboard-response","399","211526","0.0-7.0-5.0","",""
"null","sound/msl/clock.wav","null","audio-keyboard-response","400","212076","0.0-7.0-6.0","",""
"331","sound/asl/silence.wav","49","audio-keyboard-response","401","212410","0.0-7.0-7.0","true",""
"null","sound/msl/duck.wav","null","audio-keyboard-response","402","212905","0.0-8.0-0.0","",""
"null","sound/msl/frog.wav","null","audio-keyboard-response","403","213416","0.0-8.0-1.0","",""
"null","sound/msl/dog.wav","null","audio-keyboard-response","404","213926","0.0-8.0-2.0","",""
"null","sound/asl/silence.wav","null","audio-keyboard-response","405","214435","0.0-8.0-3.0","",""
"null","sound/msl/door_bell.wav","null","audio-keyboard-response","406","214935","0.0-8.0-4.0","",""
"null","sound/msl/goat.wav","null","audio-keyboard-response","407","215476","0.0-8.0-5.0","",""
"null","sound/msl/door.wav","null","audio-keyboard-response","408","215976","0.0-8.0-6.0","",""
"320","sound/asl/silence.wav","50","audio-keyboard-response","409","216295","0.0-8.0-7.0","true",""
"null","sound/msl/cat.wav","null","audio-keyboard-response","410","216795","0.0-9.0-0.0","",""
"null","sound/msl/slide_whistle.wav","null","audio-keyboard-response","411","217296","0.0-9.0-1.0","",""
"null","sound/msl/dog.wav","null","audio-keyboard-response","412","217805","0.0-9.0-2.0","",""
"null","sound/asl/silence.wav","null","audio-keyboard-response","413","218325","0.0-9.0-3.0","",""
"null","sound/msl/duck.wav","null","audio-keyboard-response","414","218825","0.0-9.0-4.0","",""
"null","sound/msl/frog.wav","null","audio-keyboard-response","415","219335","0.0-9.0-5.0","",""
"null","sound/msl/dog.wav","null","audio-keyboard-response","416","219846","0.0-9.0-6.0","",""
"371","sound/asl/silence.wav","49","audio-keyboard-response","417","220225","0.0-9.0-7.0","true",""
"null","sound/msl/door_bell.wav","null","audio-keyboard-response","418","220725","0.0-10.0-0.0","",""
"null","sound/msl/Water.wav","null","audio-keyboard-response","419","221235","0.0-10.0-1.0","",""
"null","sound/msl/bird.wav","null","audio-keyboard-response","420","221735","0.0-10.0-2.0","",""
"null","sound/asl/silence.wav","null","audio-keyboard-response","421","222245","0.0-10.0-3.0","",""
"null","sound/msl/cow.wav","null","audio-keyboard-response","422","222746","0.0-10.0-4.0","",""
"null","sound/msl/frog.wav","null","audio-keyboard-response","423","223256","0.0-10.0-5.0","",""
"null","sound/msl/bird.wav","null","audio-keyboard-response","424","223765","0.0-10.0-6.0","",""
"309","sound/asl/silence.wav","50","audio-keyboard-response","425","224076","0.0-10.0-7.0","true",""
"null","sound/msl/duck.wav","null","audio-keyboard-response","426","224575","0.0-11.0-0.0","",""
"null","sound/msl/frog.wav","null","audio-keyboard-response","427","225086","0.0-11.0-1.0","",""
"null","sound/msl/dog.wav","null","audio-keyboard-response","428","225585","0.0-11.0-2.0","",""
"null","sound/asl/silence.wav","null","audio-keyboard-response","429","226104","0.0-11.0-3.0","",""
"null","sound/msl/organ.wav","null","audio-keyboard-response","430","226605","0.0-11.0-4.0","",""
"null","sound/msl/boing.wav","null","audio-keyboard-response","431","227105","0.0-11.0-5.0","",""
"null","sound/msl/clock.wav","null","audio-keyboard-response","432","227656","0.0-11.0-6.0","",""
"339","sound/asl/silence.wav","50","audio-keyboard-response","433","228005","0.0-11.0-7.0","true",""
"null","sound/msl/organ.wav","null","audio-keyboard-response","434","228506","0.0-12.0-0.0","",""
"null","sound/msl/boing.wav","null","audio-keyboard-response","435","229006","0.0-12.0-1.0","",""
"null","sound/msl/clock.wav","null","audio-keyboard-response","436","229555","0.0-12.0-2.0","",""
"null","sound/asl/silence.wav","null","audio-keyboard-response","437","230065","0.0-12.0-3.0","",""
"null","sound/msl/organ.wav","null","audio-keyboard-response","438","230566","0.0-12.0-4.0","",""
"null","sound/msl/goat.wav","null","audio-keyboard-response","439","231106","0.0-12.0-5.0","",""
"null","sound/msl/ding.wav","null","audio-keyboard-response","440","231615","0.0-12.0-6.0","",""
"240","sound/asl/silence.wav","49","audio-keyboard-response","441","231863","0.0-12.0-7.0","true",""
"null","sound/msl/cat.wav","null","audio-keyboard-response","442","232356","0.0-13.0-0.0","",""
"null","sound/msl/boing.wav","null","audio-keyboard-response","443","232855","0.0-13.0-1.0","",""
"null","sound/msl/door.wav","null","audio-keyboard-response","444","233356","0.0-13.0-2.0","",""
"null","sound/asl/silence.wav","null","audio-keyboard-response","445","233864","0.0-13.0-3.0","",""
"null","sound/msl/cat.wav","null","audio-keyboard-response","446","234366","0.0-13.0-4.0","",""
"null","sound/msl/slide_whistle.wav","null","audio-keyboard-response","447","234865","0.0-13.0-5.0","",""
"null","sound/msl/dog.wav","null","audio-keyboard-response","448","235375","0.0-13.0-6.0","",""
"299","sound/asl/silence.wav","50","audio-keyboard-response","449","235676","0.0-13.0-7.0","true",""
"null","sound/msl/duck.wav","null","audio-keyboard-response","450","236176","0.0-14.0-0.0","",""
"null","sound/msl/Water.wav","null","audio-keyboard-response","451","236685","0.0-14.0-1.0","",""
"null","sound/msl/ding.wav","null","audio-keyboard-response","452","237186","0.0-14.0-2.0","",""
"null","sound/asl/silence.wav","null","audio-keyboard-response","453","237705","0.0-14.0-3.0","",""
"null","sound/msl/duck.wav","null","audio-keyboard-response","454","238216","0.0-14.0-4.0","",""
"null","sound/msl/frog.wav","null","audio-keyboard-response","455","238725","0.0-14.0-5.0","",""
"null","sound/msl/dog.wav","null","audio-keyboard-response","456","239225","0.0-14.0-6.0","",""
"819","sound/asl/silence.wav","49","audio-keyboard-response","457","240053","0.0-14.0-7.0","true",""
"null","sound/msl/cow.wav","null","audio-keyboard-response","458","240545","0.0-15.0-0.0","",""
"null","sound/msl/frog.wav","null","audio-keyboard-response","459","241056","0.0-15.0-1.0","",""
"null","sound/msl/bird.wav","null","audio-keyboard-response","460","241566","0.0-15.0-2.0","",""
"null","sound/asl/silence.wav","null","audio-keyboard-response","461","242085","0.0-15.0-3.0","",""
"null","sound/msl/organ.wav","null","audio-keyboard-response","462","242586","0.0-15.0-4.0","",""
"null","sound/msl/goat.wav","null","audio-keyboard-response","463","243125","0.0-15.0-5.0","",""
"null","sound/msl/ding.wav","null","audio-keyboard-response","464","243625","0.0-15.0-6.0","",""
"960","sound/asl/silence.wav","50","audio-keyboard-response","465","244594","0.0-15.0-7.0","false",""
"null","sound/msl/door_bell.wav","null","audio-keyboard-response","466","245095","0.0-16.0-0.0","",""
"null","sound/msl/Water.wav","null","audio-keyboard-response","467","245606","0.0-16.0-1.0","",""
"null","sound/msl/bird.wav","null","audio-keyboard-response","468","246106","0.0-16.0-2.0","",""
"null","sound/asl/silence.wav","null","audio-keyboard-response","469","246625","0.0-16.0-3.0","",""
"null","sound/msl/duck.wav","null","audio-keyboard-response","470","247125","0.0-16.0-4.0","",""
"null","sound/msl/Water.wav","null","audio-keyboard-response","471","247635","0.0-16.0-5.0","",""
"null","sound/msl/ding.wav","null","audio-keyboard-response","472","248135","0.0-16.0-6.0","",""
"1400","sound/asl/silence.wav","49","audio-keyboard-response","473","249538","0.0-16.0-7.0","false",""
"null","sound/msl/cat.wav","null","audio-keyboard-response","474","250035","0.0-17.0-0.0","",""
"null","sound/msl/boing.wav","null","audio-keyboard-response","475","250535","0.0-17.0-1.0","",""
"null","sound/msl/door.wav","null","audio-keyboard-response","476","251036","0.0-17.0-2.0","",""
"null","sound/asl/silence.wav","null","audio-keyboard-response","477","251554","0.0-17.0-3.0","",""
"null","sound/msl/duck.wav","null","audio-keyboard-response","478","252055","0.0-17.0-4.0","",""
"null","sound/msl/Water.wav","null","audio-keyboard-response","479","252566","0.0-17.0-5.0","",""
"null","sound/msl/ding.wav","null","audio-keyboard-response","480","253066","0.0-17.0-6.0","",""
"680","sound/asl/silence.wav","50","audio-keyboard-response","481","253751","0.0-17.0-7.0","true",""
"null","sound/msl/door_bell.wav","null","audio-keyboard-response","482","254255","0.0-18.0-0.0","",""
"null","sound/msl/Water.wav","null","audio-keyboard-response","483","254765","0.0-18.0-1.0","",""
"null","sound/msl/bird.wav","null","audio-keyboard-response","484","255266","0.0-18.0-2.0","",""
"null","sound/asl/silence.wav","null","audio-keyboard-response","485","255775","0.0-18.0-3.0","",""
"null","sound/msl/door_bell.wav","null","audio-keyboard-response","486","256286","0.0-18.0-4.0","",""
"null","sound/msl/goat.wav","null","audio-keyboard-response","487","256825","0.0-18.0-5.0","",""
"null","sound/msl/door.wav","null","audio-keyboard-response","488","257325","0.0-18.0-6.0","",""
"480","sound/asl/silence.wav","50","audio-keyboard-response","489","257810","0.0-18.0-7.0","true",""
"null","sound/msl/organ.wav","null","audio-keyboard-response","490","258305","0.0-19.0-0.0","",""
"null","sound/msl/goat.wav","null","audio-keyboard-response","491","258846","0.0-19.0-1.0","",""
"null","sound/msl/ding.wav","null","audio-keyboard-response","492","259346","0.0-19.0-2.0","",""
"null","sound/asl/silence.wav","null","audio-keyboard-response","493","259854","0.0-19.0-3.0","",""
"null","sound/msl/door_bell.wav","null","audio-keyboard-response","494","260346","0.0-19.0-4.0","",""
"null","sound/msl/goat.wav","null","audio-keyboard-response","495","260885","0.0-19.0-5.0","",""
"null","sound/msl/door.wav","null","audio-keyboard-response","496","261386","0.0-19.0-6.0","",""
"688","sound/asl/silence.wav","50","audio-keyboard-response","497","262085","0.0-19.0-7.0","true",""
"null","sound/msl/duck.wav","null","audio-keyboard-response","498","262586","0.0-20.0-0.0","",""
"null","sound/msl/Water.wav","null","audio-keyboard-response","499","263096","0.0-20.0-1.0","",""
"null","sound/msl/ding.wav","null","audio-keyboard-response","500","263605","0.0-20.0-2.0","",""
"null","sound/asl/silence.wav","null","audio-keyboard-response","501","264125","0.0-20.0-3.0","",""
"null","sound/msl/cow.wav","null","audio-keyboard-response","502","264625","0.0-20.0-4.0","",""
"null","sound/msl/slide_whistle.wav","null","audio-keyboard-response","503","265125","0.0-20.0-5.0","",""
"null","sound/msl/clock.wav","null","audio-keyboard-response","504","265676","0.0-20.0-6.0","",""
"301","sound/asl/silence.wav","50","audio-keyboard-response","505","265980","0.0-20.0-7.0","false",""
"null","sound/msl/cow.wav","null","audio-keyboard-response","506","266486","0.0-21.0-0.0","",""
"null","sound/msl/slide_whistle.wav","null","audio-keyboard-response","507","266986","0.0-21.0-1.0","",""
"null","sound/msl/clock.wav","null","audio-keyboard-response","508","267536","0.0-21.0-2.0","",""
"null","sound/asl/silence.wav","null","audio-keyboard-response","509","268044","0.0-21.0-3.0","",""
"null","sound/msl/organ.wav","null","audio-keyboard-response","510","268536","0.0-21.0-4.0","",""
"null","sound/msl/boing.wav","null","audio-keyboard-response","511","269035","0.0-21.0-5.0","",""
"null","sound/msl/clock.wav","null","audio-keyboard-response","512","269586","0.0-21.0-6.0","",""
"939","sound/asl/silence.wav","49","audio-keyboard-response","513","270526","0.0-21.0-7.0","false",""
"null","sound/msl/door_bell.wav","null","audio-keyboard-response","514","271025","0.0-22.0-0.0","",""
"null","sound/msl/goat.wav","null","audio-keyboard-response","515","271566","0.0-22.0-1.0","",""
"null","sound/msl/door.wav","null","audio-keyboard-response","516","272065","0.0-22.0-2.0","",""
"null","sound/asl/silence.wav","null","audio-keyboard-response","517","272585","0.0-22.0-3.0","",""
"null","sound/msl/cow.wav","null","audio-keyboard-response","518","273095","0.0-22.0-4.0","",""
"null","sound/msl/slide_whistle.wav","null","audio-keyboard-response","519","273595","0.0-22.0-5.0","",""
"null","sound/msl/clock.wav","null","audio-keyboard-response","520","274145","0.0-22.0-6.0","",""
"389","sound/asl/silence.wav","49","audio-keyboard-response","521","274536","0.0-22.0-7.0","true",""
"null","sound/msl/organ.wav","null","audio-keyboard-response","522","275035","0.0-23.0-0.0","",""
"null","sound/msl/goat.wav","null","audio-keyboard-response","523","275575","0.0-23.0-1.0","",""
"null","sound/msl/ding.wav","null","audio-keyboard-response","524","276086","0.0-23.0-2.0","",""
"null","sound/asl/silence.wav","null","audio-keyboard-response","525","276595","0.0-23.0-3.0","",""
"null","sound/msl/cat.wav","null","audio-keyboard-response","526","277095","0.0-23.0-4.0","",""
"null","sound/msl/slide_whistle.wav","null","audio-keyboard-response","527","277596","0.0-23.0-5.0","",""
"null","sound/msl/dog.wav","null","audio-keyboard-response","528","278095","0.0-23.0-6.0","",""
"320","sound/asl/silence.wav","50","audio-keyboard-response","529","278423","0.0-23.0-7.0","true",""
"null","sound/msl/cow.wav","null","audio-keyboard-response","530","278925","0.0-24.0-0.0","",""
"null","sound/msl/frog.wav","null","audio-keyboard-response","531","279425","0.0-24.0-1.0","",""
"null","sound/msl/bird.wav","null","audio-keyboard-response","532","279935","0.0-24.0-2.0","",""
"null","sound/asl/silence.wav","null","audio-keyboard-response","533","280445","0.0-24.0-3.0","",""
"null","sound/msl/duck.wav","null","audio-keyboard-response","534","280946","0.0-24.0-4.0","",""
"null","sound/msl/frog.wav","null","audio-keyboard-response","535","281455","0.0-24.0-5.0","",""
"null","sound/msl/dog.wav","null","audio-keyboard-response","536","281966","0.0-24.0-6.0","",""
"389","sound/asl/silence.wav","49","audio-keyboard-response","537","282357","0.0-24.0-7.0","true",""
"null","sound/msl/door_bell.wav","null","audio-keyboard-response","538","282856","0.0-25.0-0.0","",""
"null","sound/msl/Water.wav","null","audio-keyboard-response","539","283366","0.0-25.0-1.0","",""
"null","sound/msl/bird.wav","null","audio-keyboard-response","540","283865","0.0-25.0-2.0","",""
"null","sound/asl/silence.wav","null","audio-keyboard-response","541","284367","0.0-25.0-3.0","",""
"null","sound/msl/cat.wav","null","audio-keyboard-response","542","284866","0.0-25.0-4.0","",""
"null","sound/msl/slide_whistle.wav","null","audio-keyboard-response","543","285365","0.0-25.0-5.0","",""
"null","sound/msl/dog.wav","null","audio-keyboard-response","544","285866","0.0-25.0-6.0","",""
"848","sound/asl/silence.wav","49","audio-keyboard-response","545","286717","0.0-25.0-7.0","false",""
"null","sound/msl/organ.wav","null","audio-keyboard-response","546","287216","0.0-26.0-0.0","",""
"null","sound/msl/boing.wav","null","audio-keyboard-response","547","287717","0.0-26.0-1.0","",""
"null","sound/msl/clock.wav","null","audio-keyboard-response","548","288267","0.0-26.0-2.0","",""
"null","sound/asl/silence.wav","null","audio-keyboard-response","549","288776","0.0-26.0-3.0","",""
"null","sound/msl/door_bell.wav","null","audio-keyboard-response","550","289285","0.0-26.0-4.0","",""
"null","sound/msl/Water.wav","null","audio-keyboard-response","551","289796","0.0-26.0-5.0","",""
"null","sound/msl/bird.wav","null","audio-keyboard-response","552","290296","0.0-26.0-6.0","",""
"480","sound/asl/silence.wav","49","audio-keyboard-response","553","290777","0.0-26.0-7.0","true",""
"null","sound/msl/organ.wav","null","audio-keyboard-response","554","291277","0.0-27.0-0.0","",""
"null","sound/msl/boing.wav","null","audio-keyboard-response","555","291776","0.0-27.0-1.0","",""
"null","sound/msl/clock.wav","null","audio-keyboard-response","556","292326","0.0-27.0-2.0","",""
"null","sound/asl/silence.wav","null","audio-keyboard-response","557","292845","0.0-27.0-3.0","",""
"null","sound/msl/cat.wav","null","audio-keyboard-response","558","293347","0.0-27.0-4.0","",""
"null","sound/msl/boing.wav","null","audio-keyboard-response","559","293846","0.0-27.0-5.0","",""
"null","sound/msl/door.wav","null","audio-keyboard-response","560","294346","0.0-27.0-6.0","",""
"389","sound/asl/silence.wav","49","audio-keyboard-response","561","294741","0.0-27.0-7.0","true",""
"1708","","","instructions","562","296449","0.0-28.0","","[{""page_index"":0,""viewing_time"":1708}]"
