"rt","stimulus","key_press","trial_type","trial_index","time_elapsed","internal_node_id","correct","view_history"
"21485","alien.jpg","49","image-keyboard-response","0","21487","0.0-0.0","",""
"null","sound/msl/bird.wav","null","audio-keyboard-response","1","21990","0.0-1.0-0.0","",""
"null","sound/msl/organ.wav","null","audio-keyboard-response","2","22490","0.0-1.0-1.0","",""
"null","sound/msl/ding.wav","null","audio-keyboard-response","3","23000","0.0-1.0-2.0","",""
"null","sound/msl/duck.wav","null","audio-keyboard-response","4","23511","0.0-1.0-3.0","",""
"null","sound/msl/Water.wav","null","audio-keyboard-response","5","24021","0.0-1.0-4.0","",""
"null","sound/msl/clock.wav","null","audio-keyboard-response","6","24571","0.0-1.0-5.0","",""
"null","sound/msl/door.wav","null","audio-keyboard-response","7","25071","0.0-1.0-6.0","",""
"null","sound/msl/cat.wav","null","audio-keyboard-response","8","25571","0.0-1.0-7.0","",""
"null","sound/msl/slide_whistle.wav","null","audio-keyboard-response","9","26069","0.0-1.0-8.0","",""
"null","sound/msl/frog.wav","null","audio-keyboard-response","10","26570","0.0-1.0-9.0","",""
"null","sound/msl/cow.wav","null","audio-keyboard-response","11","27080","0.0-1.0-10.0","",""
"null","sound/msl/boing.wav","null","audio-keyboard-response","12","27580","0.0-1.0-11.0","",""
"null","sound/msl/duck.wav","null","audio-keyboard-response","13","28080","0.0-1.0-12.0","",""
"null","sound/msl/Water.wav","null","audio-keyboard-response","14","28590","0.0-1.0-13.0","",""
"null","sound/msl/clock.wav","null","audio-keyboard-response","15","29142","0.0-1.0-14.0","",""
"null","sound/msl/bird.wav","null","audio-keyboard-response","16","29639","0.0-1.0-15.0","",""
"null","sound/msl/organ.wav","null","audio-keyboard-response","17","30140","0.0-1.0-16.0","",""
"null","sound/msl/ding.wav","null","audio-keyboard-response","18","30640","0.0-1.0-17.0","",""
"null","sound/msl/goat.wav","null","audio-keyboard-response","19","31181","0.0-1.0-18.0","",""
"null","sound/msl/dog.wav","null","audio-keyboard-response","20","31680","0.0-1.0-19.0","",""
"null","sound/msl/door_bell.wav","null","audio-keyboard-response","21","32190","0.0-1.0-20.0","",""
"null","sound/msl/frog.wav","null","audio-keyboard-response","22","32689","0.0-1.0-21.0","",""
"null","sound/msl/cow.wav","null","audio-keyboard-response","23","33199","0.0-1.0-22.0","",""
"null","sound/msl/boing.wav","null","audio-keyboard-response","24","33699","0.0-1.0-23.0","",""
"null","sound/msl/door.wav","null","audio-keyboard-response","25","34200","0.0-1.0-24.0","",""
"null","sound/msl/cat.wav","null","audio-keyboard-response","26","34700","0.0-1.0-25.0","",""
"null","sound/msl/slide_whistle.wav","null","audio-keyboard-response","27","35200","0.0-1.0-26.0","",""
"null","sound/msl/bird.wav","null","audio-keyboard-response","28","35709","0.0-1.0-27.0","",""
"null","sound/msl/organ.wav","null","audio-keyboard-response","29","36210","0.0-1.0-28.0","",""
"null","sound/msl/ding.wav","null","audio-keyboard-response","30","36720","0.0-1.0-29.0","",""
"null","sound/msl/duck.wav","null","audio-keyboard-response","31","37230","0.0-1.0-30.0","",""
"null","sound/msl/Water.wav","null","audio-keyboard-response","32","37739","0.0-1.0-31.0","",""
"null","sound/msl/clock.wav","null","audio-keyboard-response","33","38289","0.0-1.0-32.0","",""
"null","sound/msl/goat.wav","null","audio-keyboard-response","34","38829","0.0-1.0-33.0","",""
"null","sound/msl/dog.wav","null","audio-keyboard-response","35","39330","0.0-1.0-34.0","",""
"null","sound/msl/door_bell.wav","null","audio-keyboard-response","36","39840","0.0-1.0-35.0","",""
"null","sound/msl/door.wav","null","audio-keyboard-response","37","40339","0.0-1.0-36.0","",""
"null","sound/msl/cat.wav","null","audio-keyboard-response","38","40840","0.0-1.0-37.0","",""
"null","sound/msl/slide_whistle.wav","null","audio-keyboard-response","39","41339","0.0-1.0-38.0","",""
"null","sound/msl/frog.wav","null","audio-keyboard-response","40","41840","0.0-1.0-39.0","",""
"null","sound/msl/cow.wav","null","audio-keyboard-response","41","42349","0.0-1.0-40.0","",""
"null","sound/msl/boing.wav","null","audio-keyboard-response","42","42849","0.0-1.0-41.0","",""
"null","sound/msl/goat.wav","null","audio-keyboard-response","43","43389","0.0-1.0-42.0","",""
"null","sound/msl/dog.wav","null","audio-keyboard-response","44","43889","0.0-1.0-43.0","",""
"null","sound/msl/door_bell.wav","null","audio-keyboard-response","45","44400","0.0-1.0-44.0","",""
"null","sound/msl/duck.wav","null","audio-keyboard-response","46","44910","0.0-1.0-45.0","",""
"null","sound/msl/Water.wav","null","audio-keyboard-response","47","45420","0.0-1.0-46.0","",""
"null","sound/msl/clock.wav","null","audio-keyboard-response","48","45970","0.0-1.0-47.0","",""
"null","sound/msl/door.wav","null","audio-keyboard-response","49","46469","0.0-1.0-48.0","",""
"null","sound/msl/cat.wav","null","audio-keyboard-response","50","46970","0.0-1.0-49.0","",""
"null","sound/msl/slide_whistle.wav","null","audio-keyboard-response","51","47469","0.0-1.0-50.0","",""
"null","sound/msl/bird.wav","null","audio-keyboard-response","52","47969","0.0-1.0-51.0","",""
"null","sound/msl/organ.wav","null","audio-keyboard-response","53","48469","0.0-1.0-52.0","",""
"null","sound/msl/ding.wav","null","audio-keyboard-response","54","48970","0.0-1.0-53.0","",""
"null","sound/msl/duck.wav","null","audio-keyboard-response","55","49480","0.0-1.0-54.0","",""
"null","sound/msl/Water.wav","null","audio-keyboard-response","56","49989","0.0-1.0-55.0","",""
"null","sound/msl/clock.wav","null","audio-keyboard-response","57","50540","0.0-1.0-56.0","",""
"null","sound/msl/door.wav","null","audio-keyboard-response","58","51039","0.0-1.0-57.0","",""
"null","sound/msl/cat.wav","null","audio-keyboard-response","59","51539","0.0-1.0-58.0","",""
"null","sound/msl/slide_whistle.wav","null","audio-keyboard-response","60","52040","0.0-1.0-59.0","",""
"null","sound/msl/frog.wav","null","audio-keyboard-response","61","52550","0.0-1.0-60.0","",""
"null","sound/msl/cow.wav","null","audio-keyboard-response","62","53050","0.0-1.0-61.0","",""
"null","sound/msl/boing.wav","null","audio-keyboard-response","63","53550","0.0-1.0-62.0","",""
"null","sound/msl/goat.wav","null","audio-keyboard-response","64","54089","0.0-1.0-63.0","",""
"null","sound/msl/dog.wav","null","audio-keyboard-response","65","54599","0.0-1.0-64.0","",""
"null","sound/msl/door_bell.wav","null","audio-keyboard-response","66","55109","0.0-1.0-65.0","",""
"null","sound/msl/duck.wav","null","audio-keyboard-response","67","55610","0.0-1.0-66.0","",""
"null","sound/msl/Water.wav","null","audio-keyboard-response","68","56119","0.0-1.0-67.0","",""
"null","sound/msl/clock.wav","null","audio-keyboard-response","69","56670","0.0-1.0-68.0","",""
"null","sound/msl/bird.wav","null","audio-keyboard-response","70","57169","0.0-1.0-69.0","",""
"null","sound/msl/organ.wav","null","audio-keyboard-response","71","57669","0.0-1.0-70.0","",""
"null","sound/msl/ding.wav","null","audio-keyboard-response","72","58170","0.0-1.0-71.0","",""
"null","sound/msl/door.wav","null","audio-keyboard-response","73","58670","0.0-1.0-72.0","",""
"null","sound/msl/cat.wav","null","audio-keyboard-response","74","59170","0.0-1.0-73.0","",""
"null","sound/msl/slide_whistle.wav","null","audio-keyboard-response","75","59669","0.0-1.0-74.0","",""
"null","sound/msl/frog.wav","null","audio-keyboard-response","76","60170","0.0-1.0-75.0","",""
"null","sound/msl/cow.wav","null","audio-keyboard-response","77","60680","0.0-1.0-76.0","",""
"null","sound/msl/boing.wav","null","audio-keyboard-response","78","61179","0.0-1.0-77.0","",""
"null","sound/msl/door.wav","null","audio-keyboard-response","79","61680","0.0-1.0-78.0","",""
"null","sound/msl/cat.wav","null","audio-keyboard-response","80","62180","0.0-1.0-79.0","",""
"null","sound/msl/slide_whistle.wav","null","audio-keyboard-response","81","62680","0.0-1.0-80.0","",""
"null","sound/msl/goat.wav","null","audio-keyboard-response","82","63219","0.0-1.0-81.0","",""
"null","sound/msl/dog.wav","null","audio-keyboard-response","83","63719","0.0-1.0-82.0","",""
"null","sound/msl/door_bell.wav","null","audio-keyboard-response","84","64229","0.0-1.0-83.0","",""
"null","sound/msl/bird.wav","null","audio-keyboard-response","85","64730","0.0-1.0-84.0","",""
"null","sound/msl/organ.wav","null","audio-keyboard-response","86","65230","0.0-1.0-85.0","",""
"null","sound/msl/ding.wav","null","audio-keyboard-response","87","65730","0.0-1.0-86.0","",""
"null","sound/msl/duck.wav","null","audio-keyboard-response","88","66239","0.0-1.0-87.0","",""
"null","sound/msl/Water.wav","null","audio-keyboard-response","89","66750","0.0-1.0-88.0","",""
"null","sound/msl/clock.wav","null","audio-keyboard-response","90","67299","0.0-1.0-89.0","",""
"null","sound/msl/goat.wav","null","audio-keyboard-response","91","67840","0.0-1.0-90.0","",""
"null","sound/msl/dog.wav","null","audio-keyboard-response","92","68349","0.0-1.0-91.0","",""
"null","sound/msl/door_bell.wav","null","audio-keyboard-response","93","68849","0.0-1.0-92.0","",""
"null","sound/msl/frog.wav","null","audio-keyboard-response","94","69359","0.0-1.0-93.0","",""
"null","sound/msl/cow.wav","null","audio-keyboard-response","95","69871","0.0-1.0-94.0","",""
"null","sound/msl/boing.wav","null","audio-keyboard-response","96","70370","0.0-1.0-95.0","",""
"null","sound/msl/door.wav","null","audio-keyboard-response","97","70869","0.0-1.0-96.0","",""
"null","sound/msl/cat.wav","null","audio-keyboard-response","98","71369","0.0-1.0-97.0","",""
"null","sound/msl/slide_whistle.wav","null","audio-keyboard-response","99","71870","0.0-1.0-98.0","",""
"null","sound/msl/duck.wav","null","audio-keyboard-response","100","72370","0.0-1.0-99.0","",""
"null","sound/msl/Water.wav","null","audio-keyboard-response","101","72880","0.0-1.0-100.0","",""
"null","sound/msl/clock.wav","null","audio-keyboard-response","102","73430","0.0-1.0-101.0","",""
"null","sound/msl/goat.wav","null","audio-keyboard-response","103","73970","0.0-1.0-102.0","",""
"null","sound/msl/dog.wav","null","audio-keyboard-response","104","74480","0.0-1.0-103.0","",""
"null","sound/msl/door_bell.wav","null","audio-keyboard-response","105","74990","0.0-1.0-104.0","",""
"null","sound/msl/bird.wav","null","audio-keyboard-response","106","75490","0.0-1.0-105.0","",""
"null","sound/msl/organ.wav","null","audio-keyboard-response","107","75990","0.0-1.0-106.0","",""
"null","sound/msl/ding.wav","null","audio-keyboard-response","108","76489","0.0-1.0-107.0","",""
"null","sound/msl/duck.wav","null","audio-keyboard-response","109","77000","0.0-1.0-108.0","",""
"null","sound/msl/Water.wav","null","audio-keyboard-response","110","77509","0.0-1.0-109.0","",""
"null","sound/msl/clock.wav","null","audio-keyboard-response","111","78060","0.0-1.0-110.0","",""
"null","sound/msl/frog.wav","null","audio-keyboard-response","112","78560","0.0-1.0-111.0","",""
"null","sound/msl/cow.wav","null","audio-keyboard-response","113","79069","0.0-1.0-112.0","",""
"null","sound/msl/boing.wav","null","audio-keyboard-response","114","79570","0.0-1.0-113.0","",""
"null","sound/msl/goat.wav","null","audio-keyboard-response","115","80109","0.0-1.0-114.0","",""
"null","sound/msl/dog.wav","null","audio-keyboard-response","116","80610","0.0-1.0-115.0","",""
"null","sound/msl/door_bell.wav","null","audio-keyboard-response","117","81119","0.0-1.0-116.0","",""
"null","sound/msl/door.wav","null","audio-keyboard-response","118","81619","0.0-1.0-117.0","",""
"null","sound/msl/cat.wav","null","audio-keyboard-response","119","82120","0.0-1.0-118.0","",""
"null","sound/msl/slide_whistle.wav","null","audio-keyboard-response","120","82619","0.0-1.0-119.0","",""
"null","sound/msl/bird.wav","null","audio-keyboard-response","121","83120","0.0-1.0-120.0","",""
"null","sound/msl/organ.wav","null","audio-keyboard-response","122","83619","0.0-1.0-121.0","",""
"null","sound/msl/ding.wav","null","audio-keyboard-response","123","84120","0.0-1.0-122.0","",""
"null","sound/msl/duck.wav","null","audio-keyboard-response","124","84629","0.0-1.0-123.0","",""
"null","sound/msl/Water.wav","null","audio-keyboard-response","125","85139","0.0-1.0-124.0","",""
"null","sound/msl/clock.wav","null","audio-keyboard-response","126","85689","0.0-1.0-125.0","",""
"null","sound/msl/goat.wav","null","audio-keyboard-response","127","86230","0.0-1.0-126.0","",""
"null","sound/msl/dog.wav","null","audio-keyboard-response","128","86729","0.0-1.0-127.0","",""
"null","sound/msl/door_bell.wav","null","audio-keyboard-response","129","87239","0.0-1.0-128.0","",""
"null","sound/msl/frog.wav","null","audio-keyboard-response","130","87749","0.0-1.0-129.0","",""
"null","sound/msl/cow.wav","null","audio-keyboard-response","131","88249","0.0-1.0-130.0","",""
"null","sound/msl/boing.wav","null","audio-keyboard-response","132","88749","0.0-1.0-131.0","",""
"null","sound/msl/duck.wav","null","audio-keyboard-response","133","89250","0.0-1.0-132.0","",""
"null","sound/msl/Water.wav","null","audio-keyboard-response","134","89759","0.0-1.0-133.0","",""
"null","sound/msl/clock.wav","null","audio-keyboard-response","135","90310","0.0-1.0-134.0","",""
"null","sound/msl/door.wav","null","audio-keyboard-response","136","90809","0.0-1.0-135.0","",""
"null","sound/msl/cat.wav","null","audio-keyboard-response","137","91310","0.0-1.0-136.0","",""
"null","sound/msl/slide_whistle.wav","null","audio-keyboard-response","138","91809","0.0-1.0-137.0","",""
"null","sound/msl/frog.wav","null","audio-keyboard-response","139","92320","0.0-1.0-138.0","",""
"null","sound/msl/cow.wav","null","audio-keyboard-response","140","92830","0.0-1.0-139.0","",""
"null","sound/msl/boing.wav","null","audio-keyboard-response","141","93330","0.0-1.0-140.0","",""
"null","sound/msl/bird.wav","null","audio-keyboard-response","142","93840","0.0-1.0-141.0","",""
"null","sound/msl/organ.wav","null","audio-keyboard-response","143","94340","0.0-1.0-142.0","",""
"null","sound/msl/ding.wav","null","audio-keyboard-response","144","94840","0.0-1.0-143.0","",""
"null","sound/msl/goat.wav","null","audio-keyboard-response","145","95379","0.0-1.0-144.0","",""
"null","sound/msl/dog.wav","null","audio-keyboard-response","146","95880","0.0-1.0-145.0","",""
"null","sound/msl/door_bell.wav","null","audio-keyboard-response","147","96390","0.0-1.0-146.0","",""
"null","sound/msl/door.wav","null","audio-keyboard-response","148","96890","0.0-1.0-147.0","",""
"null","sound/msl/cat.wav","null","audio-keyboard-response","149","97391","0.0-1.0-148.0","",""
"null","sound/msl/slide_whistle.wav","null","audio-keyboard-response","150","97890","0.0-1.0-149.0","",""
"null","sound/msl/bird.wav","null","audio-keyboard-response","151","98400","0.0-1.0-150.0","",""
"null","sound/msl/organ.wav","null","audio-keyboard-response","152","98900","0.0-1.0-151.0","",""
"null","sound/msl/ding.wav","null","audio-keyboard-response","153","99400","0.0-1.0-152.0","",""
"null","sound/msl/duck.wav","null","audio-keyboard-response","154","99910","0.0-1.0-153.0","",""
"null","sound/msl/Water.wav","null","audio-keyboard-response","155","100420","0.0-1.0-154.0","",""
"null","sound/msl/clock.wav","null","audio-keyboard-response","156","100971","0.0-1.0-155.0","",""
"null","sound/msl/frog.wav","null","audio-keyboard-response","157","101480","0.0-1.0-156.0","",""
"null","sound/msl/cow.wav","null","audio-keyboard-response","158","101990","0.0-1.0-157.0","",""
"null","sound/msl/boing.wav","null","audio-keyboard-response","159","102490","0.0-1.0-158.0","",""
"null","sound/msl/goat.wav","null","audio-keyboard-response","160","103029","0.0-1.0-159.0","",""
"null","sound/msl/dog.wav","null","audio-keyboard-response","161","103530","0.0-1.0-160.0","",""
"null","sound/msl/door_bell.wav","null","audio-keyboard-response","162","104040","0.0-1.0-161.0","",""
"null","sound/msl/duck.wav","null","audio-keyboard-response","163","104550","0.0-1.0-162.0","",""
"null","sound/msl/Water.wav","null","audio-keyboard-response","164","105060","0.0-1.0-163.0","",""
"null","sound/msl/clock.wav","null","audio-keyboard-response","165","105610","0.0-1.0-164.0","",""
"null","sound/msl/frog.wav","null","audio-keyboard-response","166","106120","0.0-1.0-165.0","",""
"null","sound/msl/cow.wav","null","audio-keyboard-response","167","106630","0.0-1.0-166.0","",""
"null","sound/msl/boing.wav","null","audio-keyboard-response","168","107130","0.0-1.0-167.0","",""
"null","sound/msl/bird.wav","null","audio-keyboard-response","169","107640","0.0-1.0-168.0","",""
"null","sound/msl/organ.wav","null","audio-keyboard-response","170","108140","0.0-1.0-169.0","",""
"null","sound/msl/ding.wav","null","audio-keyboard-response","171","108639","0.0-1.0-170.0","",""
"null","sound/msl/door.wav","null","audio-keyboard-response","172","109139","0.0-1.0-171.0","",""
"null","sound/msl/cat.wav","null","audio-keyboard-response","173","109640","0.0-1.0-172.0","",""
"null","sound/msl/slide_whistle.wav","null","audio-keyboard-response","174","110140","0.0-1.0-173.0","",""
"null","sound/msl/goat.wav","null","audio-keyboard-response","175","110680","0.0-1.0-174.0","",""
"null","sound/msl/dog.wav","null","audio-keyboard-response","176","111190","0.0-1.0-175.0","",""
"null","sound/msl/door_bell.wav","null","audio-keyboard-response","177","111691","0.0-1.0-176.0","",""
"null","sound/msl/duck.wav","null","audio-keyboard-response","178","112200","0.0-1.0-177.0","",""
"null","sound/msl/Water.wav","null","audio-keyboard-response","179","112710","0.0-1.0-178.0","",""
"null","sound/msl/clock.wav","null","audio-keyboard-response","180","113259","0.0-1.0-179.0","",""
"null","sound/msl/door.wav","null","audio-keyboard-response","181","113760","0.0-1.0-180.0","",""
"null","sound/msl/cat.wav","null","audio-keyboard-response","182","114260","0.0-1.0-181.0","",""
"null","sound/msl/slide_whistle.wav","null","audio-keyboard-response","183","114760","0.0-1.0-182.0","",""
"null","sound/msl/frog.wav","null","audio-keyboard-response","184","115269","0.0-1.0-183.0","",""
"null","sound/msl/cow.wav","null","audio-keyboard-response","185","115770","0.0-1.0-184.0","",""
"null","sound/msl/boing.wav","null","audio-keyboard-response","186","116270","0.0-1.0-185.0","",""
"null","sound/msl/bird.wav","null","audio-keyboard-response","187","116770","0.0-1.0-186.0","",""
"null","sound/msl/organ.wav","null","audio-keyboard-response","188","117270","0.0-1.0-187.0","",""
"null","sound/msl/ding.wav","null","audio-keyboard-response","189","117770","0.0-1.0-188.0","",""
"null","sound/msl/goat.wav","null","audio-keyboard-response","190","118311","0.0-1.0-189.0","",""
"null","sound/msl/dog.wav","null","audio-keyboard-response","191","118810","0.0-1.0-190.0","",""
"null","sound/msl/door_bell.wav","null","audio-keyboard-response","192","119320","0.0-1.0-191.0","",""
"null","sound/msl/duck.wav","null","audio-keyboard-response","193","119829","0.0-1.0-192.0","",""
"null","sound/msl/Water.wav","null","audio-keyboard-response","194","120340","0.0-1.0-193.0","",""
"null","sound/msl/clock.wav","null","audio-keyboard-response","195","120890","0.0-1.0-194.0","",""
"null","sound/msl/door.wav","null","audio-keyboard-response","196","121390","0.0-1.0-195.0","",""
"null","sound/msl/cat.wav","null","audio-keyboard-response","197","121890","0.0-1.0-196.0","",""
"null","sound/msl/slide_whistle.wav","null","audio-keyboard-response","198","122390","0.0-1.0-197.0","",""
"null","sound/msl/bird.wav","null","audio-keyboard-response","199","122891","0.0-1.0-198.0","",""
"null","sound/msl/organ.wav","null","audio-keyboard-response","200","123390","0.0-1.0-199.0","",""
"null","sound/msl/ding.wav","null","audio-keyboard-response","201","123891","0.0-1.0-200.0","",""
"null","sound/msl/frog.wav","null","audio-keyboard-response","202","124401","0.0-1.0-201.0","",""
"null","sound/msl/cow.wav","null","audio-keyboard-response","203","124910","0.0-1.0-202.0","",""
"null","sound/msl/boing.wav","null","audio-keyboard-response","204","125410","0.0-1.0-203.0","",""
"null","sound/msl/goat.wav","null","audio-keyboard-response","205","125951","0.0-1.0-204.0","",""
"null","sound/msl/dog.wav","null","audio-keyboard-response","206","126451","0.0-1.0-205.0","",""
"null","sound/msl/door_bell.wav","null","audio-keyboard-response","207","126960","0.0-1.0-206.0","",""
"null","sound/msl/duck.wav","null","audio-keyboard-response","208","127470","0.0-1.0-207.0","",""
"null","sound/msl/Water.wav","null","audio-keyboard-response","209","127980","0.0-1.0-208.0","",""
"null","sound/msl/clock.wav","null","audio-keyboard-response","210","128530","0.0-1.0-209.0","",""
"null","sound/msl/bird.wav","null","audio-keyboard-response","211","129040","0.0-1.0-210.0","",""
"null","sound/msl/organ.wav","null","audio-keyboard-response","212","129540","0.0-1.0-211.0","",""
"null","sound/msl/ding.wav","null","audio-keyboard-response","213","130040","0.0-1.0-212.0","",""
"null","sound/msl/goat.wav","null","audio-keyboard-response","214","130580","0.0-1.0-213.0","",""
"null","sound/msl/dog.wav","null","audio-keyboard-response","215","131080","0.0-1.0-214.0","",""
"null","sound/msl/door_bell.wav","null","audio-keyboard-response","216","131590","0.0-1.0-215.0","",""
"null","sound/msl/door.wav","null","audio-keyboard-response","217","132091","0.0-1.0-216.0","",""
"null","sound/msl/cat.wav","null","audio-keyboard-response","218","132590","0.0-1.0-217.0","",""
"null","sound/msl/slide_whistle.wav","null","audio-keyboard-response","219","133091","0.0-1.0-218.0","",""
"null","sound/msl/frog.wav","null","audio-keyboard-response","220","133600","0.0-1.0-219.0","",""
"null","sound/msl/cow.wav","null","audio-keyboard-response","221","134109","0.0-1.0-220.0","",""
"null","sound/msl/boing.wav","null","audio-keyboard-response","222","134611","0.0-1.0-221.0","",""
"null","sound/msl/duck.wav","null","audio-keyboard-response","223","135121","0.0-1.0-222.0","",""
"null","sound/msl/Water.wav","null","audio-keyboard-response","224","135630","0.0-1.0-223.0","",""
"null","sound/msl/clock.wav","null","audio-keyboard-response","225","136180","0.0-1.0-224.0","",""
"null","sound/msl/door.wav","null","audio-keyboard-response","226","136680","0.0-1.0-225.0","",""
"null","sound/msl/cat.wav","null","audio-keyboard-response","227","137180","0.0-1.0-226.0","",""
"null","sound/msl/slide_whistle.wav","null","audio-keyboard-response","228","137680","0.0-1.0-227.0","",""
"null","sound/msl/goat.wav","null","audio-keyboard-response","229","138220","0.0-1.0-228.0","",""
"null","sound/msl/dog.wav","null","audio-keyboard-response","230","138721","0.0-1.0-229.0","",""
"null","sound/msl/door_bell.wav","null","audio-keyboard-response","231","139230","0.0-1.0-230.0","",""
"null","sound/msl/door.wav","null","audio-keyboard-response","232","139730","0.0-1.0-231.0","",""
"null","sound/msl/cat.wav","null","audio-keyboard-response","233","140230","0.0-1.0-232.0","",""
"null","sound/msl/slide_whistle.wav","null","audio-keyboard-response","234","140730","0.0-1.0-233.0","",""
"null","sound/msl/duck.wav","null","audio-keyboard-response","235","141240","0.0-1.0-234.0","",""
"null","sound/msl/Water.wav","null","audio-keyboard-response","236","141750","0.0-1.0-235.0","",""
"null","sound/msl/clock.wav","null","audio-keyboard-response","237","142300","0.0-1.0-236.0","",""
"null","sound/msl/frog.wav","null","audio-keyboard-response","238","142800","0.0-1.0-237.0","",""
"null","sound/msl/cow.wav","null","audio-keyboard-response","239","143311","0.0-1.0-238.0","",""
"null","sound/msl/boing.wav","null","audio-keyboard-response","240","143810","0.0-1.0-239.0","",""
"null","sound/msl/bird.wav","null","audio-keyboard-response","241","144320","0.0-1.0-240.0","",""
"null","sound/msl/organ.wav","null","audio-keyboard-response","242","144819","0.0-1.0-241.0","",""
"null","sound/msl/ding.wav","null","audio-keyboard-response","243","145320","0.0-1.0-242.0","",""
"null","sound/msl/goat.wav","null","audio-keyboard-response","244","145860","0.0-1.0-243.0","",""
"null","sound/msl/dog.wav","null","audio-keyboard-response","245","146359","0.0-1.0-244.0","",""
"null","sound/msl/door_bell.wav","null","audio-keyboard-response","246","146870","0.0-1.0-245.0","",""
"null","sound/msl/duck.wav","null","audio-keyboard-response","247","147370","0.0-1.0-246.0","",""
"null","sound/msl/Water.wav","null","audio-keyboard-response","248","147881","0.0-1.0-247.0","",""
"null","sound/msl/clock.wav","null","audio-keyboard-response","249","148431","0.0-1.0-248.0","",""
"null","sound/msl/frog.wav","null","audio-keyboard-response","250","148931","0.0-1.0-249.0","",""
"null","sound/msl/cow.wav","null","audio-keyboard-response","251","149440","0.0-1.0-250.0","",""
"null","sound/msl/boing.wav","null","audio-keyboard-response","252","149941","0.0-1.0-251.0","",""
"null","sound/msl/bird.wav","null","audio-keyboard-response","253","150440","0.0-1.0-252.0","",""
"null","sound/msl/organ.wav","null","audio-keyboard-response","254","150940","0.0-1.0-253.0","",""
"null","sound/msl/ding.wav","null","audio-keyboard-response","255","151439","0.0-1.0-254.0","",""
"null","sound/msl/door.wav","null","audio-keyboard-response","256","151940","0.0-1.0-255.0","",""
"null","sound/msl/cat.wav","null","audio-keyboard-response","257","152439","0.0-1.0-256.0","",""
"null","sound/msl/slide_whistle.wav","null","audio-keyboard-response","258","152939","0.0-1.0-257.0","",""
"null","sound/msl/goat.wav","null","audio-keyboard-response","259","153479","0.0-1.0-258.0","",""
"null","sound/msl/dog.wav","null","audio-keyboard-response","260","153989","0.0-1.0-259.0","",""
"null","sound/msl/door_bell.wav","null","audio-keyboard-response","261","154489","0.0-1.0-260.0","",""
"null","sound/msl/bird.wav","null","audio-keyboard-response","262","154999","0.0-1.0-261.0","",""
"null","sound/msl/organ.wav","null","audio-keyboard-response","263","155499","0.0-1.0-262.0","",""
"null","sound/msl/ding.wav","null","audio-keyboard-response","264","156000","0.0-1.0-263.0","",""
"null","sound/msl/frog.wav","null","audio-keyboard-response","265","156509","0.0-1.0-264.0","",""
"null","sound/msl/cow.wav","null","audio-keyboard-response","266","157009","0.0-1.0-265.0","",""
"null","sound/msl/boing.wav","null","audio-keyboard-response","267","157510","0.0-1.0-266.0","",""
"null","sound/msl/door.wav","null","audio-keyboard-response","268","158009","0.0-1.0-267.0","",""
"null","sound/msl/cat.wav","null","audio-keyboard-response","269","158510","0.0-1.0-268.0","",""
"null","sound/msl/slide_whistle.wav","null","audio-keyboard-response","270","159010","0.0-1.0-269.0","",""
"null","sound/msl/duck.wav","null","audio-keyboard-response","271","159520","0.0-1.0-270.0","",""
"null","sound/msl/Water.wav","null","audio-keyboard-response","272","160030","0.0-1.0-271.0","",""
"null","sound/msl/clock.wav","null","audio-keyboard-response","273","160579","0.0-1.0-272.0","",""
"null","sound/msl/goat.wav","null","audio-keyboard-response","274","161120","0.0-1.0-273.0","",""
"null","sound/msl/dog.wav","null","audio-keyboard-response","275","161630","0.0-1.0-274.0","",""
"null","sound/msl/door_bell.wav","null","audio-keyboard-response","276","162129","0.0-1.0-275.0","",""
"null","sound/msl/bird.wav","null","audio-keyboard-response","277","162639","0.0-1.0-276.0","",""
"null","sound/msl/organ.wav","null","audio-keyboard-response","278","163140","0.0-1.0-277.0","",""
"null","sound/msl/ding.wav","null","audio-keyboard-response","279","163639","0.0-1.0-278.0","",""
"null","sound/msl/frog.wav","null","audio-keyboard-response","280","164150","0.0-1.0-279.0","",""
"null","sound/msl/cow.wav","null","audio-keyboard-response","281","164650","0.0-1.0-280.0","",""
"null","sound/msl/boing.wav","null","audio-keyboard-response","282","165149","0.0-1.0-281.0","",""
"null","sound/msl/duck.wav","null","audio-keyboard-response","283","165649","0.0-1.0-282.0","",""
"null","sound/msl/Water.wav","null","audio-keyboard-response","284","166159","0.0-1.0-283.0","",""
"null","sound/msl/clock.wav","null","audio-keyboard-response","285","166710","0.0-1.0-284.0","",""
"null","sound/msl/door.wav","null","audio-keyboard-response","286","167210","0.0-1.0-285.0","",""
"null","sound/msl/cat.wav","null","audio-keyboard-response","287","167709","0.0-1.0-286.0","",""
"null","sound/msl/slide_whistle.wav","null","audio-keyboard-response","288","168209","0.0-1.0-287.0","",""
"null","sound/msl/goat.wav","null","audio-keyboard-response","289","168750","0.0-1.0-288.0","",""
"null","sound/msl/dog.wav","null","audio-keyboard-response","290","169249","0.0-1.0-289.0","",""
"null","sound/msl/door_bell.wav","null","audio-keyboard-response","291","169760","0.0-1.0-290.0","",""
"null","sound/msl/frog.wav","null","audio-keyboard-response","292","170270","0.0-1.0-291.0","",""
"null","sound/msl/cow.wav","null","audio-keyboard-response","293","170770","0.0-1.0-292.0","",""
"null","sound/msl/boing.wav","null","audio-keyboard-response","294","171269","0.0-1.0-293.0","",""
"null","sound/msl/bird.wav","null","audio-keyboard-response","295","171769","0.0-1.0-294.0","",""
"null","sound/msl/organ.wav","null","audio-keyboard-response","296","172270","0.0-1.0-295.0","",""
"null","sound/msl/ding.wav","null","audio-keyboard-response","297","172769","0.0-1.0-296.0","",""
"null","sound/msl/goat.wav","null","audio-keyboard-response","298","173309","0.0-1.0-297.0","",""
"null","sound/msl/dog.wav","null","audio-keyboard-response","299","173810","0.0-1.0-298.0","",""
"null","sound/msl/door_bell.wav","null","audio-keyboard-response","300","174319","0.0-1.0-299.0","",""
"null","sound/msl/duck.wav","null","audio-keyboard-response","301","174830","0.0-1.0-300.0","",""
"null","sound/msl/Water.wav","null","audio-keyboard-response","302","175340","0.0-1.0-301.0","",""
"null","sound/msl/clock.wav","null","audio-keyboard-response","303","175889","0.0-1.0-302.0","",""
"null","sound/msl/frog.wav","null","audio-keyboard-response","304","176399","0.0-1.0-303.0","",""
"null","sound/msl/cow.wav","null","audio-keyboard-response","305","176909","0.0-1.0-304.0","",""
"null","sound/msl/boing.wav","null","audio-keyboard-response","306","177409","0.0-1.0-305.0","",""
"null","sound/msl/door.wav","null","audio-keyboard-response","307","177910","0.0-1.0-306.0","",""
"null","sound/msl/cat.wav","null","audio-keyboard-response","308","178409","0.0-1.0-307.0","",""
"null","sound/msl/slide_whistle.wav","null","audio-keyboard-response","309","178910","0.0-1.0-308.0","",""
"null","sound/msl/bird.wav","null","audio-keyboard-response","310","179409","0.0-1.0-309.0","",""
"null","sound/msl/organ.wav","null","audio-keyboard-response","311","179910","0.0-1.0-310.0","",""
"null","sound/msl/ding.wav","null","audio-keyboard-response","312","180410","0.0-1.0-311.0","",""
"null","sound/msl/goat.wav","null","audio-keyboard-response","313","180950","0.0-1.0-312.0","",""
"null","sound/msl/dog.wav","null","audio-keyboard-response","314","181450","0.0-1.0-313.0","",""
"null","sound/msl/door_bell.wav","null","audio-keyboard-response","315","181960","0.0-1.0-314.0","",""
"null","sound/msl/duck.wav","null","audio-keyboard-response","316","182469","0.0-1.0-315.0","",""
"null","sound/msl/Water.wav","null","audio-keyboard-response","317","182980","0.0-1.0-316.0","",""
"null","sound/msl/clock.wav","null","audio-keyboard-response","318","183530","0.0-1.0-317.0","",""
"null","sound/msl/frog.wav","null","audio-keyboard-response","319","184039","0.0-1.0-318.0","",""
"null","sound/msl/cow.wav","null","audio-keyboard-response","320","184549","0.0-1.0-319.0","",""
"null","sound/msl/boing.wav","null","audio-keyboard-response","321","185049","0.0-1.0-320.0","",""
"null","sound/msl/bird.wav","null","audio-keyboard-response","322","185560","0.0-1.0-321.0","",""
"null","sound/msl/organ.wav","null","audio-keyboard-response","323","186060","0.0-1.0-322.0","",""
"null","sound/msl/ding.wav","null","audio-keyboard-response","324","186560","0.0-1.0-323.0","",""
"null","sound/msl/duck.wav","null","audio-keyboard-response","325","187069","0.0-1.0-324.0","",""
"null","sound/msl/Water.wav","null","audio-keyboard-response","326","187579","0.0-1.0-325.0","",""
"null","sound/msl/clock.wav","null","audio-keyboard-response","327","188129","0.0-1.0-326.0","",""
"null","sound/msl/door.wav","null","audio-keyboard-response","328","188630","0.0-1.0-327.0","",""
"null","sound/msl/cat.wav","null","audio-keyboard-response","329","189130","0.0-1.0-328.0","",""
"null","sound/msl/slide_whistle.wav","null","audio-keyboard-response","330","189630","0.0-1.0-329.0","",""
"null","sound/msl/goat.wav","null","audio-keyboard-response","331","190169","0.0-1.0-330.0","",""
"null","sound/msl/dog.wav","null","audio-keyboard-response","332","190680","0.0-1.0-331.0","",""
"null","sound/msl/door_bell.wav","null","audio-keyboard-response","333","191189","0.0-1.0-332.0","",""
"null","sound/msl/frog.wav","null","audio-keyboard-response","334","191689","0.0-1.0-333.0","",""
"null","sound/msl/cow.wav","null","audio-keyboard-response","335","192199","0.0-1.0-334.0","",""
"null","sound/msl/boing.wav","null","audio-keyboard-response","336","192700","0.0-1.0-335.0","",""
"null","sound/msl/door.wav","null","audio-keyboard-response","337","193199","0.0-1.0-336.0","",""
"null","sound/msl/cat.wav","null","audio-keyboard-response","338","193699","0.0-1.0-337.0","",""
"null","sound/msl/slide_whistle.wav","null","audio-keyboard-response","339","194200","0.0-1.0-338.0","",""
"null","sound/msl/bird.wav","null","audio-keyboard-response","340","194710","0.0-1.0-339.0","",""
"null","sound/msl/organ.wav","null","audio-keyboard-response","341","195209","0.0-1.0-340.0","",""
"null","sound/msl/ding.wav","null","audio-keyboard-response","342","195719","0.0-1.0-341.0","",""
"null","sound/msl/frog.wav","null","audio-keyboard-response","343","196230","0.0-1.0-342.0","",""
"null","sound/msl/cow.wav","null","audio-keyboard-response","344","196729","0.0-1.0-343.0","",""
"null","sound/msl/boing.wav","null","audio-keyboard-response","345","197230","0.0-1.0-344.0","",""
"null","sound/msl/bird.wav","null","audio-keyboard-response","346","197729","0.0-1.0-345.0","",""
"null","sound/msl/organ.wav","null","audio-keyboard-response","347","198230","0.0-1.0-346.0","",""
"null","sound/msl/ding.wav","null","audio-keyboard-response","348","198730","0.0-1.0-347.0","",""
"null","sound/msl/door.wav","null","audio-keyboard-response","349","199229","0.0-1.0-348.0","",""
"null","sound/msl/cat.wav","null","audio-keyboard-response","350","199729","0.0-1.0-349.0","",""
"null","sound/msl/slide_whistle.wav","null","audio-keyboard-response","351","200230","0.0-1.0-350.0","",""
"null","sound/msl/goat.wav","null","audio-keyboard-response","352","200769","0.0-1.0-351.0","",""
"null","sound/msl/dog.wav","null","audio-keyboard-response","353","201280","0.0-1.0-352.0","",""
"null","sound/msl/door_bell.wav","null","audio-keyboard-response","354","201790","0.0-1.0-353.0","",""
"null","sound/msl/frog.wav","null","audio-keyboard-response","355","202289","0.0-1.0-354.0","",""
"null","sound/msl/cow.wav","null","audio-keyboard-response","356","202799","0.0-1.0-355.0","",""
"null","sound/msl/boing.wav","null","audio-keyboard-response","357","203299","0.0-1.0-356.0","",""
"null","sound/msl/bird.wav","null","audio-keyboard-response","358","203799","0.0-1.0-357.0","",""
"null","sound/msl/organ.wav","null","audio-keyboard-response","359","204299","0.0-1.0-358.0","",""
"null","sound/msl/ding.wav","null","audio-keyboard-response","360","204800","0.0-1.0-359.0","",""
"19199","Instructions2-eng.png","49","image-keyboard-response","361","223999","0.0-2.0","",""
"null","sound/msl/door.wav","null","audio-keyboard-response","362","224500","0.0-3.0-0.0","",""
"null","sound/msl/cow.wav","null","audio-keyboard-response","363","224999","0.0-3.0-1.0","",""
"null","sound/msl/door_bell.wav","null","audio-keyboard-response","364","225509","0.0-3.0-2.0","",""
"null","sound/asl/silence.wav","null","audio-keyboard-response","365","226012","0.0-3.0-3.0","",""
"null","sound/msl/frog.wav","null","audio-keyboard-response","366","226519","0.0-3.0-4.0","",""
"null","sound/msl/cow.wav","null","audio-keyboard-response","367","227029","0.0-3.0-5.0","",""
"null","sound/msl/boing.wav","null","audio-keyboard-response","368","227529","0.0-3.0-6.0","",""
"2088","sound/asl/silence.wav","49","audio-keyboard-response","369","229621","0.0-3.0-7.0","false",""
"null","sound/msl/frog.wav","null","audio-keyboard-response","370","230120","0.0-4.0-0.0","",""
"null","sound/msl/dog.wav","null","audio-keyboard-response","371","230630","0.0-4.0-1.0","",""
"null","sound/msl/ding.wav","null","audio-keyboard-response","372","231129","0.0-4.0-2.0","",""
"null","sound/asl/silence.wav","null","audio-keyboard-response","373","231630","0.0-4.0-3.0","",""
"null","sound/msl/door.wav","null","audio-keyboard-response","374","232130","0.0-4.0-4.0","",""
"null","sound/msl/cat.wav","null","audio-keyboard-response","375","232629","0.0-4.0-5.0","",""
"null","sound/msl/slide_whistle.wav","null","audio-keyboard-response","376","233130","0.0-4.0-6.0","",""
"379","sound/asl/silence.wav","50","audio-keyboard-response","377","233511","0.0-4.0-7.0","true",""
"null","sound/msl/bird.wav","null","audio-keyboard-response","378","234009","0.0-5.0-0.0","",""
"null","sound/msl/Water.wav","null","audio-keyboard-response","379","234520","0.0-5.0-1.0","",""
"null","sound/msl/slide_whistle.wav","null","audio-keyboard-response","380","235020","0.0-5.0-2.0","",""
"null","sound/asl/silence.wav","null","audio-keyboard-response","381","235521","0.0-5.0-3.0","",""
"null","sound/msl/goat.wav","null","audio-keyboard-response","382","236060","0.0-5.0-4.0","",""
"null","sound/msl/dog.wav","null","audio-keyboard-response","383","236559","0.0-5.0-5.0","",""
"null","sound/msl/door_bell.wav","null","audio-keyboard-response","384","237070","0.0-5.0-6.0","",""
"541","sound/asl/silence.wav","50","audio-keyboard-response","385","237619","0.0-5.0-7.0","true",""
"null","sound/msl/door.wav","null","audio-keyboard-response","386","238110","0.0-6.0-0.0","",""
"null","sound/msl/cow.wav","null","audio-keyboard-response","387","238610","0.0-6.0-1.0","",""
"null","sound/msl/door_bell.wav","null","audio-keyboard-response","388","239120","0.0-6.0-2.0","",""
"null","sound/asl/silence.wav","null","audio-keyboard-response","389","239621","0.0-6.0-3.0","",""
"null","sound/msl/bird.wav","null","audio-keyboard-response","390","240120","0.0-6.0-4.0","",""
"null","sound/msl/organ.wav","null","audio-keyboard-response","391","240620","0.0-6.0-5.0","",""
"null","sound/msl/ding.wav","null","audio-keyboard-response","392","241119","0.0-6.0-6.0","",""
"371","sound/asl/silence.wav","50","audio-keyboard-response","393","241493","0.0-6.0-7.0","true",""
"null","sound/msl/duck.wav","null","audio-keyboard-response","394","241999","0.0-7.0-0.0","",""
"null","sound/msl/Water.wav","null","audio-keyboard-response","395","242508","0.0-7.0-1.0","",""
"null","sound/msl/clock.wav","null","audio-keyboard-response","396","243059","0.0-7.0-2.0","",""
"null","sound/asl/silence.wav","null","audio-keyboard-response","397","243561","0.0-7.0-3.0","",""
"null","sound/msl/door.wav","null","audio-keyboard-response","398","244060","0.0-7.0-4.0","",""
"null","sound/msl/cow.wav","null","audio-keyboard-response","399","244560","0.0-7.0-5.0","",""
"null","sound/msl/door_bell.wav","null","audio-keyboard-response","400","245069","0.0-7.0-6.0","",""
"720","sound/asl/silence.wav","50","audio-keyboard-response","401","245796","0.0-7.0-7.0","false",""
"null","sound/msl/goat.wav","null","audio-keyboard-response","402","246330","0.0-8.0-0.0","",""
"null","sound/msl/dog.wav","null","audio-keyboard-response","403","246840","0.0-8.0-1.0","",""
"null","sound/msl/door_bell.wav","null","audio-keyboard-response","404","247349","0.0-8.0-2.0","",""
"null","sound/asl/silence.wav","null","audio-keyboard-response","405","247851","0.0-8.0-3.0","",""
"null","sound/msl/goat.wav","null","audio-keyboard-response","406","248390","0.0-8.0-4.0","",""
"null","sound/msl/organ.wav","null","audio-keyboard-response","407","248890","0.0-8.0-5.0","",""
"null","sound/msl/clock.wav","null","audio-keyboard-response","408","249440","0.0-8.0-6.0","",""
"509","sound/asl/silence.wav","49","audio-keyboard-response","409","249955","0.0-8.0-7.0","true",""
"null","sound/msl/duck.wav","null","audio-keyboard-response","410","250449","0.0-9.0-0.0","",""
"null","sound/msl/Water.wav","null","audio-keyboard-response","411","250959","0.0-9.0-1.0","",""
"null","sound/msl/clock.wav","null","audio-keyboard-response","412","251509","0.0-9.0-2.0","",""
"null","sound/asl/silence.wav","null","audio-keyboard-response","413","252012","0.0-9.0-3.0","",""
"null","sound/msl/duck.wav","null","audio-keyboard-response","414","252520","0.0-9.0-4.0","",""
"null","sound/msl/cat.wav","null","audio-keyboard-response","415","253019","0.0-9.0-5.0","",""
"null","sound/msl/boing.wav","null","audio-keyboard-response","416","253520","0.0-9.0-6.0","",""
"720","sound/asl/silence.wav","49","audio-keyboard-response","417","254245","0.0-9.0-7.0","true",""
"null","sound/msl/bird.wav","null","audio-keyboard-response","418","254749","0.0-10.0-0.0","",""
"null","sound/msl/Water.wav","null","audio-keyboard-response","419","255260","0.0-10.0-1.0","",""
"null","sound/msl/slide_whistle.wav","null","audio-keyboard-response","420","255760","0.0-10.0-2.0","",""
"null","sound/asl/silence.wav","null","audio-keyboard-response","421","256261","0.0-10.0-3.0","",""
"null","sound/msl/frog.wav","null","audio-keyboard-response","422","256759","0.0-10.0-4.0","",""
"null","sound/msl/cow.wav","null","audio-keyboard-response","423","257269","0.0-10.0-5.0","",""
"null","sound/msl/boing.wav","null","audio-keyboard-response","424","257770","0.0-10.0-6.0","",""
"339","sound/asl/silence.wav","50","audio-keyboard-response","425","258116","0.0-10.0-7.0","true",""
"null","sound/msl/frog.wav","null","audio-keyboard-response","426","258610","0.0-11.0-0.0","",""
"null","sound/msl/cow.wav","null","audio-keyboard-response","427","259119","0.0-11.0-1.0","",""
"null","sound/msl/boing.wav","null","audio-keyboard-response","428","259620","0.0-11.0-2.0","",""
"null","sound/asl/silence.wav","null","audio-keyboard-response","429","260120","0.0-11.0-3.0","",""
"null","sound/msl/goat.wav","null","audio-keyboard-response","430","260659","0.0-11.0-4.0","",""
"null","sound/msl/organ.wav","null","audio-keyboard-response","431","261160","0.0-11.0-5.0","",""
"null","sound/msl/clock.wav","null","audio-keyboard-response","432","261710","0.0-11.0-6.0","",""
"501","sound/asl/silence.wav","49","audio-keyboard-response","433","262212","0.0-11.0-7.0","true",""
"null","sound/msl/bird.wav","null","audio-keyboard-response","434","262720","0.0-12.0-0.0","",""
"null","sound/msl/organ.wav","null","audio-keyboard-response","435","263220","0.0-12.0-1.0","",""
"null","sound/msl/ding.wav","null","audio-keyboard-response","436","263719","0.0-12.0-2.0","",""
"null","sound/asl/silence.wav","null","audio-keyboard-response","437","264221","0.0-12.0-3.0","",""
"null","sound/msl/goat.wav","null","audio-keyboard-response","438","264759","0.0-12.0-4.0","",""
"null","sound/msl/organ.wav","null","audio-keyboard-response","439","265260","0.0-12.0-5.0","",""
"null","sound/msl/clock.wav","null","audio-keyboard-response","440","265810","0.0-12.0-6.0","",""
"280","sound/asl/silence.wav","49","audio-keyboard-response","441","266098","0.0-12.0-7.0","true",""
"null","sound/msl/duck.wav","null","audio-keyboard-response","442","266600","0.0-13.0-0.0","",""
"null","sound/msl/Water.wav","null","audio-keyboard-response","443","267109","0.0-13.0-1.0","",""
"null","sound/msl/clock.wav","null","audio-keyboard-response","444","267659","0.0-13.0-2.0","",""
"null","sound/asl/silence.wav","null","audio-keyboard-response","445","268161","0.0-13.0-3.0","",""
"null","sound/msl/bird.wav","null","audio-keyboard-response","446","268670","0.0-13.0-4.0","",""
"null","sound/msl/Water.wav","null","audio-keyboard-response","447","269180","0.0-13.0-5.0","",""
"null","sound/msl/slide_whistle.wav","null","audio-keyboard-response","448","269679","0.0-13.0-6.0","",""
"779","sound/asl/silence.wav","49","audio-keyboard-response","449","270464","0.0-13.0-7.0","true",""
"null","sound/msl/goat.wav","null","audio-keyboard-response","450","271001","0.0-14.0-0.0","",""
"null","sound/msl/organ.wav","null","audio-keyboard-response","451","271500","0.0-14.0-1.0","",""
"null","sound/msl/clock.wav","null","audio-keyboard-response","452","272050","0.0-14.0-2.0","",""
"null","sound/asl/silence.wav","null","audio-keyboard-response","453","272550","0.0-14.0-3.0","",""
"null","sound/msl/duck.wav","null","audio-keyboard-response","454","273050","0.0-14.0-4.0","",""
"null","sound/msl/Water.wav","null","audio-keyboard-response","455","273559","0.0-14.0-5.0","",""
"null","sound/msl/clock.wav","null","audio-keyboard-response","456","274110","0.0-14.0-6.0","",""
"291","sound/asl/silence.wav","49","audio-keyboard-response","457","274407","0.0-14.0-7.0","false",""
"null","sound/msl/door.wav","null","audio-keyboard-response","458","274899","0.0-15.0-0.0","",""
"null","sound/msl/cow.wav","null","audio-keyboard-response","459","275400","0.0-15.0-1.0","",""
"null","sound/msl/door_bell.wav","null","audio-keyboard-response","460","275910","0.0-15.0-2.0","",""
"null","sound/asl/silence.wav","null","audio-keyboard-response","461","276410","0.0-15.0-3.0","",""
"null","sound/msl/goat.wav","null","audio-keyboard-response","462","276949","0.0-15.0-4.0","",""
"null","sound/msl/dog.wav","null","audio-keyboard-response","463","277449","0.0-15.0-5.0","",""
"null","sound/msl/door_bell.wav","null","audio-keyboard-response","464","277959","0.0-15.0-6.0","",""
"589","sound/asl/silence.wav","50","audio-keyboard-response","465","278552","0.0-15.0-7.0","true",""
"null","sound/msl/goat.wav","null","audio-keyboard-response","466","279090","0.0-16.0-0.0","",""
"null","sound/msl/dog.wav","null","audio-keyboard-response","467","279600","0.0-16.0-1.0","",""
"null","sound/msl/door_bell.wav","null","audio-keyboard-response","468","280109","0.0-16.0-2.0","",""
"null","sound/asl/silence.wav","null","audio-keyboard-response","469","280611","0.0-16.0-3.0","",""
"null","sound/msl/duck.wav","null","audio-keyboard-response","470","281119","0.0-16.0-4.0","",""
"null","sound/msl/cat.wav","null","audio-keyboard-response","471","281620","0.0-16.0-5.0","",""
"null","sound/msl/boing.wav","null","audio-keyboard-response","472","282120","0.0-16.0-6.0","",""
"179","sound/asl/silence.wav","49","audio-keyboard-response","473","282300","0.0-16.0-7.0","true",""
"null","sound/msl/door.wav","null","audio-keyboard-response","474","282800","0.0-17.0-0.0","",""
"null","sound/msl/cow.wav","null","audio-keyboard-response","475","283309","0.0-17.0-1.0","",""
"null","sound/msl/door_bell.wav","null","audio-keyboard-response","476","283810","0.0-17.0-2.0","",""
"null","sound/asl/silence.wav","null","audio-keyboard-response","477","284311","0.0-17.0-3.0","",""
"null","sound/msl/door.wav","null","audio-keyboard-response","478","284811","0.0-17.0-4.0","",""
"null","sound/msl/cat.wav","null","audio-keyboard-response","479","285309","0.0-17.0-5.0","",""
"null","sound/msl/slide_whistle.wav","null","audio-keyboard-response","480","285810","0.0-17.0-6.0","",""
"1408","sound/asl/silence.wav","50","audio-keyboard-response","481","287227","0.0-17.0-7.0","true",""
"null","sound/msl/door.wav","null","audio-keyboard-response","482","287720","0.0-18.0-0.0","",""
"null","sound/msl/cat.wav","null","audio-keyboard-response","483","288220","0.0-18.0-1.0","",""
"null","sound/msl/slide_whistle.wav","null","audio-keyboard-response","484","288720","0.0-18.0-2.0","",""
"null","sound/asl/silence.wav","null","audio-keyboard-response","485","289222","0.0-18.0-3.0","",""
"null","sound/msl/goat.wav","null","audio-keyboard-response","486","289760","0.0-18.0-4.0","",""
"null","sound/msl/organ.wav","null","audio-keyboard-response","487","290260","0.0-18.0-5.0","",""
"null","sound/msl/clock.wav","null","audio-keyboard-response","488","290810","0.0-18.0-6.0","",""
"360","sound/asl/silence.wav","50","audio-keyboard-response","489","291176","0.0-18.0-7.0","false",""
"null","sound/msl/goat.wav","null","audio-keyboard-response","490","291710","0.0-19.0-0.0","",""
"null","sound/msl/dog.wav","null","audio-keyboard-response","491","292210","0.0-19.0-1.0","",""
"null","sound/msl/door_bell.wav","null","audio-keyboard-response","492","292720","0.0-19.0-2.0","",""
"null","sound/asl/silence.wav","null","audio-keyboard-response","493","293220","0.0-19.0-3.0","",""
"null","sound/msl/frog.wav","null","audio-keyboard-response","494","293720","0.0-19.0-4.0","",""
"null","sound/msl/dog.wav","null","audio-keyboard-response","495","294230","0.0-19.0-5.0","",""
"null","sound/msl/ding.wav","null","audio-keyboard-response","496","294730","0.0-19.0-6.0","",""
"120","sound/asl/silence.wav","50","audio-keyboard-response","497","294854","0.0-19.0-7.0","false",""
"null","sound/msl/bird.wav","null","audio-keyboard-response","498","295361","0.0-20.0-0.0","",""
"null","sound/msl/organ.wav","null","audio-keyboard-response","499","295860","0.0-20.0-1.0","",""
"null","sound/msl/ding.wav","null","audio-keyboard-response","500","296361","0.0-20.0-2.0","",""
"null","sound/asl/silence.wav","null","audio-keyboard-response","501","296861","0.0-20.0-3.0","",""
"null","sound/msl/frog.wav","null","audio-keyboard-response","502","297361","0.0-20.0-4.0","",""
"null","sound/msl/dog.wav","null","audio-keyboard-response","503","297870","0.0-20.0-5.0","",""
"null","sound/msl/ding.wav","null","audio-keyboard-response","504","298370","0.0-20.0-6.0","",""
"3269","sound/asl/silence.wav","50","audio-keyboard-response","505","301647","0.0-20.0-7.0","false",""
"null","sound/msl/duck.wav","null","audio-keyboard-response","506","302150","0.0-21.0-0.0","",""
"null","sound/msl/cat.wav","null","audio-keyboard-response","507","302650","0.0-21.0-1.0","",""
"null","sound/msl/boing.wav","null","audio-keyboard-response","508","303150","0.0-21.0-2.0","",""
"null","sound/asl/silence.wav","null","audio-keyboard-response","509","303652","0.0-21.0-3.0","",""
"null","sound/msl/door.wav","null","audio-keyboard-response","510","304150","0.0-21.0-4.0","",""
"null","sound/msl/cat.wav","null","audio-keyboard-response","511","304649","0.0-21.0-5.0","",""
"null","sound/msl/slide_whistle.wav","null","audio-keyboard-response","512","305150","0.0-21.0-6.0","",""
"1309","sound/asl/silence.wav","50","audio-keyboard-response","513","306461","0.0-21.0-7.0","true",""
"null","sound/msl/bird.wav","null","audio-keyboard-response","514","306960","0.0-22.0-0.0","",""
"null","sound/msl/Water.wav","null","audio-keyboard-response","515","307470","0.0-22.0-1.0","",""
"null","sound/msl/slide_whistle.wav","null","audio-keyboard-response","516","307970","0.0-22.0-2.0","",""
"null","sound/asl/silence.wav","null","audio-keyboard-response","517","308472","0.0-22.0-3.0","",""
"null","sound/msl/bird.wav","null","audio-keyboard-response","518","308970","0.0-22.0-4.0","",""
"null","sound/msl/organ.wav","null","audio-keyboard-response","519","309470","0.0-22.0-5.0","",""
"null","sound/msl/ding.wav","null","audio-keyboard-response","520","309971","0.0-22.0-6.0","",""
"499","sound/asl/silence.wav","49","audio-keyboard-response","521","310480","0.0-22.0-7.0","false",""
"null","sound/msl/duck.wav","null","audio-keyboard-response","522","310990","0.0-23.0-0.0","",""
"null","sound/msl/cat.wav","null","audio-keyboard-response","523","311490","0.0-23.0-1.0","",""
"null","sound/msl/boing.wav","null","audio-keyboard-response","524","311991","0.0-23.0-2.0","",""
"null","sound/asl/silence.wav","null","audio-keyboard-response","525","312492","0.0-23.0-3.0","",""
"null","sound/msl/bird.wav","null","audio-keyboard-response","526","313001","0.0-23.0-4.0","",""
"null","sound/msl/organ.wav","null","audio-keyboard-response","527","313500","0.0-23.0-5.0","",""
"null","sound/msl/ding.wav","null","audio-keyboard-response","528","314001","0.0-23.0-6.0","",""
"171","sound/asl/silence.wav","50","audio-keyboard-response","529","314180","0.0-23.0-7.0","true",""
"null","sound/msl/frog.wav","null","audio-keyboard-response","530","314680","0.0-24.0-0.0","",""
"null","sound/msl/dog.wav","null","audio-keyboard-response","531","315190","0.0-24.0-1.0","",""
"null","sound/msl/ding.wav","null","audio-keyboard-response","532","315690","0.0-24.0-2.0","",""
"null","sound/asl/silence.wav","null","audio-keyboard-response","533","316192","0.0-24.0-3.0","",""
"null","sound/msl/duck.wav","null","audio-keyboard-response","534","316690","0.0-24.0-4.0","",""
"null","sound/msl/Water.wav","null","audio-keyboard-response","535","317200","0.0-24.0-5.0","",""
"null","sound/msl/clock.wav","null","audio-keyboard-response","536","317750","0.0-24.0-6.0","",""
"131","sound/asl/silence.wav","50","audio-keyboard-response","537","317889","0.0-24.0-7.0","true",""
"null","sound/msl/duck.wav","null","audio-keyboard-response","538","318390","0.0-25.0-0.0","",""
"null","sound/msl/cat.wav","null","audio-keyboard-response","539","318890","0.0-25.0-1.0","",""
"null","sound/msl/boing.wav","null","audio-keyboard-response","540","319390","0.0-25.0-2.0","",""
"null","sound/asl/silence.wav","null","audio-keyboard-response","541","319892","0.0-25.0-3.0","",""
"null","sound/msl/frog.wav","null","audio-keyboard-response","542","320400","0.0-25.0-4.0","",""
"null","sound/msl/cow.wav","null","audio-keyboard-response","543","320910","0.0-25.0-5.0","",""
"null","sound/msl/boing.wav","null","audio-keyboard-response","544","321410","0.0-25.0-6.0","",""
"179","sound/asl/silence.wav","50","audio-keyboard-response","545","321598","0.0-25.0-7.0","true",""
"null","sound/msl/frog.wav","null","audio-keyboard-response","546","322090","0.0-26.0-0.0","",""
"null","sound/msl/cow.wav","null","audio-keyboard-response","547","322600","0.0-26.0-1.0","",""
"null","sound/msl/boing.wav","null","audio-keyboard-response","548","323100","0.0-26.0-2.0","",""
"null","sound/asl/silence.wav","null","audio-keyboard-response","549","323601","0.0-26.0-3.0","",""
"null","sound/msl/frog.wav","null","audio-keyboard-response","550","324110","0.0-26.0-4.0","",""
"null","sound/msl/dog.wav","null","audio-keyboard-response","551","324610","0.0-26.0-5.0","",""
"null","sound/msl/ding.wav","null","audio-keyboard-response","552","325120","0.0-26.0-6.0","",""
"219","sound/asl/silence.wav","49","audio-keyboard-response","553","325350","0.0-26.0-7.0","true",""
"null","sound/msl/door.wav","null","audio-keyboard-response","554","325850","0.0-27.0-0.0","",""
"null","sound/msl/cat.wav","null","audio-keyboard-response","555","326350","0.0-27.0-1.0","",""
"null","sound/msl/slide_whistle.wav","null","audio-keyboard-response","556","326851","0.0-27.0-2.0","",""
"null","sound/asl/silence.wav","null","audio-keyboard-response","557","327351","0.0-27.0-3.0","",""
"null","sound/msl/bird.wav","null","audio-keyboard-response","558","327850","0.0-27.0-4.0","",""
"null","sound/msl/Water.wav","null","audio-keyboard-response","559","328359","0.0-27.0-5.0","",""
"null","sound/msl/slide_whistle.wav","null","audio-keyboard-response","560","328860","0.0-27.0-6.0","",""
"211","sound/asl/silence.wav","49","audio-keyboard-response","561","329079","0.0-27.0-7.0","true",""
"2915","","","instructions","562","331994","0.0-28.0","","[{""page_index"":0,""viewing_time"":2914}]"
