"rt","stimulus","key_press","trial_type","trial_index","time_elapsed","internal_node_id","correct","view_history"
"14884","alien.jpg","49","image-keyboard-response","0","14885","0.0-0.0","",""
"null","sound/msl/goat.wav","null","audio-keyboard-response","1","15422","0.0-1.0-0.0","",""
"null","sound/msl/frog.wav","null","audio-keyboard-response","2","15932","0.0-1.0-1.0","",""
"null","sound/msl/boing.wav","null","audio-keyboard-response","3","16432","0.0-1.0-2.0","",""
"null","sound/msl/Water.wav","null","audio-keyboard-response","4","16943","0.0-1.0-3.0","",""
"null","sound/msl/organ.wav","null","audio-keyboard-response","5","17442","0.0-1.0-4.0","",""
"null","sound/msl/clock.wav","null","audio-keyboard-response","6","17992","0.0-1.0-5.0","",""
"null","sound/msl/duck.wav","null","audio-keyboard-response","7","18492","0.0-1.0-6.0","",""
"null","sound/msl/door_bell.wav","null","audio-keyboard-response","8","19001","0.0-1.0-7.0","",""
"null","sound/msl/cat.wav","null","audio-keyboard-response","9","19502","0.0-1.0-8.0","",""
"null","sound/msl/bird.wav","null","audio-keyboard-response","10","20012","0.0-1.0-9.0","",""
"null","sound/msl/cow.wav","null","audio-keyboard-response","11","20522","0.0-1.0-10.0","",""
"null","sound/msl/ding.wav","null","audio-keyboard-response","12","21022","0.0-1.0-11.0","",""
"null","sound/msl/Water.wav","null","audio-keyboard-response","13","21533","0.0-1.0-12.0","",""
"null","sound/msl/organ.wav","null","audio-keyboard-response","14","22032","0.0-1.0-13.0","",""
"null","sound/msl/clock.wav","null","audio-keyboard-response","15","22582","0.0-1.0-14.0","",""
"null","sound/msl/goat.wav","null","audio-keyboard-response","16","23123","0.0-1.0-15.0","",""
"null","sound/msl/frog.wav","null","audio-keyboard-response","17","23622","0.0-1.0-16.0","",""
"null","sound/msl/boing.wav","null","audio-keyboard-response","18","24123","0.0-1.0-17.0","",""
"null","sound/msl/dog.wav","null","audio-keyboard-response","19","24623","0.0-1.0-18.0","",""
"null","sound/msl/door.wav","null","audio-keyboard-response","20","25123","0.0-1.0-19.0","",""
"null","sound/msl/slide_whistle.wav","null","audio-keyboard-response","21","25623","0.0-1.0-20.0","",""
"null","sound/msl/bird.wav","null","audio-keyboard-response","22","26133","0.0-1.0-21.0","",""
"null","sound/msl/cow.wav","null","audio-keyboard-response","23","26638","0.0-1.0-22.0","",""
"null","sound/msl/ding.wav","null","audio-keyboard-response","24","27137","0.0-1.0-23.0","",""
"null","sound/msl/duck.wav","null","audio-keyboard-response","25","27648","0.0-1.0-24.0","",""
"null","sound/msl/door_bell.wav","null","audio-keyboard-response","26","28158","0.0-1.0-25.0","",""
"null","sound/msl/cat.wav","null","audio-keyboard-response","27","28658","0.0-1.0-26.0","",""
"null","sound/msl/goat.wav","null","audio-keyboard-response","28","29199","0.0-1.0-27.0","",""
"null","sound/msl/frog.wav","null","audio-keyboard-response","29","29698","0.0-1.0-28.0","",""
"null","sound/msl/boing.wav","null","audio-keyboard-response","30","30198","0.0-1.0-29.0","",""
"null","sound/msl/Water.wav","null","audio-keyboard-response","31","30708","0.0-1.0-30.0","",""
"null","sound/msl/organ.wav","null","audio-keyboard-response","32","31209","0.0-1.0-31.0","",""
"null","sound/msl/clock.wav","null","audio-keyboard-response","33","31759","0.0-1.0-32.0","",""
"null","sound/msl/dog.wav","null","audio-keyboard-response","34","32259","0.0-1.0-33.0","",""
"null","sound/msl/door.wav","null","audio-keyboard-response","35","32759","0.0-1.0-34.0","",""
"null","sound/msl/slide_whistle.wav","null","audio-keyboard-response","36","33259","0.0-1.0-35.0","",""
"null","sound/msl/duck.wav","null","audio-keyboard-response","37","33769","0.0-1.0-36.0","",""
"null","sound/msl/door_bell.wav","null","audio-keyboard-response","38","34279","0.0-1.0-37.0","",""
"null","sound/msl/cat.wav","null","audio-keyboard-response","39","34780","0.0-1.0-38.0","",""
"null","sound/msl/bird.wav","null","audio-keyboard-response","40","35289","0.0-1.0-39.0","",""
"null","sound/msl/cow.wav","null","audio-keyboard-response","41","35800","0.0-1.0-40.0","",""
"null","sound/msl/ding.wav","null","audio-keyboard-response","42","36299","0.0-1.0-41.0","",""
"null","sound/msl/dog.wav","null","audio-keyboard-response","43","36809","0.0-1.0-42.0","",""
"null","sound/msl/door.wav","null","audio-keyboard-response","44","37309","0.0-1.0-43.0","",""
"null","sound/msl/slide_whistle.wav","null","audio-keyboard-response","45","37810","0.0-1.0-44.0","",""
"null","sound/msl/Water.wav","null","audio-keyboard-response","46","38319","0.0-1.0-45.0","",""
"null","sound/msl/organ.wav","null","audio-keyboard-response","47","38819","0.0-1.0-46.0","",""
"null","sound/msl/clock.wav","null","audio-keyboard-response","48","39369","0.0-1.0-47.0","",""
"null","sound/msl/duck.wav","null","audio-keyboard-response","49","39880","0.0-1.0-48.0","",""
"null","sound/msl/door_bell.wav","null","audio-keyboard-response","50","40380","0.0-1.0-49.0","",""
"null","sound/msl/cat.wav","null","audio-keyboard-response","51","40879","0.0-1.0-50.0","",""
"null","sound/msl/goat.wav","null","audio-keyboard-response","52","41420","0.0-1.0-51.0","",""
"null","sound/msl/frog.wav","null","audio-keyboard-response","53","41929","0.0-1.0-52.0","",""
"null","sound/msl/boing.wav","null","audio-keyboard-response","54","42430","0.0-1.0-53.0","",""
"null","sound/msl/Water.wav","null","audio-keyboard-response","55","42940","0.0-1.0-54.0","",""
"null","sound/msl/organ.wav","null","audio-keyboard-response","56","43439","0.0-1.0-55.0","",""
"null","sound/msl/clock.wav","null","audio-keyboard-response","57","43990","0.0-1.0-56.0","",""
"null","sound/msl/duck.wav","null","audio-keyboard-response","58","44490","0.0-1.0-57.0","",""
"null","sound/msl/door_bell.wav","null","audio-keyboard-response","59","45000","0.0-1.0-58.0","",""
"null","sound/msl/cat.wav","null","audio-keyboard-response","60","45501","0.0-1.0-59.0","",""
"null","sound/msl/bird.wav","null","audio-keyboard-response","61","46010","0.0-1.0-60.0","",""
"null","sound/msl/cow.wav","null","audio-keyboard-response","62","46520","0.0-1.0-61.0","",""
"null","sound/msl/ding.wav","null","audio-keyboard-response","63","47021","0.0-1.0-62.0","",""
"null","sound/msl/dog.wav","null","audio-keyboard-response","64","47531","0.0-1.0-63.0","",""
"null","sound/msl/door.wav","null","audio-keyboard-response","65","48031","0.0-1.0-64.0","",""
"null","sound/msl/slide_whistle.wav","null","audio-keyboard-response","66","48531","0.0-1.0-65.0","",""
"null","sound/msl/Water.wav","null","audio-keyboard-response","67","49041","0.0-1.0-66.0","",""
"null","sound/msl/organ.wav","null","audio-keyboard-response","68","49540","0.0-1.0-67.0","",""
"null","sound/msl/clock.wav","null","audio-keyboard-response","69","50091","0.0-1.0-68.0","",""
"null","sound/msl/goat.wav","null","audio-keyboard-response","70","50631","0.0-1.0-69.0","",""
"null","sound/msl/frog.wav","null","audio-keyboard-response","71","51131","0.0-1.0-70.0","",""
"null","sound/msl/boing.wav","null","audio-keyboard-response","72","51632","0.0-1.0-71.0","",""
"null","sound/msl/duck.wav","null","audio-keyboard-response","73","52131","0.0-1.0-72.0","",""
"null","sound/msl/door_bell.wav","null","audio-keyboard-response","74","52641","0.0-1.0-73.0","",""
"null","sound/msl/cat.wav","null","audio-keyboard-response","75","53141","0.0-1.0-74.0","",""
"null","sound/msl/bird.wav","null","audio-keyboard-response","76","53651","0.0-1.0-75.0","",""
"null","sound/msl/cow.wav","null","audio-keyboard-response","77","54161","0.0-1.0-76.0","",""
"null","sound/msl/ding.wav","null","audio-keyboard-response","78","54661","0.0-1.0-77.0","",""
"null","sound/msl/duck.wav","null","audio-keyboard-response","79","55172","0.0-1.0-78.0","",""
"null","sound/msl/door_bell.wav","null","audio-keyboard-response","80","55682","0.0-1.0-79.0","",""
"null","sound/msl/cat.wav","null","audio-keyboard-response","81","56182","0.0-1.0-80.0","",""
"null","sound/msl/dog.wav","null","audio-keyboard-response","82","56692","0.0-1.0-81.0","",""
"null","sound/msl/door.wav","null","audio-keyboard-response","83","57192","0.0-1.0-82.0","",""
"null","sound/msl/slide_whistle.wav","null","audio-keyboard-response","84","57692","0.0-1.0-83.0","",""
"null","sound/msl/goat.wav","null","audio-keyboard-response","85","58232","0.0-1.0-84.0","",""
"null","sound/msl/frog.wav","null","audio-keyboard-response","86","58732","0.0-1.0-85.0","",""
"null","sound/msl/boing.wav","null","audio-keyboard-response","87","59231","0.0-1.0-86.0","",""
"null","sound/msl/Water.wav","null","audio-keyboard-response","88","59742","0.0-1.0-87.0","",""
"null","sound/msl/organ.wav","null","audio-keyboard-response","89","60242","0.0-1.0-88.0","",""
"null","sound/msl/clock.wav","null","audio-keyboard-response","90","60793","0.0-1.0-89.0","",""
"null","sound/msl/dog.wav","null","audio-keyboard-response","91","61292","0.0-1.0-90.0","",""
"null","sound/msl/door.wav","null","audio-keyboard-response","92","61792","0.0-1.0-91.0","",""
"null","sound/msl/slide_whistle.wav","null","audio-keyboard-response","93","62293","0.0-1.0-92.0","",""
"null","sound/msl/bird.wav","null","audio-keyboard-response","94","62802","0.0-1.0-93.0","",""
"null","sound/msl/cow.wav","null","audio-keyboard-response","95","63303","0.0-1.0-94.0","",""
"null","sound/msl/ding.wav","null","audio-keyboard-response","96","63813","0.0-1.0-95.0","",""
"null","sound/msl/duck.wav","null","audio-keyboard-response","97","64323","0.0-1.0-96.0","",""
"null","sound/msl/door_bell.wav","null","audio-keyboard-response","98","64823","0.0-1.0-97.0","",""
"null","sound/msl/cat.wav","null","audio-keyboard-response","99","65323","0.0-1.0-98.0","",""
"null","sound/msl/Water.wav","null","audio-keyboard-response","100","65833","0.0-1.0-99.0","",""
"null","sound/msl/organ.wav","null","audio-keyboard-response","101","66333","0.0-1.0-100.0","",""
"null","sound/msl/clock.wav","null","audio-keyboard-response","102","66878","0.0-1.0-101.0","",""
"null","sound/msl/dog.wav","null","audio-keyboard-response","103","67378","0.0-1.0-102.0","",""
"null","sound/msl/door.wav","null","audio-keyboard-response","104","67878","0.0-1.0-103.0","",""
"null","sound/msl/slide_whistle.wav","null","audio-keyboard-response","105","68378","0.0-1.0-104.0","",""
"null","sound/msl/goat.wav","null","audio-keyboard-response","106","68918","0.0-1.0-105.0","",""
"null","sound/msl/frog.wav","null","audio-keyboard-response","107","69418","0.0-1.0-106.0","",""
"null","sound/msl/boing.wav","null","audio-keyboard-response","108","69918","0.0-1.0-107.0","",""
"null","sound/msl/Water.wav","null","audio-keyboard-response","109","70428","0.0-1.0-108.0","",""
"null","sound/msl/organ.wav","null","audio-keyboard-response","110","70929","0.0-1.0-109.0","",""
"null","sound/msl/clock.wav","null","audio-keyboard-response","111","71478","0.0-1.0-110.0","",""
"null","sound/msl/bird.wav","null","audio-keyboard-response","112","71979","0.0-1.0-111.0","",""
"null","sound/msl/cow.wav","null","audio-keyboard-response","113","72488","0.0-1.0-112.0","",""
"null","sound/msl/ding.wav","null","audio-keyboard-response","114","72999","0.0-1.0-113.0","",""
"null","sound/msl/dog.wav","null","audio-keyboard-response","115","73499","0.0-1.0-114.0","",""
"null","sound/msl/door.wav","null","audio-keyboard-response","116","73999","0.0-1.0-115.0","",""
"null","sound/msl/slide_whistle.wav","null","audio-keyboard-response","117","74499","0.0-1.0-116.0","",""
"null","sound/msl/duck.wav","null","audio-keyboard-response","118","75008","0.0-1.0-117.0","",""
"null","sound/msl/door_bell.wav","null","audio-keyboard-response","119","75519","0.0-1.0-118.0","",""
"null","sound/msl/cat.wav","null","audio-keyboard-response","120","76019","0.0-1.0-119.0","",""
"null","sound/msl/goat.wav","null","audio-keyboard-response","121","76559","0.0-1.0-120.0","",""
"null","sound/msl/frog.wav","null","audio-keyboard-response","122","77060","0.0-1.0-121.0","",""
"null","sound/msl/boing.wav","null","audio-keyboard-response","123","77559","0.0-1.0-122.0","",""
"null","sound/msl/Water.wav","null","audio-keyboard-response","124","78069","0.0-1.0-123.0","",""
"null","sound/msl/organ.wav","null","audio-keyboard-response","125","78569","0.0-1.0-124.0","",""
"null","sound/msl/clock.wav","null","audio-keyboard-response","126","79120","0.0-1.0-125.0","",""
"null","sound/msl/dog.wav","null","audio-keyboard-response","127","79620","0.0-1.0-126.0","",""
"null","sound/msl/door.wav","null","audio-keyboard-response","128","80120","0.0-1.0-127.0","",""
"null","sound/msl/slide_whistle.wav","null","audio-keyboard-response","129","80620","0.0-1.0-128.0","",""
"null","sound/msl/bird.wav","null","audio-keyboard-response","130","81129","0.0-1.0-129.0","",""
"null","sound/msl/cow.wav","null","audio-keyboard-response","131","81641","0.0-1.0-130.0","",""
"null","sound/msl/ding.wav","null","audio-keyboard-response","132","82140","0.0-1.0-131.0","",""
"null","sound/msl/Water.wav","null","audio-keyboard-response","133","82650","0.0-1.0-132.0","",""
"null","sound/msl/organ.wav","null","audio-keyboard-response","134","83150","0.0-1.0-133.0","",""
"null","sound/msl/clock.wav","null","audio-keyboard-response","135","83700","0.0-1.0-134.0","",""
"null","sound/msl/duck.wav","null","audio-keyboard-response","136","84210","0.0-1.0-135.0","",""
"null","sound/msl/door_bell.wav","null","audio-keyboard-response","137","84721","0.0-1.0-136.0","",""
"null","sound/msl/cat.wav","null","audio-keyboard-response","138","85220","0.0-1.0-137.0","",""
"null","sound/msl/bird.wav","null","audio-keyboard-response","139","85730","0.0-1.0-138.0","",""
"null","sound/msl/cow.wav","null","audio-keyboard-response","140","86240","0.0-1.0-139.0","",""
"null","sound/msl/ding.wav","null","audio-keyboard-response","141","86740","0.0-1.0-140.0","",""
"null","sound/msl/goat.wav","null","audio-keyboard-response","142","87281","0.0-1.0-141.0","",""
"null","sound/msl/frog.wav","null","audio-keyboard-response","143","87781","0.0-1.0-142.0","",""
"null","sound/msl/boing.wav","null","audio-keyboard-response","144","88281","0.0-1.0-143.0","",""
"null","sound/msl/dog.wav","null","audio-keyboard-response","145","88782","0.0-1.0-144.0","",""
"null","sound/msl/door.wav","null","audio-keyboard-response","146","89281","0.0-1.0-145.0","",""
"null","sound/msl/slide_whistle.wav","null","audio-keyboard-response","147","89781","0.0-1.0-146.0","",""
"null","sound/msl/duck.wav","null","audio-keyboard-response","148","90291","0.0-1.0-147.0","",""
"null","sound/msl/door_bell.wav","null","audio-keyboard-response","149","90801","0.0-1.0-148.0","",""
"null","sound/msl/cat.wav","null","audio-keyboard-response","150","91301","0.0-1.0-149.0","",""
"null","sound/msl/goat.wav","null","audio-keyboard-response","151","91841","0.0-1.0-150.0","",""
"null","sound/msl/frog.wav","null","audio-keyboard-response","152","92342","0.0-1.0-151.0","",""
"null","sound/msl/boing.wav","null","audio-keyboard-response","153","92842","0.0-1.0-152.0","",""
"null","sound/msl/Water.wav","null","audio-keyboard-response","154","93352","0.0-1.0-153.0","",""
"null","sound/msl/organ.wav","null","audio-keyboard-response","155","93851","0.0-1.0-154.0","",""
"null","sound/msl/clock.wav","null","audio-keyboard-response","156","94401","0.0-1.0-155.0","",""
"null","sound/msl/bird.wav","null","audio-keyboard-response","157","94902","0.0-1.0-156.0","",""
"null","sound/msl/cow.wav","null","audio-keyboard-response","158","95412","0.0-1.0-157.0","",""
"null","sound/msl/ding.wav","null","audio-keyboard-response","159","95922","0.0-1.0-158.0","",""
"null","sound/msl/dog.wav","null","audio-keyboard-response","160","96422","0.0-1.0-159.0","",""
"null","sound/msl/door.wav","null","audio-keyboard-response","161","96922","0.0-1.0-160.0","",""
"null","sound/msl/slide_whistle.wav","null","audio-keyboard-response","162","97422","0.0-1.0-161.0","",""
"null","sound/msl/Water.wav","null","audio-keyboard-response","163","97932","0.0-1.0-162.0","",""
"null","sound/msl/organ.wav","null","audio-keyboard-response","164","98432","0.0-1.0-163.0","",""
"null","sound/msl/clock.wav","null","audio-keyboard-response","165","98983","0.0-1.0-164.0","",""
"null","sound/msl/bird.wav","null","audio-keyboard-response","166","99492","0.0-1.0-165.0","",""
"null","sound/msl/cow.wav","null","audio-keyboard-response","167","100003","0.0-1.0-166.0","",""
"null","sound/msl/ding.wav","null","audio-keyboard-response","168","100502","0.0-1.0-167.0","",""
"null","sound/msl/goat.wav","null","audio-keyboard-response","169","101042","0.0-1.0-168.0","",""
"null","sound/msl/frog.wav","null","audio-keyboard-response","170","101542","0.0-1.0-169.0","",""
"null","sound/msl/boing.wav","null","audio-keyboard-response","171","102042","0.0-1.0-170.0","",""
"null","sound/msl/duck.wav","null","audio-keyboard-response","172","102543","0.0-1.0-171.0","",""
"null","sound/msl/door_bell.wav","null","audio-keyboard-response","173","103053","0.0-1.0-172.0","",""
"null","sound/msl/cat.wav","null","audio-keyboard-response","174","103553","0.0-1.0-173.0","",""
"null","sound/msl/dog.wav","null","audio-keyboard-response","175","104053","0.0-1.0-174.0","",""
"null","sound/msl/door.wav","null","audio-keyboard-response","176","104553","0.0-1.0-175.0","",""
"null","sound/msl/slide_whistle.wav","null","audio-keyboard-response","177","105053","0.0-1.0-176.0","",""
"null","sound/msl/Water.wav","null","audio-keyboard-response","178","105563","0.0-1.0-177.0","",""
"null","sound/msl/organ.wav","null","audio-keyboard-response","179","106063","0.0-1.0-178.0","",""
"null","sound/msl/clock.wav","null","audio-keyboard-response","180","106614","0.0-1.0-179.0","",""
"null","sound/msl/duck.wav","null","audio-keyboard-response","181","107119","0.0-1.0-180.0","",""
"null","sound/msl/door_bell.wav","null","audio-keyboard-response","182","107618","0.0-1.0-181.0","",""
"null","sound/msl/cat.wav","null","audio-keyboard-response","183","108119","0.0-1.0-182.0","",""
"null","sound/msl/bird.wav","null","audio-keyboard-response","184","108619","0.0-1.0-183.0","",""
"null","sound/msl/cow.wav","null","audio-keyboard-response","185","109129","0.0-1.0-184.0","",""
"null","sound/msl/ding.wav","null","audio-keyboard-response","186","109639","0.0-1.0-185.0","",""
"null","sound/msl/goat.wav","null","audio-keyboard-response","187","110179","0.0-1.0-186.0","",""
"null","sound/msl/frog.wav","null","audio-keyboard-response","188","110689","0.0-1.0-187.0","",""
"null","sound/msl/boing.wav","null","audio-keyboard-response","189","111188","0.0-1.0-188.0","",""
"null","sound/msl/dog.wav","null","audio-keyboard-response","190","111689","0.0-1.0-189.0","",""
"null","sound/msl/door.wav","null","audio-keyboard-response","191","112189","0.0-1.0-190.0","",""
"null","sound/msl/slide_whistle.wav","null","audio-keyboard-response","192","112690","0.0-1.0-191.0","",""
"null","sound/msl/Water.wav","null","audio-keyboard-response","193","113199","0.0-1.0-192.0","",""
"null","sound/msl/organ.wav","null","audio-keyboard-response","194","113700","0.0-1.0-193.0","",""
"null","sound/msl/clock.wav","null","audio-keyboard-response","195","114249","0.0-1.0-194.0","",""
"null","sound/msl/duck.wav","null","audio-keyboard-response","196","114759","0.0-1.0-195.0","",""
"null","sound/msl/door_bell.wav","null","audio-keyboard-response","197","115259","0.0-1.0-196.0","",""
"null","sound/msl/cat.wav","null","audio-keyboard-response","198","115760","0.0-1.0-197.0","",""
"null","sound/msl/goat.wav","null","audio-keyboard-response","199","116300","0.0-1.0-198.0","",""
"null","sound/msl/frog.wav","null","audio-keyboard-response","200","116810","0.0-1.0-199.0","",""
"null","sound/msl/boing.wav","null","audio-keyboard-response","201","117310","0.0-1.0-200.0","",""
"null","sound/msl/bird.wav","null","audio-keyboard-response","202","117810","0.0-1.0-201.0","",""
"null","sound/msl/cow.wav","null","audio-keyboard-response","203","118322","0.0-1.0-202.0","",""
"null","sound/msl/ding.wav","null","audio-keyboard-response","204","118820","0.0-1.0-203.0","",""
"null","sound/msl/dog.wav","null","audio-keyboard-response","205","119330","0.0-1.0-204.0","",""
"null","sound/msl/door.wav","null","audio-keyboard-response","206","119830","0.0-1.0-205.0","",""
"null","sound/msl/slide_whistle.wav","null","audio-keyboard-response","207","120330","0.0-1.0-206.0","",""
"null","sound/msl/Water.wav","null","audio-keyboard-response","208","120840","0.0-1.0-207.0","",""
"null","sound/msl/organ.wav","null","audio-keyboard-response","209","121340","0.0-1.0-208.0","",""
"null","sound/msl/clock.wav","null","audio-keyboard-response","210","121890","0.0-1.0-209.0","",""
"null","sound/msl/goat.wav","null","audio-keyboard-response","211","122431","0.0-1.0-210.0","",""
"null","sound/msl/frog.wav","null","audio-keyboard-response","212","122931","0.0-1.0-211.0","",""
"null","sound/msl/boing.wav","null","audio-keyboard-response","213","123431","0.0-1.0-212.0","",""
"null","sound/msl/dog.wav","null","audio-keyboard-response","214","123931","0.0-1.0-213.0","",""
"null","sound/msl/door.wav","null","audio-keyboard-response","215","124430","0.0-1.0-214.0","",""
"null","sound/msl/slide_whistle.wav","null","audio-keyboard-response","216","124931","0.0-1.0-215.0","",""
"null","sound/msl/duck.wav","null","audio-keyboard-response","217","125440","0.0-1.0-216.0","",""
"null","sound/msl/door_bell.wav","null","audio-keyboard-response","218","125941","0.0-1.0-217.0","",""
"null","sound/msl/cat.wav","null","audio-keyboard-response","219","126441","0.0-1.0-218.0","",""
"null","sound/msl/bird.wav","null","audio-keyboard-response","220","126941","0.0-1.0-219.0","",""
"null","sound/msl/cow.wav","null","audio-keyboard-response","221","127451","0.0-1.0-220.0","",""
"null","sound/msl/ding.wav","null","audio-keyboard-response","222","127961","0.0-1.0-221.0","",""
"null","sound/msl/Water.wav","null","audio-keyboard-response","223","128471","0.0-1.0-222.0","",""
"null","sound/msl/organ.wav","null","audio-keyboard-response","224","128972","0.0-1.0-223.0","",""
"null","sound/msl/clock.wav","null","audio-keyboard-response","225","129521","0.0-1.0-224.0","",""
"null","sound/msl/duck.wav","null","audio-keyboard-response","226","130022","0.0-1.0-225.0","",""
"null","sound/msl/door_bell.wav","null","audio-keyboard-response","227","130531","0.0-1.0-226.0","",""
"null","sound/msl/cat.wav","null","audio-keyboard-response","228","131032","0.0-1.0-227.0","",""
"null","sound/msl/dog.wav","null","audio-keyboard-response","229","131531","0.0-1.0-228.0","",""
"null","sound/msl/door.wav","null","audio-keyboard-response","230","132031","0.0-1.0-229.0","",""
"null","sound/msl/slide_whistle.wav","null","audio-keyboard-response","231","132531","0.0-1.0-230.0","",""
"null","sound/msl/duck.wav","null","audio-keyboard-response","232","133042","0.0-1.0-231.0","",""
"null","sound/msl/door_bell.wav","null","audio-keyboard-response","233","133542","0.0-1.0-232.0","",""
"null","sound/msl/cat.wav","null","audio-keyboard-response","234","134042","0.0-1.0-233.0","",""
"null","sound/msl/Water.wav","null","audio-keyboard-response","235","134552","0.0-1.0-234.0","",""
"null","sound/msl/organ.wav","null","audio-keyboard-response","236","135052","0.0-1.0-235.0","",""
"null","sound/msl/clock.wav","null","audio-keyboard-response","237","135602","0.0-1.0-236.0","",""
"null","sound/msl/bird.wav","null","audio-keyboard-response","238","136102","0.0-1.0-237.0","",""
"null","sound/msl/cow.wav","null","audio-keyboard-response","239","136612","0.0-1.0-238.0","",""
"null","sound/msl/ding.wav","null","audio-keyboard-response","240","137123","0.0-1.0-239.0","",""
"null","sound/msl/goat.wav","null","audio-keyboard-response","241","137662","0.0-1.0-240.0","",""
"null","sound/msl/frog.wav","null","audio-keyboard-response","242","138172","0.0-1.0-241.0","",""
"null","sound/msl/boing.wav","null","audio-keyboard-response","243","138672","0.0-1.0-242.0","",""
"null","sound/msl/dog.wav","null","audio-keyboard-response","244","139173","0.0-1.0-243.0","",""
"null","sound/msl/door.wav","null","audio-keyboard-response","245","139673","0.0-1.0-244.0","",""
"null","sound/msl/slide_whistle.wav","null","audio-keyboard-response","246","140173","0.0-1.0-245.0","",""
"null","sound/msl/Water.wav","null","audio-keyboard-response","247","140683","0.0-1.0-246.0","",""
"null","sound/msl/organ.wav","null","audio-keyboard-response","248","141183","0.0-1.0-247.0","",""
"null","sound/msl/clock.wav","null","audio-keyboard-response","249","141733","0.0-1.0-248.0","",""
"null","sound/msl/bird.wav","null","audio-keyboard-response","250","142243","0.0-1.0-249.0","",""
"null","sound/msl/cow.wav","null","audio-keyboard-response","251","142743","0.0-1.0-250.0","",""
"null","sound/msl/ding.wav","null","audio-keyboard-response","252","143253","0.0-1.0-251.0","",""
"null","sound/msl/goat.wav","null","audio-keyboard-response","253","143793","0.0-1.0-252.0","",""
"null","sound/msl/frog.wav","null","audio-keyboard-response","254","144293","0.0-1.0-253.0","",""
"null","sound/msl/boing.wav","null","audio-keyboard-response","255","144793","0.0-1.0-254.0","",""
"null","sound/msl/duck.wav","null","audio-keyboard-response","256","145293","0.0-1.0-255.0","",""
"null","sound/msl/door_bell.wav","null","audio-keyboard-response","257","145803","0.0-1.0-256.0","",""
"null","sound/msl/cat.wav","null","audio-keyboard-response","258","146304","0.0-1.0-257.0","",""
"null","sound/msl/dog.wav","null","audio-keyboard-response","259","146814","0.0-1.0-258.0","",""
"null","sound/msl/door.wav","null","audio-keyboard-response","260","147314","0.0-1.0-259.0","",""
"null","sound/msl/slide_whistle.wav","null","audio-keyboard-response","261","147809","0.0-1.0-260.0","",""
"null","sound/msl/goat.wav","null","audio-keyboard-response","262","148349","0.0-1.0-261.0","",""
"null","sound/msl/frog.wav","null","audio-keyboard-response","263","148849","0.0-1.0-262.0","",""
"null","sound/msl/boing.wav","null","audio-keyboard-response","264","149349","0.0-1.0-263.0","",""
"null","sound/msl/bird.wav","null","audio-keyboard-response","265","149849","0.0-1.0-264.0","",""
"null","sound/msl/cow.wav","null","audio-keyboard-response","266","150359","0.0-1.0-265.0","",""
"null","sound/msl/ding.wav","null","audio-keyboard-response","267","150859","0.0-1.0-266.0","",""
"null","sound/msl/duck.wav","null","audio-keyboard-response","268","151369","0.0-1.0-267.0","",""
"null","sound/msl/door_bell.wav","null","audio-keyboard-response","269","151879","0.0-1.0-268.0","",""
"null","sound/msl/cat.wav","null","audio-keyboard-response","270","152379","0.0-1.0-269.0","",""
"null","sound/msl/Water.wav","null","audio-keyboard-response","271","152889","0.0-1.0-270.0","",""
"null","sound/msl/organ.wav","null","audio-keyboard-response","272","153390","0.0-1.0-271.0","",""
"null","sound/msl/clock.wav","null","audio-keyboard-response","273","153939","0.0-1.0-272.0","",""
"null","sound/msl/dog.wav","null","audio-keyboard-response","274","154449","0.0-1.0-273.0","",""
"null","sound/msl/door.wav","null","audio-keyboard-response","275","154949","0.0-1.0-274.0","",""
"null","sound/msl/slide_whistle.wav","null","audio-keyboard-response","276","155449","0.0-1.0-275.0","",""
"null","sound/msl/goat.wav","null","audio-keyboard-response","277","155989","0.0-1.0-276.0","",""
"null","sound/msl/frog.wav","null","audio-keyboard-response","278","156490","0.0-1.0-277.0","",""
"null","sound/msl/boing.wav","null","audio-keyboard-response","279","156990","0.0-1.0-278.0","",""
"null","sound/msl/bird.wav","null","audio-keyboard-response","280","157489","0.0-1.0-279.0","",""
"null","sound/msl/cow.wav","null","audio-keyboard-response","281","158000","0.0-1.0-280.0","",""
"null","sound/msl/ding.wav","null","audio-keyboard-response","282","158499","0.0-1.0-281.0","",""
"null","sound/msl/Water.wav","null","audio-keyboard-response","283","159009","0.0-1.0-282.0","",""
"null","sound/msl/organ.wav","null","audio-keyboard-response","284","159510","0.0-1.0-283.0","",""
"null","sound/msl/clock.wav","null","audio-keyboard-response","285","160060","0.0-1.0-284.0","",""
"null","sound/msl/duck.wav","null","audio-keyboard-response","286","160571","0.0-1.0-285.0","",""
"null","sound/msl/door_bell.wav","null","audio-keyboard-response","287","161080","0.0-1.0-286.0","",""
"null","sound/msl/cat.wav","null","audio-keyboard-response","288","161580","0.0-1.0-287.0","",""
"null","sound/msl/dog.wav","null","audio-keyboard-response","289","162090","0.0-1.0-288.0","",""
"null","sound/msl/door.wav","null","audio-keyboard-response","290","162590","0.0-1.0-289.0","",""
"null","sound/msl/slide_whistle.wav","null","audio-keyboard-response","291","163090","0.0-1.0-290.0","",""
"null","sound/msl/bird.wav","null","audio-keyboard-response","292","163600","0.0-1.0-291.0","",""
"null","sound/msl/cow.wav","null","audio-keyboard-response","293","164101","0.0-1.0-292.0","",""
"null","sound/msl/ding.wav","null","audio-keyboard-response","294","164610","0.0-1.0-293.0","",""
"null","sound/msl/goat.wav","null","audio-keyboard-response","295","165150","0.0-1.0-294.0","",""
"null","sound/msl/frog.wav","null","audio-keyboard-response","296","165651","0.0-1.0-295.0","",""
"null","sound/msl/boing.wav","null","audio-keyboard-response","297","166151","0.0-1.0-296.0","",""
"null","sound/msl/dog.wav","null","audio-keyboard-response","298","166651","0.0-1.0-297.0","",""
"null","sound/msl/door.wav","null","audio-keyboard-response","299","167151","0.0-1.0-298.0","",""
"null","sound/msl/slide_whistle.wav","null","audio-keyboard-response","300","167652","0.0-1.0-299.0","",""
"null","sound/msl/Water.wav","null","audio-keyboard-response","301","168161","0.0-1.0-300.0","",""
"null","sound/msl/organ.wav","null","audio-keyboard-response","302","168661","0.0-1.0-301.0","",""
"null","sound/msl/clock.wav","null","audio-keyboard-response","303","169212","0.0-1.0-302.0","",""
"null","sound/msl/bird.wav","null","audio-keyboard-response","304","169722","0.0-1.0-303.0","",""
"null","sound/msl/cow.wav","null","audio-keyboard-response","305","170222","0.0-1.0-304.0","",""
"null","sound/msl/ding.wav","null","audio-keyboard-response","306","170731","0.0-1.0-305.0","",""
"null","sound/msl/duck.wav","null","audio-keyboard-response","307","171242","0.0-1.0-306.0","",""
"null","sound/msl/door_bell.wav","null","audio-keyboard-response","308","171742","0.0-1.0-307.0","",""
"null","sound/msl/cat.wav","null","audio-keyboard-response","309","172242","0.0-1.0-308.0","",""
"null","sound/msl/goat.wav","null","audio-keyboard-response","310","172782","0.0-1.0-309.0","",""
"null","sound/msl/frog.wav","null","audio-keyboard-response","311","173292","0.0-1.0-310.0","",""
"null","sound/msl/boing.wav","null","audio-keyboard-response","312","173792","0.0-1.0-311.0","",""
"null","sound/msl/dog.wav","null","audio-keyboard-response","313","174292","0.0-1.0-312.0","",""
"null","sound/msl/door.wav","null","audio-keyboard-response","314","174792","0.0-1.0-313.0","",""
"null","sound/msl/slide_whistle.wav","null","audio-keyboard-response","315","175292","0.0-1.0-314.0","",""
"null","sound/msl/Water.wav","null","audio-keyboard-response","316","175803","0.0-1.0-315.0","",""
"null","sound/msl/organ.wav","null","audio-keyboard-response","317","176303","0.0-1.0-316.0","",""
"null","sound/msl/clock.wav","null","audio-keyboard-response","318","176853","0.0-1.0-317.0","",""
"null","sound/msl/bird.wav","null","audio-keyboard-response","319","177362","0.0-1.0-318.0","",""
"null","sound/msl/cow.wav","null","audio-keyboard-response","320","177862","0.0-1.0-319.0","",""
"null","sound/msl/ding.wav","null","audio-keyboard-response","321","178373","0.0-1.0-320.0","",""
"null","sound/msl/goat.wav","null","audio-keyboard-response","322","178912","0.0-1.0-321.0","",""
"null","sound/msl/frog.wav","null","audio-keyboard-response","323","179412","0.0-1.0-322.0","",""
"null","sound/msl/boing.wav","null","audio-keyboard-response","324","179913","0.0-1.0-323.0","",""
"null","sound/msl/Water.wav","null","audio-keyboard-response","325","180423","0.0-1.0-324.0","",""
"null","sound/msl/organ.wav","null","audio-keyboard-response","326","180923","0.0-1.0-325.0","",""
"null","sound/msl/clock.wav","null","audio-keyboard-response","327","181473","0.0-1.0-326.0","",""
"null","sound/msl/duck.wav","null","audio-keyboard-response","328","181973","0.0-1.0-327.0","",""
"null","sound/msl/door_bell.wav","null","audio-keyboard-response","329","182483","0.0-1.0-328.0","",""
"null","sound/msl/cat.wav","null","audio-keyboard-response","330","182983","0.0-1.0-329.0","",""
"null","sound/msl/dog.wav","null","audio-keyboard-response","331","183492","0.0-1.0-330.0","",""
"null","sound/msl/door.wav","null","audio-keyboard-response","332","183994","0.0-1.0-331.0","",""
"null","sound/msl/slide_whistle.wav","null","audio-keyboard-response","333","184493","0.0-1.0-332.0","",""
"null","sound/msl/bird.wav","null","audio-keyboard-response","334","185003","0.0-1.0-333.0","",""
"null","sound/msl/cow.wav","null","audio-keyboard-response","335","185503","0.0-1.0-334.0","",""
"null","sound/msl/ding.wav","null","audio-keyboard-response","336","186013","0.0-1.0-335.0","",""
"null","sound/msl/duck.wav","null","audio-keyboard-response","337","186524","0.0-1.0-336.0","",""
"null","sound/msl/door_bell.wav","null","audio-keyboard-response","338","187024","0.0-1.0-337.0","",""
"null","sound/msl/cat.wav","null","audio-keyboard-response","339","187524","0.0-1.0-338.0","",""
"null","sound/msl/goat.wav","null","audio-keyboard-response","340","188064","0.0-1.0-339.0","",""
"null","sound/msl/frog.wav","null","audio-keyboard-response","341","188574","0.0-1.0-340.0","",""
"null","sound/msl/boing.wav","null","audio-keyboard-response","342","189069","0.0-1.0-341.0","",""
"null","sound/msl/bird.wav","null","audio-keyboard-response","343","189568","0.0-1.0-342.0","",""
"null","sound/msl/cow.wav","null","audio-keyboard-response","344","190079","0.0-1.0-343.0","",""
"null","sound/msl/ding.wav","null","audio-keyboard-response","345","190579","0.0-1.0-344.0","",""
"null","sound/msl/goat.wav","null","audio-keyboard-response","346","191119","0.0-1.0-345.0","",""
"null","sound/msl/frog.wav","null","audio-keyboard-response","347","191619","0.0-1.0-346.0","",""
"null","sound/msl/boing.wav","null","audio-keyboard-response","348","192119","0.0-1.0-347.0","",""
"null","sound/msl/duck.wav","null","audio-keyboard-response","349","192619","0.0-1.0-348.0","",""
"null","sound/msl/door_bell.wav","null","audio-keyboard-response","350","193130","0.0-1.0-349.0","",""
"null","sound/msl/cat.wav","null","audio-keyboard-response","351","193630","0.0-1.0-350.0","",""
"null","sound/msl/dog.wav","null","audio-keyboard-response","352","194129","0.0-1.0-351.0","",""
"null","sound/msl/door.wav","null","audio-keyboard-response","353","194630","0.0-1.0-352.0","",""
"null","sound/msl/slide_whistle.wav","null","audio-keyboard-response","354","195129","0.0-1.0-353.0","",""
"null","sound/msl/bird.wav","null","audio-keyboard-response","355","195639","0.0-1.0-354.0","",""
"null","sound/msl/cow.wav","null","audio-keyboard-response","356","196139","0.0-1.0-355.0","",""
"null","sound/msl/ding.wav","null","audio-keyboard-response","357","196650","0.0-1.0-356.0","",""
"null","sound/msl/goat.wav","null","audio-keyboard-response","358","197190","0.0-1.0-357.0","",""
"null","sound/msl/frog.wav","null","audio-keyboard-response","359","197690","0.0-1.0-358.0","",""
"null","sound/msl/boing.wav","null","audio-keyboard-response","360","198190","0.0-1.0-359.0","",""
"9418","Instructions2-eng.png","49","image-keyboard-response","361","207608","0.0-2.0","",""
"null","sound/msl/goat.wav","null","audio-keyboard-response","362","208141","0.0-3.0-0.0","",""
"null","sound/msl/organ.wav","null","audio-keyboard-response","363","208641","0.0-3.0-1.0","",""
"null","sound/msl/cat.wav","null","audio-keyboard-response","364","209142","0.0-3.0-2.0","",""
"null","sound/asl/silence.wav","null","audio-keyboard-response","365","209643","0.0-3.0-3.0","",""
"null","sound/msl/bird.wav","null","audio-keyboard-response","366","210142","0.0-3.0-4.0","",""
"null","sound/msl/cow.wav","null","audio-keyboard-response","367","210651","0.0-3.0-5.0","",""
"null","sound/msl/ding.wav","null","audio-keyboard-response","368","211161","0.0-3.0-6.0","",""
"5360","sound/asl/silence.wav","49","audio-keyboard-response","369","216525","0.0-3.0-7.0","false",""
"null","sound/msl/dog.wav","null","audio-keyboard-response","370","217023","0.0-4.0-0.0","",""
"null","sound/msl/door.wav","null","audio-keyboard-response","371","217523","0.0-4.0-1.0","",""
"null","sound/msl/slide_whistle.wav","null","audio-keyboard-response","372","218023","0.0-4.0-2.0","",""
"null","sound/asl/silence.wav","null","audio-keyboard-response","373","218525","0.0-4.0-3.0","",""
"null","sound/msl/Water.wav","null","audio-keyboard-response","374","219033","0.0-4.0-4.0","",""
"null","sound/msl/door_bell.wav","null","audio-keyboard-response","375","219533","0.0-4.0-5.0","",""
"null","sound/msl/ding.wav","null","audio-keyboard-response","376","220043","0.0-4.0-6.0","",""
"989","sound/asl/silence.wav","50","audio-keyboard-response","377","221043","0.0-4.0-7.0","false",""
"null","sound/msl/Water.wav","null","audio-keyboard-response","378","221554","0.0-5.0-0.0","",""
"null","sound/msl/organ.wav","null","audio-keyboard-response","379","222054","0.0-5.0-1.0","",""
"null","sound/msl/clock.wav","null","audio-keyboard-response","380","222604","0.0-5.0-2.0","",""
"null","sound/asl/silence.wav","null","audio-keyboard-response","381","223106","0.0-5.0-3.0","",""
"null","sound/msl/Water.wav","null","audio-keyboard-response","382","223614","0.0-5.0-4.0","",""
"null","sound/msl/door_bell.wav","null","audio-keyboard-response","383","224124","0.0-5.0-5.0","",""
"null","sound/msl/ding.wav","null","audio-keyboard-response","384","224624","0.0-5.0-6.0","",""
"1000","sound/asl/silence.wav","49","audio-keyboard-response","385","225632","0.0-5.0-7.0","true",""
"null","sound/msl/Water.wav","null","audio-keyboard-response","386","226134","0.0-6.0-0.0","",""
"null","sound/msl/organ.wav","null","audio-keyboard-response","387","226634","0.0-6.0-1.0","",""
"null","sound/msl/clock.wav","null","audio-keyboard-response","388","227184","0.0-6.0-2.0","",""
"null","sound/asl/silence.wav","null","audio-keyboard-response","389","227685","0.0-6.0-3.0","",""
"null","sound/msl/duck.wav","null","audio-keyboard-response","390","228184","0.0-6.0-4.0","",""
"null","sound/msl/cow.wav","null","audio-keyboard-response","391","228694","0.0-6.0-5.0","",""
"null","sound/msl/slide_whistle.wav","null","audio-keyboard-response","392","229189","0.0-6.0-6.0","",""
"3192","sound/asl/silence.wav","50","audio-keyboard-response","393","232386","0.0-6.0-7.0","false",""
"null","sound/msl/duck.wav","null","audio-keyboard-response","394","232890","0.0-7.0-0.0","",""
"null","sound/msl/cow.wav","null","audio-keyboard-response","395","233400","0.0-7.0-1.0","",""
"null","sound/msl/slide_whistle.wav","null","audio-keyboard-response","396","233900","0.0-7.0-2.0","",""
"null","sound/asl/silence.wav","null","audio-keyboard-response","397","234402","0.0-7.0-3.0","",""
"null","sound/msl/bird.wav","null","audio-keyboard-response","398","234900","0.0-7.0-4.0","",""
"null","sound/msl/cow.wav","null","audio-keyboard-response","399","235410","0.0-7.0-5.0","",""
"null","sound/msl/ding.wav","null","audio-keyboard-response","400","235920","0.0-7.0-6.0","",""
"731","sound/asl/silence.wav","49","audio-keyboard-response","401","236652","0.0-7.0-7.0","false",""
"null","sound/msl/duck.wav","null","audio-keyboard-response","402","237161","0.0-8.0-0.0","",""
"null","sound/msl/door_bell.wav","null","audio-keyboard-response","403","237661","0.0-8.0-1.0","",""
"null","sound/msl/cat.wav","null","audio-keyboard-response","404","238161","0.0-8.0-2.0","",""
"null","sound/asl/silence.wav","null","audio-keyboard-response","405","238662","0.0-8.0-3.0","",""
"null","sound/msl/dog.wav","null","audio-keyboard-response","406","239171","0.0-8.0-4.0","",""
"null","sound/msl/frog.wav","null","audio-keyboard-response","407","239682","0.0-8.0-5.0","",""
"null","sound/msl/clock.wav","null","audio-keyboard-response","408","240231","0.0-8.0-6.0","",""
"3091","sound/asl/silence.wav","49","audio-keyboard-response","409","243324","0.0-8.0-7.0","true",""
"null","sound/msl/duck.wav","null","audio-keyboard-response","410","243821","0.0-9.0-0.0","",""
"null","sound/msl/cow.wav","null","audio-keyboard-response","411","244332","0.0-9.0-1.0","",""
"null","sound/msl/slide_whistle.wav","null","audio-keyboard-response","412","244831","0.0-9.0-2.0","",""
"null","sound/asl/silence.wav","null","audio-keyboard-response","413","245334","0.0-9.0-3.0","",""
"null","sound/msl/duck.wav","null","audio-keyboard-response","414","245842","0.0-9.0-4.0","",""
"null","sound/msl/door_bell.wav","null","audio-keyboard-response","415","246342","0.0-9.0-5.0","",""
"null","sound/msl/cat.wav","null","audio-keyboard-response","416","246841","0.0-9.0-6.0","",""
"1680","sound/asl/silence.wav","49","audio-keyboard-response","417","248529","0.0-9.0-7.0","false",""
"null","sound/msl/bird.wav","null","audio-keyboard-response","418","249022","0.0-10.0-0.0","",""
"null","sound/msl/door.wav","null","audio-keyboard-response","419","249522","0.0-10.0-1.0","",""
"null","sound/msl/boing.wav","null","audio-keyboard-response","420","250022","0.0-10.0-2.0","",""
"null","sound/asl/silence.wav","null","audio-keyboard-response","421","250524","0.0-10.0-3.0","",""
"null","sound/msl/duck.wav","null","audio-keyboard-response","422","251023","0.0-10.0-4.0","",""
"null","sound/msl/door_bell.wav","null","audio-keyboard-response","423","251533","0.0-10.0-5.0","",""
"null","sound/msl/cat.wav","null","audio-keyboard-response","424","252033","0.0-10.0-6.0","",""
"971","sound/asl/silence.wav","50","audio-keyboard-response","425","253012","0.0-10.0-7.0","true",""
"null","sound/msl/bird.wav","null","audio-keyboard-response","426","253523","0.0-11.0-0.0","",""
"null","sound/msl/cow.wav","null","audio-keyboard-response","427","254023","0.0-11.0-1.0","",""
"null","sound/msl/ding.wav","null","audio-keyboard-response","428","254533","0.0-11.0-2.0","",""
"null","sound/asl/silence.wav","null","audio-keyboard-response","429","255035","0.0-11.0-3.0","",""
"null","sound/msl/bird.wav","null","audio-keyboard-response","430","255533","0.0-11.0-4.0","",""
"null","sound/msl/door.wav","null","audio-keyboard-response","431","256032","0.0-11.0-5.0","",""
"null","sound/msl/boing.wav","null","audio-keyboard-response","432","256533","0.0-11.0-6.0","",""
"1589","sound/asl/silence.wav","49","audio-keyboard-response","433","258131","0.0-11.0-7.0","true",""
"null","sound/msl/dog.wav","null","audio-keyboard-response","434","258624","0.0-12.0-0.0","",""
"null","sound/msl/door.wav","null","audio-keyboard-response","435","259123","0.0-12.0-1.0","",""
"null","sound/msl/slide_whistle.wav","null","audio-keyboard-response","436","259623","0.0-12.0-2.0","",""
"null","sound/asl/silence.wav","null","audio-keyboard-response","437","260126","0.0-12.0-3.0","",""
"null","sound/msl/bird.wav","null","audio-keyboard-response","438","260624","0.0-12.0-4.0","",""
"null","sound/msl/door.wav","null","audio-keyboard-response","439","261123","0.0-12.0-5.0","",""
"null","sound/msl/boing.wav","null","audio-keyboard-response","440","261624","0.0-12.0-6.0","",""
"2728","sound/asl/silence.wav","49","audio-keyboard-response","441","264363","0.0-12.0-7.0","true",""
"null","sound/msl/Water.wav","null","audio-keyboard-response","442","264874","0.0-13.0-0.0","",""
"null","sound/msl/door_bell.wav","null","audio-keyboard-response","443","265374","0.0-13.0-1.0","",""
"null","sound/msl/ding.wav","null","audio-keyboard-response","444","265884","0.0-13.0-2.0","",""
"null","sound/asl/silence.wav","null","audio-keyboard-response","445","266386","0.0-13.0-3.0","",""
"null","sound/msl/bird.wav","null","audio-keyboard-response","446","266895","0.0-13.0-4.0","",""
"null","sound/msl/cow.wav","null","audio-keyboard-response","447","267405","0.0-13.0-5.0","",""
"null","sound/msl/ding.wav","null","audio-keyboard-response","448","267904","0.0-13.0-6.0","",""
"709","sound/asl/silence.wav","50","audio-keyboard-response","449","268618","0.0-13.0-7.0","true",""
"null","sound/msl/duck.wav","null","audio-keyboard-response","450","269124","0.0-14.0-0.0","",""
"null","sound/msl/cow.wav","null","audio-keyboard-response","451","269620","0.0-14.0-1.0","",""
"null","sound/msl/slide_whistle.wav","null","audio-keyboard-response","452","270120","0.0-14.0-2.0","",""
"null","sound/asl/silence.wav","null","audio-keyboard-response","453","270621","0.0-14.0-3.0","",""
"null","sound/msl/goat.wav","null","audio-keyboard-response","454","271160","0.0-14.0-4.0","",""
"null","sound/msl/frog.wav","null","audio-keyboard-response","455","271660","0.0-14.0-5.0","",""
"null","sound/msl/boing.wav","null","audio-keyboard-response","456","272160","0.0-14.0-6.0","",""
"1040","sound/asl/silence.wav","50","audio-keyboard-response","457","273201","0.0-14.0-7.0","true",""
"null","sound/msl/goat.wav","null","audio-keyboard-response","458","273740","0.0-15.0-0.0","",""
"null","sound/msl/organ.wav","null","audio-keyboard-response","459","274240","0.0-15.0-1.0","",""
"null","sound/msl/cat.wav","null","audio-keyboard-response","460","274740","0.0-15.0-2.0","",""
"null","sound/asl/silence.wav","null","audio-keyboard-response","461","275241","0.0-15.0-3.0","",""
"null","sound/msl/dog.wav","null","audio-keyboard-response","462","275740","0.0-15.0-4.0","",""
"null","sound/msl/door.wav","null","audio-keyboard-response","463","276240","0.0-15.0-5.0","",""
"null","sound/msl/slide_whistle.wav","null","audio-keyboard-response","464","276741","0.0-15.0-6.0","",""
"2000","sound/asl/silence.wav","50","audio-keyboard-response","465","278741","0.0-15.0-7.0","true",""
"null","sound/msl/dog.wav","null","audio-keyboard-response","466","279250","0.0-16.0-0.0","",""
"null","sound/msl/frog.wav","null","audio-keyboard-response","467","279761","0.0-16.0-1.0","",""
"null","sound/msl/clock.wav","null","audio-keyboard-response","468","280310","0.0-16.0-2.0","",""
"null","sound/asl/silence.wav","null","audio-keyboard-response","469","280812","0.0-16.0-3.0","",""
"null","sound/msl/Water.wav","null","audio-keyboard-response","470","281321","0.0-16.0-4.0","",""
"null","sound/msl/organ.wav","null","audio-keyboard-response","471","281821","0.0-16.0-5.0","",""
"null","sound/msl/clock.wav","null","audio-keyboard-response","472","282371","0.0-16.0-6.0","",""
"2011","sound/asl/silence.wav","50","audio-keyboard-response","473","284386","0.0-16.0-7.0","true",""
"null","sound/msl/Water.wav","null","audio-keyboard-response","474","284891","0.0-17.0-0.0","",""
"null","sound/msl/organ.wav","null","audio-keyboard-response","475","285391","0.0-17.0-1.0","",""
"null","sound/msl/clock.wav","null","audio-keyboard-response","476","285941","0.0-17.0-2.0","",""
"null","sound/asl/silence.wav","null","audio-keyboard-response","477","286443","0.0-17.0-3.0","",""
"null","sound/msl/goat.wav","null","audio-keyboard-response","478","286982","0.0-17.0-4.0","",""
"null","sound/msl/organ.wav","null","audio-keyboard-response","479","287482","0.0-17.0-5.0","",""
"null","sound/msl/cat.wav","null","audio-keyboard-response","480","287982","0.0-17.0-6.0","",""
"808","sound/asl/silence.wav","49","audio-keyboard-response","481","288792","0.0-17.0-7.0","true",""
"null","sound/msl/duck.wav","null","audio-keyboard-response","482","289292","0.0-18.0-0.0","",""
"null","sound/msl/door_bell.wav","null","audio-keyboard-response","483","289802","0.0-18.0-1.0","",""
"null","sound/msl/cat.wav","null","audio-keyboard-response","484","290302","0.0-18.0-2.0","",""
"null","sound/asl/silence.wav","null","audio-keyboard-response","485","290804","0.0-18.0-3.0","",""
"null","sound/msl/goat.wav","null","audio-keyboard-response","486","291342","0.0-18.0-4.0","",""
"null","sound/msl/organ.wav","null","audio-keyboard-response","487","291842","0.0-18.0-5.0","",""
"null","sound/msl/cat.wav","null","audio-keyboard-response","488","292343","0.0-18.0-6.0","",""
"1149","sound/asl/silence.wav","49","audio-keyboard-response","489","293493","0.0-18.0-7.0","true",""
"null","sound/msl/duck.wav","null","audio-keyboard-response","490","294002","0.0-19.0-0.0","",""
"null","sound/msl/cow.wav","null","audio-keyboard-response","491","294502","0.0-19.0-1.0","",""
"null","sound/msl/slide_whistle.wav","null","audio-keyboard-response","492","295002","0.0-19.0-2.0","",""
"null","sound/asl/silence.wav","null","audio-keyboard-response","493","295504","0.0-19.0-3.0","",""
"null","sound/msl/dog.wav","null","audio-keyboard-response","494","296012","0.0-19.0-4.0","",""
"null","sound/msl/door.wav","null","audio-keyboard-response","495","296513","0.0-19.0-5.0","",""
"null","sound/msl/slide_whistle.wav","null","audio-keyboard-response","496","297013","0.0-19.0-6.0","",""
"819","sound/asl/silence.wav","49","audio-keyboard-response","497","297836","0.0-19.0-7.0","false",""
"null","sound/msl/bird.wav","null","audio-keyboard-response","498","298333","0.0-20.0-0.0","",""
"null","sound/msl/door.wav","null","audio-keyboard-response","499","298833","0.0-20.0-1.0","",""
"null","sound/msl/boing.wav","null","audio-keyboard-response","500","299333","0.0-20.0-2.0","",""
"null","sound/asl/silence.wav","null","audio-keyboard-response","501","299835","0.0-20.0-3.0","",""
"null","sound/msl/Water.wav","null","audio-keyboard-response","502","300343","0.0-20.0-4.0","",""
"null","sound/msl/organ.wav","null","audio-keyboard-response","503","300844","0.0-20.0-5.0","",""
"null","sound/msl/clock.wav","null","audio-keyboard-response","504","301393","0.0-20.0-6.0","",""
"672","sound/asl/silence.wav","50","audio-keyboard-response","505","302070","0.0-20.0-7.0","true",""
"null","sound/msl/goat.wav","null","audio-keyboard-response","506","302604","0.0-21.0-0.0","",""
"null","sound/msl/frog.wav","null","audio-keyboard-response","507","303104","0.0-21.0-1.0","",""
"null","sound/msl/boing.wav","null","audio-keyboard-response","508","303603","0.0-21.0-2.0","",""
"null","sound/asl/silence.wav","null","audio-keyboard-response","509","304104","0.0-21.0-3.0","",""
"null","sound/msl/dog.wav","null","audio-keyboard-response","510","304613","0.0-21.0-4.0","",""
"null","sound/msl/frog.wav","null","audio-keyboard-response","511","305124","0.0-21.0-5.0","",""
"null","sound/msl/clock.wav","null","audio-keyboard-response","512","305673","0.0-21.0-6.0","",""
"941","sound/asl/silence.wav","49","audio-keyboard-response","513","306614","0.0-21.0-7.0","true",""
"null","sound/msl/Water.wav","null","audio-keyboard-response","514","307124","0.0-22.0-0.0","",""
"null","sound/msl/door_bell.wav","null","audio-keyboard-response","515","307625","0.0-22.0-1.0","",""
"null","sound/msl/ding.wav","null","audio-keyboard-response","516","308134","0.0-22.0-2.0","",""
"null","sound/asl/silence.wav","null","audio-keyboard-response","517","308636","0.0-22.0-3.0","",""
"null","sound/msl/goat.wav","null","audio-keyboard-response","518","309175","0.0-22.0-4.0","",""
"null","sound/msl/frog.wav","null","audio-keyboard-response","519","309684","0.0-22.0-5.0","",""
"null","sound/msl/boing.wav","null","audio-keyboard-response","520","310180","0.0-22.0-6.0","",""
"2579","sound/asl/silence.wav","50","audio-keyboard-response","521","312763","0.0-22.0-7.0","true",""
"null","sound/msl/goat.wav","null","audio-keyboard-response","522","313300","0.0-23.0-0.0","",""
"null","sound/msl/organ.wav","null","audio-keyboard-response","523","313800","0.0-23.0-1.0","",""
"null","sound/msl/cat.wav","null","audio-keyboard-response","524","314300","0.0-23.0-2.0","",""
"null","sound/asl/silence.wav","null","audio-keyboard-response","525","314801","0.0-23.0-3.0","",""
"null","sound/msl/goat.wav","null","audio-keyboard-response","526","315340","0.0-23.0-4.0","",""
"null","sound/msl/frog.wav","null","audio-keyboard-response","527","315850","0.0-23.0-5.0","",""
"null","sound/msl/boing.wav","null","audio-keyboard-response","528","316351","0.0-23.0-6.0","",""
"832","sound/asl/silence.wav","49","audio-keyboard-response","529","317184","0.0-23.0-7.0","false",""
"null","sound/msl/bird.wav","null","audio-keyboard-response","530","317691","0.0-24.0-0.0","",""
"null","sound/msl/cow.wav","null","audio-keyboard-response","531","318200","0.0-24.0-1.0","",""
"null","sound/msl/ding.wav","null","audio-keyboard-response","532","318701","0.0-24.0-2.0","",""
"null","sound/asl/silence.wav","null","audio-keyboard-response","533","319201","0.0-24.0-3.0","",""
"null","sound/msl/dog.wav","null","audio-keyboard-response","534","319700","0.0-24.0-4.0","",""
"null","sound/msl/frog.wav","null","audio-keyboard-response","535","320211","0.0-24.0-5.0","",""
"null","sound/msl/clock.wav","null","audio-keyboard-response","536","320761","0.0-24.0-6.0","",""
"781","sound/asl/silence.wav","49","audio-keyboard-response","537","321545","0.0-24.0-7.0","true",""
"null","sound/msl/dog.wav","null","audio-keyboard-response","538","322051","0.0-25.0-0.0","",""
"null","sound/msl/door.wav","null","audio-keyboard-response","539","322551","0.0-25.0-1.0","",""
"null","sound/msl/slide_whistle.wav","null","audio-keyboard-response","540","323052","0.0-25.0-2.0","",""
"null","sound/asl/silence.wav","null","audio-keyboard-response","541","323553","0.0-25.0-3.0","",""
"null","sound/msl/dog.wav","null","audio-keyboard-response","542","324052","0.0-25.0-4.0","",""
"null","sound/msl/frog.wav","null","audio-keyboard-response","543","324561","0.0-25.0-5.0","",""
"null","sound/msl/clock.wav","null","audio-keyboard-response","544","325111","0.0-25.0-6.0","",""
"2680","sound/asl/silence.wav","50","audio-keyboard-response","545","327796","0.0-25.0-7.0","false",""
"null","sound/msl/goat.wav","null","audio-keyboard-response","546","328331","0.0-26.0-0.0","",""
"null","sound/msl/frog.wav","null","audio-keyboard-response","547","328842","0.0-26.0-1.0","",""
"null","sound/msl/boing.wav","null","audio-keyboard-response","548","329342","0.0-26.0-2.0","",""
"null","sound/asl/silence.wav","null","audio-keyboard-response","549","329844","0.0-26.0-3.0","",""
"null","sound/msl/bird.wav","null","audio-keyboard-response","550","330342","0.0-26.0-4.0","",""
"null","sound/msl/door.wav","null","audio-keyboard-response","551","330843","0.0-26.0-5.0","",""
"null","sound/msl/boing.wav","null","audio-keyboard-response","552","331343","0.0-26.0-6.0","",""
"960","sound/asl/silence.wav","50","audio-keyboard-response","553","332309","0.0-26.0-7.0","false",""
"null","sound/msl/Water.wav","null","audio-keyboard-response","554","332812","0.0-27.0-0.0","",""
"null","sound/msl/door_bell.wav","null","audio-keyboard-response","555","333323","0.0-27.0-1.0","",""
"null","sound/msl/ding.wav","null","audio-keyboard-response","556","333822","0.0-27.0-2.0","",""
"null","sound/asl/silence.wav","null","audio-keyboard-response","557","334324","0.0-27.0-3.0","",""
"null","sound/msl/duck.wav","null","audio-keyboard-response","558","334823","0.0-27.0-4.0","",""
"null","sound/msl/door_bell.wav","null","audio-keyboard-response","559","335332","0.0-27.0-5.0","",""
"null","sound/msl/cat.wav","null","audio-keyboard-response","560","335832","0.0-27.0-6.0","",""
"2360","sound/asl/silence.wav","50","audio-keyboard-response","561","338193","0.0-27.0-7.0","true",""
"3255","","","instructions","562","341449","0.0-28.0","","[{""page_index"":0,""viewing_time"":3255}]"
