"rt","stimulus","key_press","trial_type","trial_index","time_elapsed","internal_node_id","correct","view_history"
"12421","alien.jpg","49","image-keyboard-response","0","12424","0.0-0.0","",""
"null","sound/msl/slide_whistle.wav","null","audio-keyboard-response","1","12950","0.0-1.0-0.0","",""
"null","sound/msl/organ.wav","null","audio-keyboard-response","2","13457","0.0-1.0-1.0","",""
"null","sound/msl/dog.wav","null","audio-keyboard-response","3","13967","0.0-1.0-2.0","",""
"null","sound/msl/ding.wav","null","audio-keyboard-response","4","14477","0.0-1.0-3.0","",""
"null","sound/msl/cat.wav","null","audio-keyboard-response","5","14987","0.0-1.0-4.0","",""
"null","sound/msl/door_bell.wav","null","audio-keyboard-response","6","15508","0.0-1.0-5.0","",""
"null","sound/msl/boing.wav","null","audio-keyboard-response","7","16017","0.0-1.0-6.0","",""
"null","sound/msl/clock.wav","null","audio-keyboard-response","8","16578","0.0-1.0-7.0","",""
"null","sound/msl/bird.wav","null","audio-keyboard-response","9","17088","0.0-1.0-8.0","",""
"null","sound/msl/Water.wav","null","audio-keyboard-response","10","17609","0.0-1.0-9.0","",""
"null","sound/msl/frog.wav","null","audio-keyboard-response","11","18118","0.0-1.0-10.0","",""
"null","sound/msl/cow.wav","null","audio-keyboard-response","12","18639","0.0-1.0-11.0","",""
"null","sound/msl/ding.wav","null","audio-keyboard-response","13","19158","0.0-1.0-12.0","",""
"null","sound/msl/cat.wav","null","audio-keyboard-response","14","19669","0.0-1.0-13.0","",""
"null","sound/msl/door_bell.wav","null","audio-keyboard-response","15","20188","0.0-1.0-14.0","",""
"null","sound/msl/slide_whistle.wav","null","audio-keyboard-response","16","20709","0.0-1.0-15.0","",""
"null","sound/msl/organ.wav","null","audio-keyboard-response","17","21218","0.0-1.0-16.0","",""
"null","sound/msl/dog.wav","null","audio-keyboard-response","18","21728","0.0-1.0-17.0","",""
"null","sound/msl/goat.wav","null","audio-keyboard-response","19","22279","0.0-1.0-18.0","",""
"null","sound/msl/door.wav","null","audio-keyboard-response","20","22789","0.0-1.0-19.0","",""
"null","sound/msl/duck.wav","null","audio-keyboard-response","21","23309","0.0-1.0-20.0","",""
"null","sound/msl/Water.wav","null","audio-keyboard-response","22","23828","0.0-1.0-21.0","",""
"null","sound/msl/frog.wav","null","audio-keyboard-response","23","24349","0.0-1.0-22.0","",""
"null","sound/msl/cow.wav","null","audio-keyboard-response","24","24869","0.0-1.0-23.0","",""
"null","sound/msl/boing.wav","null","audio-keyboard-response","25","25378","0.0-1.0-24.0","",""
"null","sound/msl/clock.wav","null","audio-keyboard-response","26","25939","0.0-1.0-25.0","",""
"null","sound/msl/bird.wav","null","audio-keyboard-response","27","26449","0.0-1.0-26.0","",""
"null","sound/msl/slide_whistle.wav","null","audio-keyboard-response","28","26959","0.0-1.0-27.0","",""
"null","sound/msl/organ.wav","null","audio-keyboard-response","29","27470","0.0-1.0-28.0","",""
"null","sound/msl/dog.wav","null","audio-keyboard-response","30","27989","0.0-1.0-29.0","",""
"null","sound/msl/ding.wav","null","audio-keyboard-response","31","28510","0.0-1.0-30.0","",""
"null","sound/msl/cat.wav","null","audio-keyboard-response","32","29020","0.0-1.0-31.0","",""
"null","sound/msl/door_bell.wav","null","audio-keyboard-response","33","29529","0.0-1.0-32.0","",""
"null","sound/msl/goat.wav","null","audio-keyboard-response","34","30080","0.0-1.0-33.0","",""
"null","sound/msl/door.wav","null","audio-keyboard-response","35","30590","0.0-1.0-34.0","",""
"null","sound/msl/duck.wav","null","audio-keyboard-response","36","31110","0.0-1.0-35.0","",""
"null","sound/msl/boing.wav","null","audio-keyboard-response","37","31620","0.0-1.0-36.0","",""
"null","sound/msl/clock.wav","null","audio-keyboard-response","38","32180","0.0-1.0-37.0","",""
"null","sound/msl/bird.wav","null","audio-keyboard-response","39","32690","0.0-1.0-38.0","",""
"null","sound/msl/Water.wav","null","audio-keyboard-response","40","33210","0.0-1.0-39.0","",""
"null","sound/msl/frog.wav","null","audio-keyboard-response","41","33720","0.0-1.0-40.0","",""
"null","sound/msl/cow.wav","null","audio-keyboard-response","42","34240","0.0-1.0-41.0","",""
"null","sound/msl/goat.wav","null","audio-keyboard-response","43","34791","0.0-1.0-42.0","",""
"null","sound/msl/door.wav","null","audio-keyboard-response","44","35300","0.0-1.0-43.0","",""
"null","sound/msl/duck.wav","null","audio-keyboard-response","45","35810","0.0-1.0-44.0","",""
"null","sound/msl/ding.wav","null","audio-keyboard-response","46","36320","0.0-1.0-45.0","",""
"null","sound/msl/cat.wav","null","audio-keyboard-response","47","36831","0.0-1.0-46.0","",""
"null","sound/msl/door_bell.wav","null","audio-keyboard-response","48","37351","0.0-1.0-47.0","",""
"null","sound/msl/boing.wav","null","audio-keyboard-response","49","37860","0.0-1.0-48.0","",""
"null","sound/msl/clock.wav","null","audio-keyboard-response","50","38420","0.0-1.0-49.0","",""
"null","sound/msl/bird.wav","null","audio-keyboard-response","51","38931","0.0-1.0-50.0","",""
"null","sound/msl/slide_whistle.wav","null","audio-keyboard-response","52","39441","0.0-1.0-51.0","",""
"null","sound/msl/organ.wav","null","audio-keyboard-response","53","39951","0.0-1.0-52.0","",""
"null","sound/msl/dog.wav","null","audio-keyboard-response","54","40471","0.0-1.0-53.0","",""
"null","sound/msl/ding.wav","null","audio-keyboard-response","55","40991","0.0-1.0-54.0","",""
"null","sound/msl/cat.wav","null","audio-keyboard-response","56","41501","0.0-1.0-55.0","",""
"null","sound/msl/door_bell.wav","null","audio-keyboard-response","57","42011","0.0-1.0-56.0","",""
"null","sound/msl/boing.wav","null","audio-keyboard-response","58","42521","0.0-1.0-57.0","",""
"null","sound/msl/clock.wav","null","audio-keyboard-response","59","43081","0.0-1.0-58.0","",""
"null","sound/msl/bird.wav","null","audio-keyboard-response","60","43602","0.0-1.0-59.0","",""
"null","sound/msl/Water.wav","null","audio-keyboard-response","61","44121","0.0-1.0-60.0","",""
"null","sound/msl/frog.wav","null","audio-keyboard-response","62","44641","0.0-1.0-61.0","",""
"null","sound/msl/cow.wav","null","audio-keyboard-response","63","45161","0.0-1.0-62.0","",""
"null","sound/msl/goat.wav","null","audio-keyboard-response","64","45712","0.0-1.0-63.0","",""
"null","sound/msl/door.wav","null","audio-keyboard-response","65","46221","0.0-1.0-64.0","",""
"null","sound/msl/duck.wav","null","audio-keyboard-response","66","46732","0.0-1.0-65.0","",""
"null","sound/msl/ding.wav","null","audio-keyboard-response","67","47237","0.0-1.0-66.0","",""
"null","sound/msl/cat.wav","null","audio-keyboard-response","68","47747","0.0-1.0-67.0","",""
"null","sound/msl/door_bell.wav","null","audio-keyboard-response","69","48267","0.0-1.0-68.0","",""
"null","sound/msl/slide_whistle.wav","null","audio-keyboard-response","70","48787","0.0-1.0-69.0","",""
"null","sound/msl/organ.wav","null","audio-keyboard-response","71","49297","0.0-1.0-70.0","",""
"null","sound/msl/dog.wav","null","audio-keyboard-response","72","49808","0.0-1.0-71.0","",""
"null","sound/msl/boing.wav","null","audio-keyboard-response","73","50317","0.0-1.0-72.0","",""
"null","sound/msl/clock.wav","null","audio-keyboard-response","74","50877","0.0-1.0-73.0","",""
"null","sound/msl/bird.wav","null","audio-keyboard-response","75","51397","0.0-1.0-74.0","",""
"null","sound/msl/Water.wav","null","audio-keyboard-response","76","51918","0.0-1.0-75.0","",""
"null","sound/msl/frog.wav","null","audio-keyboard-response","77","52437","0.0-1.0-76.0","",""
"null","sound/msl/cow.wav","null","audio-keyboard-response","78","52958","0.0-1.0-77.0","",""
"null","sound/msl/boing.wav","null","audio-keyboard-response","79","53468","0.0-1.0-78.0","",""
"null","sound/msl/clock.wav","null","audio-keyboard-response","80","54028","0.0-1.0-79.0","",""
"null","sound/msl/bird.wav","null","audio-keyboard-response","81","54548","0.0-1.0-80.0","",""
"null","sound/msl/goat.wav","null","audio-keyboard-response","82","55098","0.0-1.0-81.0","",""
"null","sound/msl/door.wav","null","audio-keyboard-response","83","55608","0.0-1.0-82.0","",""
"null","sound/msl/duck.wav","null","audio-keyboard-response","84","56118","0.0-1.0-83.0","",""
"null","sound/msl/slide_whistle.wav","null","audio-keyboard-response","85","56638","0.0-1.0-84.0","",""
"null","sound/msl/organ.wav","null","audio-keyboard-response","86","57148","0.0-1.0-85.0","",""
"null","sound/msl/dog.wav","null","audio-keyboard-response","87","57668","0.0-1.0-86.0","",""
"null","sound/msl/ding.wav","null","audio-keyboard-response","88","58188","0.0-1.0-87.0","",""
"null","sound/msl/cat.wav","null","audio-keyboard-response","89","58698","0.0-1.0-88.0","",""
"null","sound/msl/door_bell.wav","null","audio-keyboard-response","90","59208","0.0-1.0-89.0","",""
"null","sound/msl/goat.wav","null","audio-keyboard-response","91","59758","0.0-1.0-90.0","",""
"null","sound/msl/door.wav","null","audio-keyboard-response","92","60269","0.0-1.0-91.0","",""
"null","sound/msl/duck.wav","null","audio-keyboard-response","93","60788","0.0-1.0-92.0","",""
"null","sound/msl/Water.wav","null","audio-keyboard-response","94","61308","0.0-1.0-93.0","",""
"null","sound/msl/frog.wav","null","audio-keyboard-response","95","61829","0.0-1.0-94.0","",""
"null","sound/msl/cow.wav","null","audio-keyboard-response","96","62349","0.0-1.0-95.0","",""
"null","sound/msl/boing.wav","null","audio-keyboard-response","97","62859","0.0-1.0-96.0","",""
"null","sound/msl/clock.wav","null","audio-keyboard-response","98","63419","0.0-1.0-97.0","",""
"null","sound/msl/bird.wav","null","audio-keyboard-response","99","63929","0.0-1.0-98.0","",""
"null","sound/msl/ding.wav","null","audio-keyboard-response","100","64439","0.0-1.0-99.0","",""
"null","sound/msl/cat.wav","null","audio-keyboard-response","101","64949","0.0-1.0-100.0","",""
"null","sound/msl/door_bell.wav","null","audio-keyboard-response","102","65469","0.0-1.0-101.0","",""
"null","sound/msl/goat.wav","null","audio-keyboard-response","103","66020","0.0-1.0-102.0","",""
"null","sound/msl/door.wav","null","audio-keyboard-response","104","66530","0.0-1.0-103.0","",""
"null","sound/msl/duck.wav","null","audio-keyboard-response","105","67039","0.0-1.0-104.0","",""
"null","sound/msl/slide_whistle.wav","null","audio-keyboard-response","106","67560","0.0-1.0-105.0","",""
"null","sound/msl/organ.wav","null","audio-keyboard-response","107","68070","0.0-1.0-106.0","",""
"null","sound/msl/dog.wav","null","audio-keyboard-response","108","68590","0.0-1.0-107.0","",""
"null","sound/msl/ding.wav","null","audio-keyboard-response","109","69110","0.0-1.0-108.0","",""
"null","sound/msl/cat.wav","null","audio-keyboard-response","110","69620","0.0-1.0-109.0","",""
"null","sound/msl/door_bell.wav","null","audio-keyboard-response","111","70129","0.0-1.0-110.0","",""
"null","sound/msl/Water.wav","null","audio-keyboard-response","112","70650","0.0-1.0-111.0","",""
"null","sound/msl/frog.wav","null","audio-keyboard-response","113","71160","0.0-1.0-112.0","",""
"null","sound/msl/cow.wav","null","audio-keyboard-response","114","71680","0.0-1.0-113.0","",""
"null","sound/msl/goat.wav","null","audio-keyboard-response","115","72230","0.0-1.0-114.0","",""
"null","sound/msl/door.wav","null","audio-keyboard-response","116","72740","0.0-1.0-115.0","",""
"null","sound/msl/duck.wav","null","audio-keyboard-response","117","73250","0.0-1.0-116.0","",""
"null","sound/msl/boing.wav","null","audio-keyboard-response","118","73760","0.0-1.0-117.0","",""
"null","sound/msl/clock.wav","null","audio-keyboard-response","119","74320","0.0-1.0-118.0","",""
"null","sound/msl/bird.wav","null","audio-keyboard-response","120","74840","0.0-1.0-119.0","",""
"null","sound/msl/slide_whistle.wav","null","audio-keyboard-response","121","75361","0.0-1.0-120.0","",""
"null","sound/msl/organ.wav","null","audio-keyboard-response","122","75870","0.0-1.0-121.0","",""
"null","sound/msl/dog.wav","null","audio-keyboard-response","123","76391","0.0-1.0-122.0","",""
"null","sound/msl/ding.wav","null","audio-keyboard-response","124","76910","0.0-1.0-123.0","",""
"null","sound/msl/cat.wav","null","audio-keyboard-response","125","77420","0.0-1.0-124.0","",""
"null","sound/msl/door_bell.wav","null","audio-keyboard-response","126","77930","0.0-1.0-125.0","",""
"null","sound/msl/goat.wav","null","audio-keyboard-response","127","78480","0.0-1.0-126.0","",""
"null","sound/msl/door.wav","null","audio-keyboard-response","128","78991","0.0-1.0-127.0","",""
"null","sound/msl/duck.wav","null","audio-keyboard-response","129","79511","0.0-1.0-128.0","",""
"null","sound/msl/Water.wav","null","audio-keyboard-response","130","80031","0.0-1.0-129.0","",""
"null","sound/msl/frog.wav","null","audio-keyboard-response","131","80551","0.0-1.0-130.0","",""
"null","sound/msl/cow.wav","null","audio-keyboard-response","132","81071","0.0-1.0-131.0","",""
"null","sound/msl/ding.wav","null","audio-keyboard-response","133","81591","0.0-1.0-132.0","",""
"null","sound/msl/cat.wav","null","audio-keyboard-response","134","82102","0.0-1.0-133.0","",""
"null","sound/msl/door_bell.wav","null","audio-keyboard-response","135","82611","0.0-1.0-134.0","",""
"null","sound/msl/boing.wav","null","audio-keyboard-response","136","83122","0.0-1.0-135.0","",""
"null","sound/msl/clock.wav","null","audio-keyboard-response","137","83682","0.0-1.0-136.0","",""
"null","sound/msl/bird.wav","null","audio-keyboard-response","138","84202","0.0-1.0-137.0","",""
"null","sound/msl/Water.wav","null","audio-keyboard-response","139","84722","0.0-1.0-138.0","",""
"null","sound/msl/frog.wav","null","audio-keyboard-response","140","85242","0.0-1.0-139.0","",""
"null","sound/msl/cow.wav","null","audio-keyboard-response","141","85762","0.0-1.0-140.0","",""
"null","sound/msl/slide_whistle.wav","null","audio-keyboard-response","142","86282","0.0-1.0-141.0","",""
"null","sound/msl/organ.wav","null","audio-keyboard-response","143","86792","0.0-1.0-142.0","",""
"null","sound/msl/dog.wav","null","audio-keyboard-response","144","87312","0.0-1.0-143.0","",""
"null","sound/msl/goat.wav","null","audio-keyboard-response","145","87857","0.0-1.0-144.0","",""
"null","sound/msl/door.wav","null","audio-keyboard-response","146","88367","0.0-1.0-145.0","",""
"null","sound/msl/duck.wav","null","audio-keyboard-response","147","88878","0.0-1.0-146.0","",""
"null","sound/msl/boing.wav","null","audio-keyboard-response","148","89388","0.0-1.0-147.0","",""
"null","sound/msl/clock.wav","null","audio-keyboard-response","149","89947","0.0-1.0-148.0","",""
"null","sound/msl/bird.wav","null","audio-keyboard-response","150","90467","0.0-1.0-149.0","",""
"null","sound/msl/slide_whistle.wav","null","audio-keyboard-response","151","90987","0.0-1.0-150.0","",""
"null","sound/msl/organ.wav","null","audio-keyboard-response","152","91498","0.0-1.0-151.0","",""
"null","sound/msl/dog.wav","null","audio-keyboard-response","153","92007","0.0-1.0-152.0","",""
"null","sound/msl/ding.wav","null","audio-keyboard-response","154","92517","0.0-1.0-153.0","",""
"null","sound/msl/cat.wav","null","audio-keyboard-response","155","93027","0.0-1.0-154.0","",""
"null","sound/msl/door_bell.wav","null","audio-keyboard-response","156","93548","0.0-1.0-155.0","",""
"null","sound/msl/Water.wav","null","audio-keyboard-response","157","94068","0.0-1.0-156.0","",""
"null","sound/msl/frog.wav","null","audio-keyboard-response","158","94588","0.0-1.0-157.0","",""
"null","sound/msl/cow.wav","null","audio-keyboard-response","159","95108","0.0-1.0-158.0","",""
"null","sound/msl/goat.wav","null","audio-keyboard-response","160","95658","0.0-1.0-159.0","",""
"null","sound/msl/door.wav","null","audio-keyboard-response","161","96168","0.0-1.0-160.0","",""
"null","sound/msl/duck.wav","null","audio-keyboard-response","162","96678","0.0-1.0-161.0","",""
"null","sound/msl/ding.wav","null","audio-keyboard-response","163","97198","0.0-1.0-162.0","",""
"null","sound/msl/cat.wav","null","audio-keyboard-response","164","97708","0.0-1.0-163.0","",""
"null","sound/msl/door_bell.wav","null","audio-keyboard-response","165","98229","0.0-1.0-164.0","",""
"null","sound/msl/Water.wav","null","audio-keyboard-response","166","98748","0.0-1.0-165.0","",""
"null","sound/msl/frog.wav","null","audio-keyboard-response","167","99269","0.0-1.0-166.0","",""
"null","sound/msl/cow.wav","null","audio-keyboard-response","168","99788","0.0-1.0-167.0","",""
"null","sound/msl/slide_whistle.wav","null","audio-keyboard-response","169","100308","0.0-1.0-168.0","",""
"null","sound/msl/organ.wav","null","audio-keyboard-response","170","100818","0.0-1.0-169.0","",""
"null","sound/msl/dog.wav","null","audio-keyboard-response","171","101329","0.0-1.0-170.0","",""
"null","sound/msl/boing.wav","null","audio-keyboard-response","172","101839","0.0-1.0-171.0","",""
"null","sound/msl/clock.wav","null","audio-keyboard-response","173","102399","0.0-1.0-172.0","",""
"null","sound/msl/bird.wav","null","audio-keyboard-response","174","102919","0.0-1.0-173.0","",""
"null","sound/msl/goat.wav","null","audio-keyboard-response","175","103469","0.0-1.0-174.0","",""
"null","sound/msl/door.wav","null","audio-keyboard-response","176","103979","0.0-1.0-175.0","",""
"null","sound/msl/duck.wav","null","audio-keyboard-response","177","104489","0.0-1.0-176.0","",""
"null","sound/msl/ding.wav","null","audio-keyboard-response","178","105000","0.0-1.0-177.0","",""
"null","sound/msl/cat.wav","null","audio-keyboard-response","179","105510","0.0-1.0-178.0","",""
"null","sound/msl/door_bell.wav","null","audio-keyboard-response","180","106029","0.0-1.0-179.0","",""
"null","sound/msl/boing.wav","null","audio-keyboard-response","181","106539","0.0-1.0-180.0","",""
"null","sound/msl/clock.wav","null","audio-keyboard-response","182","107100","0.0-1.0-181.0","",""
"null","sound/msl/bird.wav","null","audio-keyboard-response","183","107609","0.0-1.0-182.0","",""
"null","sound/msl/Water.wav","null","audio-keyboard-response","184","108129","0.0-1.0-183.0","",""
"null","sound/msl/frog.wav","null","audio-keyboard-response","185","108639","0.0-1.0-184.0","",""
"null","sound/msl/cow.wav","null","audio-keyboard-response","186","109160","0.0-1.0-185.0","",""
"null","sound/msl/slide_whistle.wav","null","audio-keyboard-response","187","109679","0.0-1.0-186.0","",""
"null","sound/msl/organ.wav","null","audio-keyboard-response","188","110190","0.0-1.0-187.0","",""
"null","sound/msl/dog.wav","null","audio-keyboard-response","189","110710","0.0-1.0-188.0","",""
"null","sound/msl/goat.wav","null","audio-keyboard-response","190","111260","0.0-1.0-189.0","",""
"null","sound/msl/door.wav","null","audio-keyboard-response","191","111770","0.0-1.0-190.0","",""
"null","sound/msl/duck.wav","null","audio-keyboard-response","192","112280","0.0-1.0-191.0","",""
"null","sound/msl/ding.wav","null","audio-keyboard-response","193","112800","0.0-1.0-192.0","",""
"null","sound/msl/cat.wav","null","audio-keyboard-response","194","113310","0.0-1.0-193.0","",""
"null","sound/msl/door_bell.wav","null","audio-keyboard-response","195","113830","0.0-1.0-194.0","",""
"null","sound/msl/boing.wav","null","audio-keyboard-response","196","114340","0.0-1.0-195.0","",""
"null","sound/msl/clock.wav","null","audio-keyboard-response","197","114900","0.0-1.0-196.0","",""
"null","sound/msl/bird.wav","null","audio-keyboard-response","198","115411","0.0-1.0-197.0","",""
"null","sound/msl/slide_whistle.wav","null","audio-keyboard-response","199","115921","0.0-1.0-198.0","",""
"null","sound/msl/organ.wav","null","audio-keyboard-response","200","116430","0.0-1.0-199.0","",""
"null","sound/msl/dog.wav","null","audio-keyboard-response","201","116951","0.0-1.0-200.0","",""
"null","sound/msl/Water.wav","null","audio-keyboard-response","202","117471","0.0-1.0-201.0","",""
"null","sound/msl/frog.wav","null","audio-keyboard-response","203","117991","0.0-1.0-202.0","",""
"null","sound/msl/cow.wav","null","audio-keyboard-response","204","118511","0.0-1.0-203.0","",""
"null","sound/msl/goat.wav","null","audio-keyboard-response","205","119062","0.0-1.0-204.0","",""
"null","sound/msl/door.wav","null","audio-keyboard-response","206","119571","0.0-1.0-205.0","",""
"null","sound/msl/duck.wav","null","audio-keyboard-response","207","120081","0.0-1.0-206.0","",""
"null","sound/msl/ding.wav","null","audio-keyboard-response","208","120601","0.0-1.0-207.0","",""
"null","sound/msl/cat.wav","null","audio-keyboard-response","209","121112","0.0-1.0-208.0","",""
"null","sound/msl/door_bell.wav","null","audio-keyboard-response","210","121631","0.0-1.0-209.0","",""
"null","sound/msl/slide_whistle.wav","null","audio-keyboard-response","211","122151","0.0-1.0-210.0","",""
"null","sound/msl/organ.wav","null","audio-keyboard-response","212","122662","0.0-1.0-211.0","",""
"null","sound/msl/dog.wav","null","audio-keyboard-response","213","123171","0.0-1.0-212.0","",""
"null","sound/msl/goat.wav","null","audio-keyboard-response","214","123722","0.0-1.0-213.0","",""
"null","sound/msl/door.wav","null","audio-keyboard-response","215","124232","0.0-1.0-214.0","",""
"null","sound/msl/duck.wav","null","audio-keyboard-response","216","124751","0.0-1.0-215.0","",""
"null","sound/msl/boing.wav","null","audio-keyboard-response","217","125262","0.0-1.0-216.0","",""
"null","sound/msl/clock.wav","null","audio-keyboard-response","218","125822","0.0-1.0-217.0","",""
"null","sound/msl/bird.wav","null","audio-keyboard-response","219","126332","0.0-1.0-218.0","",""
"null","sound/msl/Water.wav","null","audio-keyboard-response","220","126852","0.0-1.0-219.0","",""
"null","sound/msl/frog.wav","null","audio-keyboard-response","221","127362","0.0-1.0-220.0","",""
"null","sound/msl/cow.wav","null","audio-keyboard-response","222","127883","0.0-1.0-221.0","",""
"null","sound/msl/ding.wav","null","audio-keyboard-response","223","128403","0.0-1.0-222.0","",""
"null","sound/msl/cat.wav","null","audio-keyboard-response","224","128908","0.0-1.0-223.0","",""
"null","sound/msl/door_bell.wav","null","audio-keyboard-response","225","129428","0.0-1.0-224.0","",""
"null","sound/msl/boing.wav","null","audio-keyboard-response","226","129938","0.0-1.0-225.0","",""
"null","sound/msl/clock.wav","null","audio-keyboard-response","227","130498","0.0-1.0-226.0","",""
"null","sound/msl/bird.wav","null","audio-keyboard-response","228","131008","0.0-1.0-227.0","",""
"null","sound/msl/goat.wav","null","audio-keyboard-response","229","131558","0.0-1.0-228.0","",""
"null","sound/msl/door.wav","null","audio-keyboard-response","230","132068","0.0-1.0-229.0","",""
"null","sound/msl/duck.wav","null","audio-keyboard-response","231","132588","0.0-1.0-230.0","",""
"null","sound/msl/boing.wav","null","audio-keyboard-response","232","133097","0.0-1.0-231.0","",""
"null","sound/msl/clock.wav","null","audio-keyboard-response","233","133658","0.0-1.0-232.0","",""
"null","sound/msl/bird.wav","null","audio-keyboard-response","234","134168","0.0-1.0-233.0","",""
"null","sound/msl/ding.wav","null","audio-keyboard-response","235","134678","0.0-1.0-234.0","",""
"null","sound/msl/cat.wav","null","audio-keyboard-response","236","135188","0.0-1.0-235.0","",""
"null","sound/msl/door_bell.wav","null","audio-keyboard-response","237","135709","0.0-1.0-236.0","",""
"null","sound/msl/Water.wav","null","audio-keyboard-response","238","136228","0.0-1.0-237.0","",""
"null","sound/msl/frog.wav","null","audio-keyboard-response","239","136748","0.0-1.0-238.0","",""
"null","sound/msl/cow.wav","null","audio-keyboard-response","240","137269","0.0-1.0-239.0","",""
"null","sound/msl/slide_whistle.wav","null","audio-keyboard-response","241","137788","0.0-1.0-240.0","",""
"null","sound/msl/organ.wav","null","audio-keyboard-response","242","138298","0.0-1.0-241.0","",""
"null","sound/msl/dog.wav","null","audio-keyboard-response","243","138808","0.0-1.0-242.0","",""
"null","sound/msl/goat.wav","null","audio-keyboard-response","244","139358","0.0-1.0-243.0","",""
"null","sound/msl/door.wav","null","audio-keyboard-response","245","139868","0.0-1.0-244.0","",""
"null","sound/msl/duck.wav","null","audio-keyboard-response","246","140389","0.0-1.0-245.0","",""
"null","sound/msl/ding.wav","null","audio-keyboard-response","247","140909","0.0-1.0-246.0","",""
"null","sound/msl/cat.wav","null","audio-keyboard-response","248","141419","0.0-1.0-247.0","",""
"null","sound/msl/door_bell.wav","null","audio-keyboard-response","249","141929","0.0-1.0-248.0","",""
"null","sound/msl/Water.wav","null","audio-keyboard-response","250","142450","0.0-1.0-249.0","",""
"null","sound/msl/frog.wav","null","audio-keyboard-response","251","142959","0.0-1.0-250.0","",""
"null","sound/msl/cow.wav","null","audio-keyboard-response","252","143479","0.0-1.0-251.0","",""
"null","sound/msl/slide_whistle.wav","null","audio-keyboard-response","253","144000","0.0-1.0-252.0","",""
"null","sound/msl/organ.wav","null","audio-keyboard-response","254","144509","0.0-1.0-253.0","",""
"null","sound/msl/dog.wav","null","audio-keyboard-response","255","145029","0.0-1.0-254.0","",""
"null","sound/msl/boing.wav","null","audio-keyboard-response","256","145540","0.0-1.0-255.0","",""
"null","sound/msl/clock.wav","null","audio-keyboard-response","257","146099","0.0-1.0-256.0","",""
"null","sound/msl/bird.wav","null","audio-keyboard-response","258","146609","0.0-1.0-257.0","",""
"null","sound/msl/goat.wav","null","audio-keyboard-response","259","147160","0.0-1.0-258.0","",""
"null","sound/msl/door.wav","null","audio-keyboard-response","260","147670","0.0-1.0-259.0","",""
"null","sound/msl/duck.wav","null","audio-keyboard-response","261","148190","0.0-1.0-260.0","",""
"null","sound/msl/slide_whistle.wav","null","audio-keyboard-response","262","148710","0.0-1.0-261.0","",""
"null","sound/msl/organ.wav","null","audio-keyboard-response","263","149220","0.0-1.0-262.0","",""
"null","sound/msl/dog.wav","null","audio-keyboard-response","264","149730","0.0-1.0-263.0","",""
"null","sound/msl/Water.wav","null","audio-keyboard-response","265","150250","0.0-1.0-264.0","",""
"null","sound/msl/frog.wav","null","audio-keyboard-response","266","150760","0.0-1.0-265.0","",""
"null","sound/msl/cow.wav","null","audio-keyboard-response","267","151280","0.0-1.0-266.0","",""
"null","sound/msl/boing.wav","null","audio-keyboard-response","268","151790","0.0-1.0-267.0","",""
"null","sound/msl/clock.wav","null","audio-keyboard-response","269","152350","0.0-1.0-268.0","",""
"null","sound/msl/bird.wav","null","audio-keyboard-response","270","152870","0.0-1.0-269.0","",""
"null","sound/msl/ding.wav","null","audio-keyboard-response","271","153390","0.0-1.0-270.0","",""
"null","sound/msl/cat.wav","null","audio-keyboard-response","272","153901","0.0-1.0-271.0","",""
"null","sound/msl/door_bell.wav","null","audio-keyboard-response","273","154410","0.0-1.0-272.0","",""
"null","sound/msl/goat.wav","null","audio-keyboard-response","274","154961","0.0-1.0-273.0","",""
"null","sound/msl/door.wav","null","audio-keyboard-response","275","155471","0.0-1.0-274.0","",""
"null","sound/msl/duck.wav","null","audio-keyboard-response","276","155991","0.0-1.0-275.0","",""
"null","sound/msl/slide_whistle.wav","null","audio-keyboard-response","277","156511","0.0-1.0-276.0","",""
"null","sound/msl/organ.wav","null","audio-keyboard-response","278","157021","0.0-1.0-277.0","",""
"null","sound/msl/dog.wav","null","audio-keyboard-response","279","157531","0.0-1.0-278.0","",""
"null","sound/msl/Water.wav","null","audio-keyboard-response","280","158051","0.0-1.0-279.0","",""
"null","sound/msl/frog.wav","null","audio-keyboard-response","281","158560","0.0-1.0-280.0","",""
"null","sound/msl/cow.wav","null","audio-keyboard-response","282","159081","0.0-1.0-281.0","",""
"null","sound/msl/ding.wav","null","audio-keyboard-response","283","159601","0.0-1.0-282.0","",""
"null","sound/msl/cat.wav","null","audio-keyboard-response","284","160112","0.0-1.0-283.0","",""
"null","sound/msl/door_bell.wav","null","audio-keyboard-response","285","160631","0.0-1.0-284.0","",""
"null","sound/msl/boing.wav","null","audio-keyboard-response","286","161141","0.0-1.0-285.0","",""
"null","sound/msl/clock.wav","null","audio-keyboard-response","287","161701","0.0-1.0-286.0","",""
"null","sound/msl/bird.wav","null","audio-keyboard-response","288","162211","0.0-1.0-287.0","",""
"null","sound/msl/goat.wav","null","audio-keyboard-response","289","162762","0.0-1.0-288.0","",""
"null","sound/msl/door.wav","null","audio-keyboard-response","290","163271","0.0-1.0-289.0","",""
"null","sound/msl/duck.wav","null","audio-keyboard-response","291","163792","0.0-1.0-290.0","",""
"null","sound/msl/Water.wav","null","audio-keyboard-response","292","164312","0.0-1.0-291.0","",""
"null","sound/msl/frog.wav","null","audio-keyboard-response","293","164832","0.0-1.0-292.0","",""
"null","sound/msl/cow.wav","null","audio-keyboard-response","294","165352","0.0-1.0-293.0","",""
"null","sound/msl/slide_whistle.wav","null","audio-keyboard-response","295","165872","0.0-1.0-294.0","",""
"null","sound/msl/organ.wav","null","audio-keyboard-response","296","166382","0.0-1.0-295.0","",""
"null","sound/msl/dog.wav","null","audio-keyboard-response","297","166892","0.0-1.0-296.0","",""
"null","sound/msl/goat.wav","null","audio-keyboard-response","298","167442","0.0-1.0-297.0","",""
"null","sound/msl/door.wav","null","audio-keyboard-response","299","167952","0.0-1.0-298.0","",""
"null","sound/msl/duck.wav","null","audio-keyboard-response","300","168472","0.0-1.0-299.0","",""
"null","sound/msl/ding.wav","null","audio-keyboard-response","301","168987","0.0-1.0-300.0","",""
"null","sound/msl/cat.wav","null","audio-keyboard-response","302","169498","0.0-1.0-301.0","",""
"null","sound/msl/door_bell.wav","null","audio-keyboard-response","303","170007","0.0-1.0-302.0","",""
"null","sound/msl/Water.wav","null","audio-keyboard-response","304","170528","0.0-1.0-303.0","",""
"null","sound/msl/frog.wav","null","audio-keyboard-response","305","171037","0.0-1.0-304.0","",""
"null","sound/msl/cow.wav","null","audio-keyboard-response","306","171558","0.0-1.0-305.0","",""
"null","sound/msl/boing.wav","null","audio-keyboard-response","307","172068","0.0-1.0-306.0","",""
"null","sound/msl/clock.wav","null","audio-keyboard-response","308","172628","0.0-1.0-307.0","",""
"null","sound/msl/bird.wav","null","audio-keyboard-response","309","173148","0.0-1.0-308.0","",""
"null","sound/msl/slide_whistle.wav","null","audio-keyboard-response","310","173668","0.0-1.0-309.0","",""
"null","sound/msl/organ.wav","null","audio-keyboard-response","311","174178","0.0-1.0-310.0","",""
"null","sound/msl/dog.wav","null","audio-keyboard-response","312","174688","0.0-1.0-311.0","",""
"null","sound/msl/goat.wav","null","audio-keyboard-response","313","175238","0.0-1.0-312.0","",""
"null","sound/msl/door.wav","null","audio-keyboard-response","314","175748","0.0-1.0-313.0","",""
"null","sound/msl/duck.wav","null","audio-keyboard-response","315","176268","0.0-1.0-314.0","",""
"null","sound/msl/ding.wav","null","audio-keyboard-response","316","176788","0.0-1.0-315.0","",""
"null","sound/msl/cat.wav","null","audio-keyboard-response","317","177299","0.0-1.0-316.0","",""
"null","sound/msl/door_bell.wav","null","audio-keyboard-response","318","177808","0.0-1.0-317.0","",""
"null","sound/msl/Water.wav","null","audio-keyboard-response","319","178328","0.0-1.0-318.0","",""
"null","sound/msl/frog.wav","null","audio-keyboard-response","320","178839","0.0-1.0-319.0","",""
"null","sound/msl/cow.wav","null","audio-keyboard-response","321","179359","0.0-1.0-320.0","",""
"null","sound/msl/slide_whistle.wav","null","audio-keyboard-response","322","179879","0.0-1.0-321.0","",""
"null","sound/msl/organ.wav","null","audio-keyboard-response","323","180389","0.0-1.0-322.0","",""
"null","sound/msl/dog.wav","null","audio-keyboard-response","324","180908","0.0-1.0-323.0","",""
"null","sound/msl/ding.wav","null","audio-keyboard-response","325","181429","0.0-1.0-324.0","",""
"null","sound/msl/cat.wav","null","audio-keyboard-response","326","181939","0.0-1.0-325.0","",""
"null","sound/msl/door_bell.wav","null","audio-keyboard-response","327","182449","0.0-1.0-326.0","",""
"null","sound/msl/boing.wav","null","audio-keyboard-response","328","182959","0.0-1.0-327.0","",""
"null","sound/msl/clock.wav","null","audio-keyboard-response","329","183519","0.0-1.0-328.0","",""
"null","sound/msl/bird.wav","null","audio-keyboard-response","330","184039","0.0-1.0-329.0","",""
"null","sound/msl/goat.wav","null","audio-keyboard-response","331","184590","0.0-1.0-330.0","",""
"null","sound/msl/door.wav","null","audio-keyboard-response","332","185099","0.0-1.0-331.0","",""
"null","sound/msl/duck.wav","null","audio-keyboard-response","333","185610","0.0-1.0-332.0","",""
"null","sound/msl/Water.wav","null","audio-keyboard-response","334","186129","0.0-1.0-333.0","",""
"null","sound/msl/frog.wav","null","audio-keyboard-response","335","186639","0.0-1.0-334.0","",""
"null","sound/msl/cow.wav","null","audio-keyboard-response","336","187160","0.0-1.0-335.0","",""
"null","sound/msl/boing.wav","null","audio-keyboard-response","337","187670","0.0-1.0-336.0","",""
"null","sound/msl/clock.wav","null","audio-keyboard-response","338","188230","0.0-1.0-337.0","",""
"null","sound/msl/bird.wav","null","audio-keyboard-response","339","188750","0.0-1.0-338.0","",""
"null","sound/msl/slide_whistle.wav","null","audio-keyboard-response","340","189270","0.0-1.0-339.0","",""
"null","sound/msl/organ.wav","null","audio-keyboard-response","341","189780","0.0-1.0-340.0","",""
"null","sound/msl/dog.wav","null","audio-keyboard-response","342","190290","0.0-1.0-341.0","",""
"null","sound/msl/Water.wav","null","audio-keyboard-response","343","190810","0.0-1.0-342.0","",""
"null","sound/msl/frog.wav","null","audio-keyboard-response","344","191320","0.0-1.0-343.0","",""
"null","sound/msl/cow.wav","null","audio-keyboard-response","345","191840","0.0-1.0-344.0","",""
"null","sound/msl/slide_whistle.wav","null","audio-keyboard-response","346","192361","0.0-1.0-345.0","",""
"null","sound/msl/organ.wav","null","audio-keyboard-response","347","192871","0.0-1.0-346.0","",""
"null","sound/msl/dog.wav","null","audio-keyboard-response","348","193391","0.0-1.0-347.0","",""
"null","sound/msl/boing.wav","null","audio-keyboard-response","349","193900","0.0-1.0-348.0","",""
"null","sound/msl/clock.wav","null","audio-keyboard-response","350","194461","0.0-1.0-349.0","",""
"null","sound/msl/bird.wav","null","audio-keyboard-response","351","195014","0.0-1.0-350.0","",""
"null","sound/msl/goat.wav","null","audio-keyboard-response","352","195561","0.0-1.0-351.0","",""
"null","sound/msl/door.wav","null","audio-keyboard-response","353","196071","0.0-1.0-352.0","",""
"null","sound/msl/duck.wav","null","audio-keyboard-response","354","196591","0.0-1.0-353.0","",""
"null","sound/msl/Water.wav","null","audio-keyboard-response","355","197111","0.0-1.0-354.0","",""
"null","sound/msl/frog.wav","null","audio-keyboard-response","356","197631","0.0-1.0-355.0","",""
"null","sound/msl/cow.wav","null","audio-keyboard-response","357","198152","0.0-1.0-356.0","",""
"null","sound/msl/slide_whistle.wav","null","audio-keyboard-response","358","198672","0.0-1.0-357.0","",""
"null","sound/msl/organ.wav","null","audio-keyboard-response","359","199182","0.0-1.0-358.0","",""
"null","sound/msl/dog.wav","null","audio-keyboard-response","360","199691","0.0-1.0-359.0","",""
"9265","Instructions2-eng.png","49","image-keyboard-response","361","208958","0.0-2.0","",""
"null","sound/msl/boing.wav","null","audio-keyboard-response","362","209463","0.0-3.0-0.0","",""
"null","sound/msl/frog.wav","null","audio-keyboard-response","363","209973","0.0-3.0-1.0","",""
"null","sound/msl/duck.wav","null","audio-keyboard-response","364","210478","0.0-3.0-2.0","",""
"null","sound/asl/silence.wav","null","audio-keyboard-response","365","210979","0.0-3.0-3.0","",""
"null","sound/msl/Water.wav","null","audio-keyboard-response","366","211498","0.0-3.0-4.0","",""
"null","sound/msl/frog.wav","null","audio-keyboard-response","367","212008","0.0-3.0-5.0","",""
"null","sound/msl/cow.wav","null","audio-keyboard-response","368","212518","0.0-3.0-6.0","",""
"4379","sound/asl/silence.wav","49","audio-keyboard-response","369","216908","0.0-3.0-7.0","false",""
"null","sound/msl/Water.wav","null","audio-keyboard-response","370","217419","0.0-4.0-0.0","",""
"null","sound/msl/door.wav","null","audio-keyboard-response","371","217928","0.0-4.0-1.0","",""
"null","sound/msl/dog.wav","null","audio-keyboard-response","372","218439","0.0-4.0-2.0","",""
"null","sound/asl/silence.wav","null","audio-keyboard-response","373","218940","0.0-4.0-3.0","",""
"null","sound/msl/ding.wav","null","audio-keyboard-response","374","219448","0.0-4.0-4.0","",""
"null","sound/msl/cat.wav","null","audio-keyboard-response","375","219959","0.0-4.0-5.0","",""
"null","sound/msl/door_bell.wav","null","audio-keyboard-response","376","220479","0.0-4.0-6.0","",""
"2179","sound/asl/silence.wav","50","audio-keyboard-response","377","222660","0.0-4.0-7.0","true",""
"null","sound/msl/slide_whistle.wav","null","audio-keyboard-response","378","223170","0.0-5.0-0.0","",""
"null","sound/msl/cat.wav","null","audio-keyboard-response","379","223679","0.0-5.0-1.0","",""
"null","sound/msl/bird.wav","null","audio-keyboard-response","380","224200","0.0-5.0-2.0","",""
"null","sound/asl/silence.wav","null","audio-keyboard-response","381","224701","0.0-5.0-3.0","",""
"null","sound/msl/slide_whistle.wav","null","audio-keyboard-response","382","225210","0.0-5.0-4.0","",""
"null","sound/msl/organ.wav","null","audio-keyboard-response","383","225720","0.0-5.0-5.0","",""
"null","sound/msl/dog.wav","null","audio-keyboard-response","384","226240","0.0-5.0-6.0","",""
"2989","sound/asl/silence.wav","50","audio-keyboard-response","385","229240","0.0-5.0-7.0","true",""
"null","sound/msl/slide_whistle.wav","null","audio-keyboard-response","386","229760","0.0-6.0-0.0","",""
"null","sound/msl/organ.wav","null","audio-keyboard-response","387","230270","0.0-6.0-1.0","",""
"null","sound/msl/dog.wav","null","audio-keyboard-response","388","230790","0.0-6.0-2.0","",""
"null","sound/asl/silence.wav","null","audio-keyboard-response","389","231292","0.0-6.0-3.0","",""
"null","sound/msl/Water.wav","null","audio-keyboard-response","390","231811","0.0-6.0-4.0","",""
"null","sound/msl/door.wav","null","audio-keyboard-response","391","232320","0.0-6.0-5.0","",""
"null","sound/msl/dog.wav","null","audio-keyboard-response","392","232840","0.0-6.0-6.0","",""
"3709","sound/asl/silence.wav","50","audio-keyboard-response","393","236555","0.0-6.0-7.0","false",""
"null","sound/msl/ding.wav","null","audio-keyboard-response","394","237071","0.0-7.0-0.0","",""
"null","sound/msl/cat.wav","null","audio-keyboard-response","395","237582","0.0-7.0-1.0","",""
"null","sound/msl/door_bell.wav","null","audio-keyboard-response","396","238092","0.0-7.0-2.0","",""
"null","sound/asl/silence.wav","null","audio-keyboard-response","397","238592","0.0-7.0-3.0","",""
"null","sound/msl/slide_whistle.wav","null","audio-keyboard-response","398","239111","0.0-7.0-4.0","",""
"null","sound/msl/cat.wav","null","audio-keyboard-response","399","239621","0.0-7.0-5.0","",""
"null","sound/msl/bird.wav","null","audio-keyboard-response","400","240132","0.0-7.0-6.0","",""
"440","sound/asl/silence.wav","49","audio-keyboard-response","401","240581","0.0-7.0-7.0","true",""
"null","sound/msl/goat.wav","null","audio-keyboard-response","402","241132","0.0-8.0-0.0","",""
"null","sound/msl/door.wav","null","audio-keyboard-response","403","241642","0.0-8.0-1.0","",""
"null","sound/msl/duck.wav","null","audio-keyboard-response","404","242162","0.0-8.0-2.0","",""
"null","sound/asl/silence.wav","null","audio-keyboard-response","405","242662","0.0-8.0-3.0","",""
"null","sound/msl/ding.wav","null","audio-keyboard-response","406","243172","0.0-8.0-4.0","",""
"null","sound/msl/clock.wav","null","audio-keyboard-response","407","243732","0.0-8.0-5.0","",""
"null","sound/msl/cow.wav","null","audio-keyboard-response","408","244242","0.0-8.0-6.0","",""
"389","sound/asl/silence.wav","49","audio-keyboard-response","409","244640","0.0-8.0-7.0","true",""
"null","sound/msl/ding.wav","null","audio-keyboard-response","410","245152","0.0-9.0-0.0","",""
"null","sound/msl/clock.wav","null","audio-keyboard-response","411","245712","0.0-9.0-1.0","",""
"null","sound/msl/cow.wav","null","audio-keyboard-response","412","246232","0.0-9.0-2.0","",""
"null","sound/asl/silence.wav","null","audio-keyboard-response","413","246733","0.0-9.0-3.0","",""
"null","sound/msl/boing.wav","null","audio-keyboard-response","414","247242","0.0-9.0-4.0","",""
"null","sound/msl/clock.wav","null","audio-keyboard-response","415","247802","0.0-9.0-5.0","",""
"null","sound/msl/bird.wav","null","audio-keyboard-response","416","248322","0.0-9.0-6.0","",""
"2699","sound/asl/silence.wav","50","audio-keyboard-response","417","251021","0.0-9.0-7.0","true",""
"null","sound/msl/Water.wav","null","audio-keyboard-response","418","251538","0.0-10.0-0.0","",""
"null","sound/msl/frog.wav","null","audio-keyboard-response","419","252048","0.0-10.0-1.0","",""
"null","sound/msl/cow.wav","null","audio-keyboard-response","420","252558","0.0-10.0-2.0","",""
"null","sound/asl/silence.wav","null","audio-keyboard-response","421","253059","0.0-10.0-3.0","",""
"null","sound/msl/Water.wav","null","audio-keyboard-response","422","253578","0.0-10.0-4.0","",""
"null","sound/msl/door.wav","null","audio-keyboard-response","423","254088","0.0-10.0-5.0","",""
"null","sound/msl/dog.wav","null","audio-keyboard-response","424","254598","0.0-10.0-6.0","",""
"509","sound/asl/silence.wav","49","audio-keyboard-response","425","255118","0.0-10.0-7.0","true",""
"null","sound/msl/boing.wav","null","audio-keyboard-response","426","255619","0.0-11.0-0.0","",""
"null","sound/msl/clock.wav","null","audio-keyboard-response","427","256179","0.0-11.0-1.0","",""
"null","sound/msl/bird.wav","null","audio-keyboard-response","428","256688","0.0-11.0-2.0","",""
"null","sound/asl/silence.wav","null","audio-keyboard-response","429","257189","0.0-11.0-3.0","",""
"null","sound/msl/goat.wav","null","audio-keyboard-response","430","257738","0.0-11.0-4.0","",""
"null","sound/msl/organ.wav","null","audio-keyboard-response","431","258249","0.0-11.0-5.0","",""
"null","sound/msl/door_bell.wav","null","audio-keyboard-response","432","258759","0.0-11.0-6.0","",""
"2979","sound/asl/silence.wav","50","audio-keyboard-response","433","261742","0.0-11.0-7.0","false",""
"null","sound/msl/boing.wav","null","audio-keyboard-response","434","262250","0.0-12.0-0.0","",""
"null","sound/msl/frog.wav","null","audio-keyboard-response","435","262760","0.0-12.0-1.0","",""
"null","sound/msl/duck.wav","null","audio-keyboard-response","436","263279","0.0-12.0-2.0","",""
"null","sound/asl/silence.wav","null","audio-keyboard-response","437","263780","0.0-12.0-3.0","",""
"null","sound/msl/slide_whistle.wav","null","audio-keyboard-response","438","264290","0.0-12.0-4.0","",""
"null","sound/msl/organ.wav","null","audio-keyboard-response","439","264800","0.0-12.0-5.0","",""
"null","sound/msl/dog.wav","null","audio-keyboard-response","440","265320","0.0-12.0-6.0","",""
"1000","sound/asl/silence.wav","49","audio-keyboard-response","441","266325","0.0-12.0-7.0","false",""
"null","sound/msl/slide_whistle.wav","null","audio-keyboard-response","442","266840","0.0-13.0-0.0","",""
"null","sound/msl/cat.wav","null","audio-keyboard-response","443","267351","0.0-13.0-1.0","",""
"null","sound/msl/bird.wav","null","audio-keyboard-response","444","267870","0.0-13.0-2.0","",""
"null","sound/asl/silence.wav","null","audio-keyboard-response","445","268370","0.0-13.0-3.0","",""
"null","sound/msl/goat.wav","null","audio-keyboard-response","446","268920","0.0-13.0-4.0","",""
"null","sound/msl/door.wav","null","audio-keyboard-response","447","269431","0.0-13.0-5.0","",""
"null","sound/msl/duck.wav","null","audio-keyboard-response","448","269950","0.0-13.0-6.0","",""
"2371","sound/asl/silence.wav","50","audio-keyboard-response","449","272329","0.0-13.0-7.0","true",""
"null","sound/msl/ding.wav","null","audio-keyboard-response","450","272840","0.0-14.0-0.0","",""
"null","sound/msl/cat.wav","null","audio-keyboard-response","451","273351","0.0-14.0-1.0","",""
"null","sound/msl/door_bell.wav","null","audio-keyboard-response","452","273871","0.0-14.0-2.0","",""
"null","sound/asl/silence.wav","null","audio-keyboard-response","453","274372","0.0-14.0-3.0","",""
"null","sound/msl/boing.wav","null","audio-keyboard-response","454","274881","0.0-14.0-4.0","",""
"null","sound/msl/frog.wav","null","audio-keyboard-response","455","275401","0.0-14.0-5.0","",""
"null","sound/msl/duck.wav","null","audio-keyboard-response","456","275922","0.0-14.0-6.0","",""
"4109","sound/asl/silence.wav","49","audio-keyboard-response","457","280040","0.0-14.0-7.0","true",""
"null","sound/msl/goat.wav","null","audio-keyboard-response","458","280582","0.0-15.0-0.0","",""
"null","sound/msl/door.wav","null","audio-keyboard-response","459","281092","0.0-15.0-1.0","",""
"null","sound/msl/duck.wav","null","audio-keyboard-response","460","281602","0.0-15.0-2.0","",""
"null","sound/asl/silence.wav","null","audio-keyboard-response","461","282103","0.0-15.0-3.0","",""
"null","sound/msl/Water.wav","null","audio-keyboard-response","462","282622","0.0-15.0-4.0","",""
"null","sound/msl/door.wav","null","audio-keyboard-response","463","283132","0.0-15.0-5.0","",""
"null","sound/msl/dog.wav","null","audio-keyboard-response","464","283642","0.0-15.0-6.0","",""
"2939","sound/asl/silence.wav","50","audio-keyboard-response","465","286586","0.0-15.0-7.0","false",""
"null","sound/msl/goat.wav","null","audio-keyboard-response","466","287133","0.0-16.0-0.0","",""
"null","sound/msl/door.wav","null","audio-keyboard-response","467","287643","0.0-16.0-1.0","",""
"null","sound/msl/duck.wav","null","audio-keyboard-response","468","288163","0.0-16.0-2.0","",""
"null","sound/asl/silence.wav","null","audio-keyboard-response","469","288664","0.0-16.0-3.0","",""
"null","sound/msl/goat.wav","null","audio-keyboard-response","470","289213","0.0-16.0-4.0","",""
"null","sound/msl/organ.wav","null","audio-keyboard-response","471","289723","0.0-16.0-5.0","",""
"null","sound/msl/door_bell.wav","null","audio-keyboard-response","472","290243","0.0-16.0-6.0","",""
"2259","sound/asl/silence.wav","50","audio-keyboard-response","473","292506","0.0-16.0-7.0","false",""
"null","sound/msl/slide_whistle.wav","null","audio-keyboard-response","474","293008","0.0-17.0-0.0","",""
"null","sound/msl/cat.wav","null","audio-keyboard-response","475","293518","0.0-17.0-1.0","",""
"null","sound/msl/bird.wav","null","audio-keyboard-response","476","294038","0.0-17.0-2.0","",""
"null","sound/asl/silence.wav","null","audio-keyboard-response","477","294540","0.0-17.0-3.0","",""
"null","sound/msl/Water.wav","null","audio-keyboard-response","478","295059","0.0-17.0-4.0","",""
"null","sound/msl/frog.wav","null","audio-keyboard-response","479","295569","0.0-17.0-5.0","",""
"null","sound/msl/cow.wav","null","audio-keyboard-response","480","296079","0.0-17.0-6.0","",""
"8629","sound/asl/silence.wav","50","audio-keyboard-response","481","304710","0.0-17.0-7.0","true",""
"null","sound/msl/Water.wav","null","audio-keyboard-response","482","305230","0.0-18.0-0.0","",""
"null","sound/msl/frog.wav","null","audio-keyboard-response","483","305750","0.0-18.0-1.0","",""
"null","sound/msl/cow.wav","null","audio-keyboard-response","484","306270","0.0-18.0-2.0","",""
"null","sound/asl/silence.wav","null","audio-keyboard-response","485","306770","0.0-18.0-3.0","",""
"null","sound/msl/goat.wav","null","audio-keyboard-response","486","307320","0.0-18.0-4.0","",""
"null","sound/msl/organ.wav","null","audio-keyboard-response","487","307830","0.0-18.0-5.0","",""
"null","sound/msl/door_bell.wav","null","audio-keyboard-response","488","308350","0.0-18.0-6.0","",""
"1600","sound/asl/silence.wav","49","audio-keyboard-response","489","309955","0.0-18.0-7.0","true",""
"null","sound/msl/boing.wav","null","audio-keyboard-response","490","310460","0.0-19.0-0.0","",""
"null","sound/msl/frog.wav","null","audio-keyboard-response","491","310970","0.0-19.0-1.0","",""
"null","sound/msl/duck.wav","null","audio-keyboard-response","492","311481","0.0-19.0-2.0","",""
"null","sound/asl/silence.wav","null","audio-keyboard-response","493","311981","0.0-19.0-3.0","",""
"null","sound/msl/boing.wav","null","audio-keyboard-response","494","312491","0.0-19.0-4.0","",""
"null","sound/msl/clock.wav","null","audio-keyboard-response","495","313051","0.0-19.0-5.0","",""
"null","sound/msl/bird.wav","null","audio-keyboard-response","496","313561","0.0-19.0-6.0","",""
"2659","sound/asl/silence.wav","50","audio-keyboard-response","497","316228","0.0-19.0-7.0","true",""
"null","sound/msl/slide_whistle.wav","null","audio-keyboard-response","498","316731","0.0-20.0-0.0","",""
"null","sound/msl/organ.wav","null","audio-keyboard-response","499","317241","0.0-20.0-1.0","",""
"null","sound/msl/dog.wav","null","audio-keyboard-response","500","317761","0.0-20.0-2.0","",""
"null","sound/asl/silence.wav","null","audio-keyboard-response","501","318262","0.0-20.0-3.0","",""
"null","sound/msl/goat.wav","null","audio-keyboard-response","502","318812","0.0-20.0-4.0","",""
"null","sound/msl/organ.wav","null","audio-keyboard-response","503","319322","0.0-20.0-5.0","",""
"null","sound/msl/door_bell.wav","null","audio-keyboard-response","504","319867","0.0-20.0-6.0","",""
"1120","sound/asl/silence.wav","49","audio-keyboard-response","505","320990","0.0-20.0-7.0","true",""
"null","sound/msl/goat.wav","null","audio-keyboard-response","506","321532","0.0-21.0-0.0","",""
"null","sound/msl/organ.wav","null","audio-keyboard-response","507","322042","0.0-21.0-1.0","",""
"null","sound/msl/door_bell.wav","null","audio-keyboard-response","508","322562","0.0-21.0-2.0","",""
"null","sound/asl/silence.wav","null","audio-keyboard-response","509","323063","0.0-21.0-3.0","",""
"null","sound/msl/ding.wav","null","audio-keyboard-response","510","323573","0.0-21.0-4.0","",""
"null","sound/msl/cat.wav","null","audio-keyboard-response","511","324082","0.0-21.0-5.0","",""
"null","sound/msl/door_bell.wav","null","audio-keyboard-response","512","324603","0.0-21.0-6.0","",""
"1571","sound/asl/silence.wav","49","audio-keyboard-response","513","326180","0.0-21.0-7.0","false",""
"null","sound/msl/ding.wav","null","audio-keyboard-response","514","326683","0.0-22.0-0.0","",""
"null","sound/msl/clock.wav","null","audio-keyboard-response","515","327243","0.0-22.0-1.0","",""
"null","sound/msl/cow.wav","null","audio-keyboard-response","516","327763","0.0-22.0-2.0","",""
"null","sound/asl/silence.wav","null","audio-keyboard-response","517","328264","0.0-22.0-3.0","",""
"null","sound/msl/slide_whistle.wav","null","audio-keyboard-response","518","328773","0.0-22.0-4.0","",""
"null","sound/msl/organ.wav","null","audio-keyboard-response","519","329283","0.0-22.0-5.0","",""
"null","sound/msl/dog.wav","null","audio-keyboard-response","520","329803","0.0-22.0-6.0","",""
"371","sound/asl/silence.wav","49","audio-keyboard-response","521","330175","0.0-22.0-7.0","false",""
"null","sound/msl/boing.wav","null","audio-keyboard-response","522","330683","0.0-23.0-0.0","",""
"null","sound/msl/clock.wav","null","audio-keyboard-response","523","331243","0.0-23.0-1.0","",""
"null","sound/msl/bird.wav","null","audio-keyboard-response","524","331763","0.0-23.0-2.0","",""
"null","sound/asl/silence.wav","null","audio-keyboard-response","525","332265","0.0-23.0-3.0","",""
"null","sound/msl/slide_whistle.wav","null","audio-keyboard-response","526","332769","0.0-23.0-4.0","",""
"null","sound/msl/cat.wav","null","audio-keyboard-response","527","333279","0.0-23.0-5.0","",""
"null","sound/msl/bird.wav","null","audio-keyboard-response","528","333799","0.0-23.0-6.0","",""
"360","sound/asl/silence.wav","49","audio-keyboard-response","529","334167","0.0-23.0-7.0","true",""
"null","sound/msl/ding.wav","null","audio-keyboard-response","530","334679","0.0-24.0-0.0","",""
"null","sound/msl/clock.wav","null","audio-keyboard-response","531","335238","0.0-24.0-1.0","",""
"null","sound/msl/cow.wav","null","audio-keyboard-response","532","335759","0.0-24.0-2.0","",""
"null","sound/asl/silence.wav","null","audio-keyboard-response","533","336260","0.0-24.0-3.0","",""
"null","sound/msl/Water.wav","null","audio-keyboard-response","534","336779","0.0-24.0-4.0","",""
"null","sound/msl/frog.wav","null","audio-keyboard-response","535","337288","0.0-24.0-5.0","",""
"null","sound/msl/cow.wav","null","audio-keyboard-response","536","337799","0.0-24.0-6.0","",""
"339","sound/asl/silence.wav","49","audio-keyboard-response","537","338142","0.0-24.0-7.0","false",""
"null","sound/msl/ding.wav","null","audio-keyboard-response","538","338649","0.0-25.0-0.0","",""
"null","sound/msl/cat.wav","null","audio-keyboard-response","539","339159","0.0-25.0-1.0","",""
"null","sound/msl/door_bell.wav","null","audio-keyboard-response","540","339680","0.0-25.0-2.0","",""
"null","sound/asl/silence.wav","null","audio-keyboard-response","541","340181","0.0-25.0-3.0","",""
"null","sound/msl/ding.wav","null","audio-keyboard-response","542","340689","0.0-25.0-4.0","",""
"null","sound/msl/clock.wav","null","audio-keyboard-response","543","341249","0.0-25.0-5.0","",""
"null","sound/msl/cow.wav","null","audio-keyboard-response","544","341760","0.0-25.0-6.0","",""
"400","sound/asl/silence.wav","49","audio-keyboard-response","545","342165","0.0-25.0-7.0","true",""
"null","sound/msl/Water.wav","null","audio-keyboard-response","546","342679","0.0-26.0-0.0","",""
"null","sound/msl/door.wav","null","audio-keyboard-response","547","343189","0.0-26.0-1.0","",""
"null","sound/msl/dog.wav","null","audio-keyboard-response","548","343710","0.0-26.0-2.0","",""
"null","sound/asl/silence.wav","null","audio-keyboard-response","549","344210","0.0-26.0-3.0","",""
"null","sound/msl/boing.wav","null","audio-keyboard-response","550","344720","0.0-26.0-4.0","",""
"null","sound/msl/clock.wav","null","audio-keyboard-response","551","345280","0.0-26.0-5.0","",""
"null","sound/msl/bird.wav","null","audio-keyboard-response","552","345800","0.0-26.0-6.0","",""
"1739","sound/asl/silence.wav","50","audio-keyboard-response","553","347541","0.0-26.0-7.0","true",""
"null","sound/msl/boing.wav","null","audio-keyboard-response","554","348050","0.0-27.0-0.0","",""
"null","sound/msl/frog.wav","null","audio-keyboard-response","555","348561","0.0-27.0-1.0","",""
"null","sound/msl/duck.wav","null","audio-keyboard-response","556","349081","0.0-27.0-2.0","",""
"null","sound/asl/silence.wav","null","audio-keyboard-response","557","349581","0.0-27.0-3.0","",""
"null","sound/msl/goat.wav","null","audio-keyboard-response","558","350130","0.0-27.0-4.0","",""
"null","sound/msl/door.wav","null","audio-keyboard-response","559","350641","0.0-27.0-5.0","",""
"null","sound/msl/duck.wav","null","audio-keyboard-response","560","351161","0.0-27.0-6.0","",""
"1379","sound/asl/silence.wav","49","audio-keyboard-response","561","352550","0.0-27.0-7.0","false",""
"2773","","","instructions","562","355323","0.0-28.0","","[{""page_index"":0,""viewing_time"":2773}]"
