"rt","stimulus","key_press","trial_type","trial_index","time_elapsed","internal_node_id","correct","view_history"
"35950","alien.jpg","49","image-keyboard-response","0","35956","0.0-0.0","",""
"null","sound/msl/Water.wav","null","audio-keyboard-response","1","36551","0.0-1.0-0.0","",""
"null","sound/msl/ding.wav","null","audio-keyboard-response","2","37067","0.0-1.0-1.0","",""
"null","sound/msl/organ.wav","null","audio-keyboard-response","3","37579","0.0-1.0-2.0","",""
"null","sound/msl/dog.wav","null","audio-keyboard-response","4","38089","0.0-1.0-3.0","",""
"null","sound/msl/slide_whistle.wav","null","audio-keyboard-response","5","38599","0.0-1.0-4.0","",""
"null","sound/msl/frog.wav","null","audio-keyboard-response","6","39119","0.0-1.0-5.0","",""
"null","sound/msl/goat.wav","null","audio-keyboard-response","7","39667","0.0-1.0-6.0","",""
"null","sound/msl/door_bell.wav","null","audio-keyboard-response","8","40187","0.0-1.0-7.0","",""
"null","sound/msl/door.wav","null","audio-keyboard-response","9","40698","0.0-1.0-8.0","",""
"null","sound/msl/cow.wav","null","audio-keyboard-response","10","41207","0.0-1.0-9.0","",""
"null","sound/msl/boing.wav","null","audio-keyboard-response","11","41718","0.0-1.0-10.0","",""
"null","sound/msl/bird.wav","null","audio-keyboard-response","12","42237","0.0-1.0-11.0","",""
"null","sound/msl/dog.wav","null","audio-keyboard-response","13","42757","0.0-1.0-12.0","",""
"null","sound/msl/slide_whistle.wav","null","audio-keyboard-response","14","43277","0.0-1.0-13.0","",""
"null","sound/msl/frog.wav","null","audio-keyboard-response","15","43797","0.0-1.0-14.0","",""
"null","sound/msl/Water.wav","null","audio-keyboard-response","16","44317","0.0-1.0-15.0","",""
"null","sound/msl/ding.wav","null","audio-keyboard-response","17","44837","0.0-1.0-16.0","",""
"null","sound/msl/organ.wav","null","audio-keyboard-response","18","45348","0.0-1.0-17.0","",""
"null","sound/msl/duck.wav","null","audio-keyboard-response","19","45867","0.0-1.0-18.0","",""
"null","sound/msl/cat.wav","null","audio-keyboard-response","20","46377","0.0-1.0-19.0","",""
"null","sound/msl/clock.wav","null","audio-keyboard-response","21","46937","0.0-1.0-20.0","",""
"null","sound/msl/cow.wav","null","audio-keyboard-response","22","47448","0.0-1.0-21.0","",""
"null","sound/msl/boing.wav","null","audio-keyboard-response","23","47957","0.0-1.0-22.0","",""
"null","sound/msl/bird.wav","null","audio-keyboard-response","24","48478","0.0-1.0-23.0","",""
"null","sound/msl/goat.wav","null","audio-keyboard-response","25","49028","0.0-1.0-24.0","",""
"null","sound/msl/door_bell.wav","null","audio-keyboard-response","26","49547","0.0-1.0-25.0","",""
"null","sound/msl/door.wav","null","audio-keyboard-response","27","50057","0.0-1.0-26.0","",""
"null","sound/msl/Water.wav","null","audio-keyboard-response","28","50577","0.0-1.0-27.0","",""
"null","sound/msl/ding.wav","null","audio-keyboard-response","29","51087","0.0-1.0-28.0","",""
"null","sound/msl/organ.wav","null","audio-keyboard-response","30","51598","0.0-1.0-29.0","",""
"null","sound/msl/dog.wav","null","audio-keyboard-response","31","52118","0.0-1.0-30.0","",""
"null","sound/msl/slide_whistle.wav","null","audio-keyboard-response","32","52638","0.0-1.0-31.0","",""
"null","sound/msl/frog.wav","null","audio-keyboard-response","33","53158","0.0-1.0-32.0","",""
"null","sound/msl/duck.wav","null","audio-keyboard-response","34","53677","0.0-1.0-33.0","",""
"null","sound/msl/cat.wav","null","audio-keyboard-response","35","54188","0.0-1.0-34.0","",""
"null","sound/msl/clock.wav","null","audio-keyboard-response","36","54747","0.0-1.0-35.0","",""
"null","sound/msl/goat.wav","null","audio-keyboard-response","37","55297","0.0-1.0-36.0","",""
"null","sound/msl/door_bell.wav","null","audio-keyboard-response","38","55807","0.0-1.0-37.0","",""
"null","sound/msl/door.wav","null","audio-keyboard-response","39","56317","0.0-1.0-38.0","",""
"null","sound/msl/cow.wav","null","audio-keyboard-response","40","56837","0.0-1.0-39.0","",""
"null","sound/msl/boing.wav","null","audio-keyboard-response","41","57346","0.0-1.0-40.0","",""
"null","sound/msl/bird.wav","null","audio-keyboard-response","42","57867","0.0-1.0-41.0","",""
"null","sound/msl/duck.wav","null","audio-keyboard-response","43","58387","0.0-1.0-42.0","",""
"null","sound/msl/cat.wav","null","audio-keyboard-response","44","58897","0.0-1.0-43.0","",""
"null","sound/msl/clock.wav","null","audio-keyboard-response","45","59458","0.0-1.0-44.0","",""
"null","sound/msl/dog.wav","null","audio-keyboard-response","46","59968","0.0-1.0-45.0","",""
"null","sound/msl/slide_whistle.wav","null","audio-keyboard-response","47","60477","0.0-1.0-46.0","",""
"null","sound/msl/frog.wav","null","audio-keyboard-response","48","60997","0.0-1.0-47.0","",""
"null","sound/msl/goat.wav","null","audio-keyboard-response","49","61547","0.0-1.0-48.0","",""
"null","sound/msl/door_bell.wav","null","audio-keyboard-response","50","62069","0.0-1.0-49.0","",""
"null","sound/msl/door.wav","null","audio-keyboard-response","51","62577","0.0-1.0-50.0","",""
"null","sound/msl/Water.wav","null","audio-keyboard-response","52","63097","0.0-1.0-51.0","",""
"null","sound/msl/ding.wav","null","audio-keyboard-response","53","63608","0.0-1.0-52.0","",""
"null","sound/msl/organ.wav","null","audio-keyboard-response","54","64117","0.0-1.0-53.0","",""
"null","sound/msl/dog.wav","null","audio-keyboard-response","55","64639","0.0-1.0-54.0","",""
"null","sound/msl/slide_whistle.wav","null","audio-keyboard-response","56","65160","0.0-1.0-55.0","",""
"null","sound/msl/frog.wav","null","audio-keyboard-response","57","65681","0.0-1.0-56.0","",""
"null","sound/msl/goat.wav","null","audio-keyboard-response","58","66229","0.0-1.0-57.0","",""
"null","sound/msl/door_bell.wav","null","audio-keyboard-response","59","66747","0.0-1.0-58.0","",""
"null","sound/msl/door.wav","null","audio-keyboard-response","60","67260","0.0-1.0-59.0","",""
"null","sound/msl/cow.wav","null","audio-keyboard-response","61","67769","0.0-1.0-60.0","",""
"null","sound/msl/boing.wav","null","audio-keyboard-response","62","68278","0.0-1.0-61.0","",""
"null","sound/msl/bird.wav","null","audio-keyboard-response","63","68798","0.0-1.0-62.0","",""
"null","sound/msl/duck.wav","null","audio-keyboard-response","64","69317","0.0-1.0-63.0","",""
"null","sound/msl/cat.wav","null","audio-keyboard-response","65","69828","0.0-1.0-64.0","",""
"null","sound/msl/clock.wav","null","audio-keyboard-response","66","70389","0.0-1.0-65.0","",""
"null","sound/msl/dog.wav","null","audio-keyboard-response","67","70908","0.0-1.0-66.0","",""
"null","sound/msl/slide_whistle.wav","null","audio-keyboard-response","68","71428","0.0-1.0-67.0","",""
"null","sound/msl/frog.wav","null","audio-keyboard-response","69","71949","0.0-1.0-68.0","",""
"null","sound/msl/Water.wav","null","audio-keyboard-response","70","72470","0.0-1.0-69.0","",""
"null","sound/msl/ding.wav","null","audio-keyboard-response","71","72990","0.0-1.0-70.0","",""
"null","sound/msl/organ.wav","null","audio-keyboard-response","72","73498","0.0-1.0-71.0","",""
"null","sound/msl/goat.wav","null","audio-keyboard-response","73","74048","0.0-1.0-72.0","",""
"null","sound/msl/door_bell.wav","null","audio-keyboard-response","74","74557","0.0-1.0-73.0","",""
"null","sound/msl/door.wav","null","audio-keyboard-response","75","75068","0.0-1.0-74.0","",""
"null","sound/msl/cow.wav","null","audio-keyboard-response","76","75587","0.0-1.0-75.0","",""
"null","sound/msl/boing.wav","null","audio-keyboard-response","77","76097","0.0-1.0-76.0","",""
"null","sound/msl/bird.wav","null","audio-keyboard-response","78","76607","0.0-1.0-77.0","",""
"null","sound/msl/goat.wav","null","audio-keyboard-response","79","77160","0.0-1.0-78.0","",""
"null","sound/msl/door_bell.wav","null","audio-keyboard-response","80","77677","0.0-1.0-79.0","",""
"null","sound/msl/door.wav","null","audio-keyboard-response","81","78187","0.0-1.0-80.0","",""
"null","sound/msl/duck.wav","null","audio-keyboard-response","82","78707","0.0-1.0-81.0","",""
"null","sound/msl/cat.wav","null","audio-keyboard-response","83","79217","0.0-1.0-82.0","",""
"null","sound/msl/clock.wav","null","audio-keyboard-response","84","79778","0.0-1.0-83.0","",""
"null","sound/msl/Water.wav","null","audio-keyboard-response","85","80298","0.0-1.0-84.0","",""
"null","sound/msl/ding.wav","null","audio-keyboard-response","86","80808","0.0-1.0-85.0","",""
"null","sound/msl/organ.wav","null","audio-keyboard-response","87","81319","0.0-1.0-86.0","",""
"null","sound/msl/dog.wav","null","audio-keyboard-response","88","81837","0.0-1.0-87.0","",""
"null","sound/msl/slide_whistle.wav","null","audio-keyboard-response","89","82360","0.0-1.0-88.0","",""
"null","sound/msl/frog.wav","null","audio-keyboard-response","90","82877","0.0-1.0-89.0","",""
"null","sound/msl/duck.wav","null","audio-keyboard-response","91","83400","0.0-1.0-90.0","",""
"null","sound/msl/cat.wav","null","audio-keyboard-response","92","83908","0.0-1.0-91.0","",""
"null","sound/msl/clock.wav","null","audio-keyboard-response","93","84467","0.0-1.0-92.0","",""
"null","sound/msl/cow.wav","null","audio-keyboard-response","94","84987","0.0-1.0-93.0","",""
"null","sound/msl/boing.wav","null","audio-keyboard-response","95","85497","0.0-1.0-94.0","",""
"null","sound/msl/bird.wav","null","audio-keyboard-response","96","86007","0.0-1.0-95.0","",""
"null","sound/msl/goat.wav","null","audio-keyboard-response","97","86558","0.0-1.0-96.0","",""
"null","sound/msl/door_bell.wav","null","audio-keyboard-response","98","87080","0.0-1.0-97.0","",""
"null","sound/msl/door.wav","null","audio-keyboard-response","99","87588","0.0-1.0-98.0","",""
"null","sound/msl/dog.wav","null","audio-keyboard-response","100","88110","0.0-1.0-99.0","",""
"null","sound/msl/slide_whistle.wav","null","audio-keyboard-response","101","88629","0.0-1.0-100.0","",""
"null","sound/msl/frog.wav","null","audio-keyboard-response","102","89150","0.0-1.0-101.0","",""
"null","sound/msl/duck.wav","null","audio-keyboard-response","103","89667","0.0-1.0-102.0","",""
"null","sound/msl/cat.wav","null","audio-keyboard-response","104","90177","0.0-1.0-103.0","",""
"null","sound/msl/clock.wav","null","audio-keyboard-response","105","90738","0.0-1.0-104.0","",""
"null","sound/msl/Water.wav","null","audio-keyboard-response","106","91258","0.0-1.0-105.0","",""
"null","sound/msl/ding.wav","null","audio-keyboard-response","107","91769","0.0-1.0-106.0","",""
"null","sound/msl/organ.wav","null","audio-keyboard-response","108","92277","0.0-1.0-107.0","",""
"null","sound/msl/dog.wav","null","audio-keyboard-response","109","92797","0.0-1.0-108.0","",""
"null","sound/msl/slide_whistle.wav","null","audio-keyboard-response","110","93319","0.0-1.0-109.0","",""
"null","sound/msl/frog.wav","null","audio-keyboard-response","111","93837","0.0-1.0-110.0","",""
"null","sound/msl/cow.wav","null","audio-keyboard-response","112","94357","0.0-1.0-111.0","",""
"null","sound/msl/boing.wav","null","audio-keyboard-response","113","94870","0.0-1.0-112.0","",""
"null","sound/msl/bird.wav","null","audio-keyboard-response","114","95389","0.0-1.0-113.0","",""
"null","sound/msl/duck.wav","null","audio-keyboard-response","115","95910","0.0-1.0-114.0","",""
"null","sound/msl/cat.wav","null","audio-keyboard-response","116","96417","0.0-1.0-115.0","",""
"null","sound/msl/clock.wav","null","audio-keyboard-response","117","96978","0.0-1.0-116.0","",""
"null","sound/msl/goat.wav","null","audio-keyboard-response","118","97530","0.0-1.0-117.0","",""
"null","sound/msl/door_bell.wav","null","audio-keyboard-response","119","98039","0.0-1.0-118.0","",""
"null","sound/msl/door.wav","null","audio-keyboard-response","120","98547","0.0-1.0-119.0","",""
"null","sound/msl/Water.wav","null","audio-keyboard-response","121","99067","0.0-1.0-120.0","",""
"null","sound/msl/ding.wav","null","audio-keyboard-response","122","99588","0.0-1.0-121.0","",""
"null","sound/msl/organ.wav","null","audio-keyboard-response","123","100099","0.0-1.0-122.0","",""
"null","sound/msl/dog.wav","null","audio-keyboard-response","124","100609","0.0-1.0-123.0","",""
"null","sound/msl/slide_whistle.wav","null","audio-keyboard-response","125","101118","0.0-1.0-124.0","",""
"null","sound/msl/frog.wav","null","audio-keyboard-response","126","101637","0.0-1.0-125.0","",""
"null","sound/msl/duck.wav","null","audio-keyboard-response","127","102157","0.0-1.0-126.0","",""
"null","sound/msl/cat.wav","null","audio-keyboard-response","128","102669","0.0-1.0-127.0","",""
"null","sound/msl/clock.wav","null","audio-keyboard-response","129","103228","0.0-1.0-128.0","",""
"null","sound/msl/cow.wav","null","audio-keyboard-response","130","103748","0.0-1.0-129.0","",""
"null","sound/msl/boing.wav","null","audio-keyboard-response","131","104257","0.0-1.0-130.0","",""
"null","sound/msl/bird.wav","null","audio-keyboard-response","132","104768","0.0-1.0-131.0","",""
"null","sound/msl/dog.wav","null","audio-keyboard-response","133","105277","0.0-1.0-132.0","",""
"null","sound/msl/slide_whistle.wav","null","audio-keyboard-response","134","105801","0.0-1.0-133.0","",""
"null","sound/msl/frog.wav","null","audio-keyboard-response","135","106317","0.0-1.0-134.0","",""
"null","sound/msl/goat.wav","null","audio-keyboard-response","136","106867","0.0-1.0-135.0","",""
"null","sound/msl/door_bell.wav","null","audio-keyboard-response","137","107388","0.0-1.0-136.0","",""
"null","sound/msl/door.wav","null","audio-keyboard-response","138","107899","0.0-1.0-137.0","",""
"null","sound/msl/cow.wav","null","audio-keyboard-response","139","108407","0.0-1.0-138.0","",""
"null","sound/msl/boing.wav","null","audio-keyboard-response","140","108917","0.0-1.0-139.0","",""
"null","sound/msl/bird.wav","null","audio-keyboard-response","141","109437","0.0-1.0-140.0","",""
"null","sound/msl/Water.wav","null","audio-keyboard-response","142","109957","0.0-1.0-141.0","",""
"null","sound/msl/ding.wav","null","audio-keyboard-response","143","110478","0.0-1.0-142.0","",""
"null","sound/msl/organ.wav","null","audio-keyboard-response","144","110986","0.0-1.0-143.0","",""
"null","sound/msl/duck.wav","null","audio-keyboard-response","145","111509","0.0-1.0-144.0","",""
"null","sound/msl/cat.wav","null","audio-keyboard-response","146","112018","0.0-1.0-145.0","",""
"null","sound/msl/clock.wav","null","audio-keyboard-response","147","112578","0.0-1.0-146.0","",""
"null","sound/msl/goat.wav","null","audio-keyboard-response","148","113127","0.0-1.0-147.0","",""
"null","sound/msl/door_bell.wav","null","audio-keyboard-response","149","113637","0.0-1.0-148.0","",""
"null","sound/msl/door.wav","null","audio-keyboard-response","150","114147","0.0-1.0-149.0","",""
"null","sound/msl/Water.wav","null","audio-keyboard-response","151","114668","0.0-1.0-150.0","",""
"null","sound/msl/ding.wav","null","audio-keyboard-response","152","115187","0.0-1.0-151.0","",""
"null","sound/msl/organ.wav","null","audio-keyboard-response","153","115697","0.0-1.0-152.0","",""
"null","sound/msl/dog.wav","null","audio-keyboard-response","154","116207","0.0-1.0-153.0","",""
"null","sound/msl/slide_whistle.wav","null","audio-keyboard-response","155","116717","0.0-1.0-154.0","",""
"null","sound/msl/frog.wav","null","audio-keyboard-response","156","117238","0.0-1.0-155.0","",""
"null","sound/msl/cow.wav","null","audio-keyboard-response","157","117758","0.0-1.0-156.0","",""
"null","sound/msl/boing.wav","null","audio-keyboard-response","158","118268","0.0-1.0-157.0","",""
"null","sound/msl/bird.wav","null","audio-keyboard-response","159","118787","0.0-1.0-158.0","",""
"null","sound/msl/duck.wav","null","audio-keyboard-response","160","119307","0.0-1.0-159.0","",""
"null","sound/msl/cat.wav","null","audio-keyboard-response","161","119818","0.0-1.0-160.0","",""
"null","sound/msl/clock.wav","null","audio-keyboard-response","162","120377","0.0-1.0-161.0","",""
"null","sound/msl/dog.wav","null","audio-keyboard-response","163","120887","0.0-1.0-162.0","",""
"null","sound/msl/slide_whistle.wav","null","audio-keyboard-response","164","121397","0.0-1.0-163.0","",""
"null","sound/msl/frog.wav","null","audio-keyboard-response","165","121917","0.0-1.0-164.0","",""
"null","sound/msl/cow.wav","null","audio-keyboard-response","166","122438","0.0-1.0-165.0","",""
"null","sound/msl/boing.wav","null","audio-keyboard-response","167","122947","0.0-1.0-166.0","",""
"null","sound/msl/bird.wav","null","audio-keyboard-response","168","123467","0.0-1.0-167.0","",""
"null","sound/msl/Water.wav","null","audio-keyboard-response","169","123987","0.0-1.0-168.0","",""
"null","sound/msl/ding.wav","null","audio-keyboard-response","170","124508","0.0-1.0-169.0","",""
"null","sound/msl/organ.wav","null","audio-keyboard-response","171","125018","0.0-1.0-170.0","",""
"null","sound/msl/goat.wav","null","audio-keyboard-response","172","125568","0.0-1.0-171.0","",""
"null","sound/msl/door_bell.wav","null","audio-keyboard-response","173","126077","0.0-1.0-172.0","",""
"null","sound/msl/door.wav","null","audio-keyboard-response","174","126590","0.0-1.0-173.0","",""
"null","sound/msl/duck.wav","null","audio-keyboard-response","175","127107","0.0-1.0-174.0","",""
"null","sound/msl/cat.wav","null","audio-keyboard-response","176","127618","0.0-1.0-175.0","",""
"null","sound/msl/clock.wav","null","audio-keyboard-response","177","128178","0.0-1.0-176.0","",""
"null","sound/msl/dog.wav","null","audio-keyboard-response","178","128690","0.0-1.0-177.0","",""
"null","sound/msl/slide_whistle.wav","null","audio-keyboard-response","179","129198","0.0-1.0-178.0","",""
"null","sound/msl/frog.wav","null","audio-keyboard-response","180","129718","0.0-1.0-179.0","",""
"null","sound/msl/goat.wav","null","audio-keyboard-response","181","130268","0.0-1.0-180.0","",""
"null","sound/msl/door_bell.wav","null","audio-keyboard-response","182","130788","0.0-1.0-181.0","",""
"null","sound/msl/door.wav","null","audio-keyboard-response","183","131298","0.0-1.0-182.0","",""
"null","sound/msl/cow.wav","null","audio-keyboard-response","184","131807","0.0-1.0-183.0","",""
"null","sound/msl/boing.wav","null","audio-keyboard-response","185","132317","0.0-1.0-184.0","",""
"null","sound/msl/bird.wav","null","audio-keyboard-response","186","132837","0.0-1.0-185.0","",""
"null","sound/msl/Water.wav","null","audio-keyboard-response","187","133357","0.0-1.0-186.0","",""
"null","sound/msl/ding.wav","null","audio-keyboard-response","188","133877","0.0-1.0-187.0","",""
"null","sound/msl/organ.wav","null","audio-keyboard-response","189","134387","0.0-1.0-188.0","",""
"null","sound/msl/duck.wav","null","audio-keyboard-response","190","134908","0.0-1.0-189.0","",""
"null","sound/msl/cat.wav","null","audio-keyboard-response","191","135417","0.0-1.0-190.0","",""
"null","sound/msl/clock.wav","null","audio-keyboard-response","192","135979","0.0-1.0-191.0","",""
"null","sound/msl/dog.wav","null","audio-keyboard-response","193","136487","0.0-1.0-192.0","",""
"null","sound/msl/slide_whistle.wav","null","audio-keyboard-response","194","136997","0.0-1.0-193.0","",""
"null","sound/msl/frog.wav","null","audio-keyboard-response","195","137518","0.0-1.0-194.0","",""
"null","sound/msl/goat.wav","null","audio-keyboard-response","196","138067","0.0-1.0-195.0","",""
"null","sound/msl/door_bell.wav","null","audio-keyboard-response","197","138587","0.0-1.0-196.0","",""
"null","sound/msl/door.wav","null","audio-keyboard-response","198","139098","0.0-1.0-197.0","",""
"null","sound/msl/Water.wav","null","audio-keyboard-response","199","139618","0.0-1.0-198.0","",""
"null","sound/msl/ding.wav","null","audio-keyboard-response","200","140130","0.0-1.0-199.0","",""
"null","sound/msl/organ.wav","null","audio-keyboard-response","201","140637","0.0-1.0-200.0","",""
"null","sound/msl/cow.wav","null","audio-keyboard-response","202","141158","0.0-1.0-201.0","",""
"null","sound/msl/boing.wav","null","audio-keyboard-response","203","141668","0.0-1.0-202.0","",""
"null","sound/msl/bird.wav","null","audio-keyboard-response","204","142187","0.0-1.0-203.0","",""
"null","sound/msl/duck.wav","null","audio-keyboard-response","205","142708","0.0-1.0-204.0","",""
"null","sound/msl/cat.wav","null","audio-keyboard-response","206","143217","0.0-1.0-205.0","",""
"null","sound/msl/clock.wav","null","audio-keyboard-response","207","143777","0.0-1.0-206.0","",""
"null","sound/msl/dog.wav","null","audio-keyboard-response","208","144287","0.0-1.0-207.0","",""
"null","sound/msl/slide_whistle.wav","null","audio-keyboard-response","209","144797","0.0-1.0-208.0","",""
"null","sound/msl/frog.wav","null","audio-keyboard-response","210","145318","0.0-1.0-209.0","",""
"null","sound/msl/Water.wav","null","audio-keyboard-response","211","145838","0.0-1.0-210.0","",""
"null","sound/msl/ding.wav","null","audio-keyboard-response","212","146359","0.0-1.0-211.0","",""
"null","sound/msl/organ.wav","null","audio-keyboard-response","213","146870","0.0-1.0-212.0","",""
"null","sound/msl/duck.wav","null","audio-keyboard-response","214","147387","0.0-1.0-213.0","",""
"null","sound/msl/cat.wav","null","audio-keyboard-response","215","147898","0.0-1.0-214.0","",""
"null","sound/msl/clock.wav","null","audio-keyboard-response","216","148457","0.0-1.0-215.0","",""
"null","sound/msl/goat.wav","null","audio-keyboard-response","217","149010","0.0-1.0-216.0","",""
"null","sound/msl/door_bell.wav","null","audio-keyboard-response","218","149517","0.0-1.0-217.0","",""
"null","sound/msl/door.wav","null","audio-keyboard-response","219","150027","0.0-1.0-218.0","",""
"null","sound/msl/cow.wav","null","audio-keyboard-response","220","150548","0.0-1.0-219.0","",""
"null","sound/msl/boing.wav","null","audio-keyboard-response","221","151059","0.0-1.0-220.0","",""
"null","sound/msl/bird.wav","null","audio-keyboard-response","222","151570","0.0-1.0-221.0","",""
"null","sound/msl/dog.wav","null","audio-keyboard-response","223","152079","0.0-1.0-222.0","",""
"null","sound/msl/slide_whistle.wav","null","audio-keyboard-response","224","152598","0.0-1.0-223.0","",""
"null","sound/msl/frog.wav","null","audio-keyboard-response","225","153118","0.0-1.0-224.0","",""
"null","sound/msl/goat.wav","null","audio-keyboard-response","226","153667","0.0-1.0-225.0","",""
"null","sound/msl/door_bell.wav","null","audio-keyboard-response","227","154187","0.0-1.0-226.0","",""
"null","sound/msl/door.wav","null","audio-keyboard-response","228","154697","0.0-1.0-227.0","",""
"null","sound/msl/duck.wav","null","audio-keyboard-response","229","155208","0.0-1.0-228.0","",""
"null","sound/msl/cat.wav","null","audio-keyboard-response","230","155717","0.0-1.0-229.0","",""
"null","sound/msl/clock.wav","null","audio-keyboard-response","231","156280","0.0-1.0-230.0","",""
"null","sound/msl/goat.wav","null","audio-keyboard-response","232","156827","0.0-1.0-231.0","",""
"null","sound/msl/door_bell.wav","null","audio-keyboard-response","233","157350","0.0-1.0-232.0","",""
"null","sound/msl/door.wav","null","audio-keyboard-response","234","157857","0.0-1.0-233.0","",""
"null","sound/msl/dog.wav","null","audio-keyboard-response","235","158367","0.0-1.0-234.0","",""
"null","sound/msl/slide_whistle.wav","null","audio-keyboard-response","236","158879","0.0-1.0-235.0","",""
"null","sound/msl/frog.wav","null","audio-keyboard-response","237","159400","0.0-1.0-236.0","",""
"null","sound/msl/cow.wav","null","audio-keyboard-response","238","159918","0.0-1.0-237.0","",""
"null","sound/msl/boing.wav","null","audio-keyboard-response","239","160429","0.0-1.0-238.0","",""
"null","sound/msl/bird.wav","null","audio-keyboard-response","240","160950","0.0-1.0-239.0","",""
"null","sound/msl/Water.wav","null","audio-keyboard-response","241","161469","0.0-1.0-240.0","",""
"null","sound/msl/ding.wav","null","audio-keyboard-response","242","161990","0.0-1.0-241.0","",""
"null","sound/msl/organ.wav","null","audio-keyboard-response","243","162497","0.0-1.0-242.0","",""
"null","sound/msl/duck.wav","null","audio-keyboard-response","244","163009","0.0-1.0-243.0","",""
"null","sound/msl/cat.wav","null","audio-keyboard-response","245","163517","0.0-1.0-244.0","",""
"null","sound/msl/clock.wav","null","audio-keyboard-response","246","164077","0.0-1.0-245.0","",""
"null","sound/msl/dog.wav","null","audio-keyboard-response","247","164599","0.0-1.0-246.0","",""
"null","sound/msl/slide_whistle.wav","null","audio-keyboard-response","248","165118","0.0-1.0-247.0","",""
"null","sound/msl/frog.wav","null","audio-keyboard-response","249","165638","0.0-1.0-248.0","",""
"null","sound/msl/cow.wav","null","audio-keyboard-response","250","166158","0.0-1.0-249.0","",""
"null","sound/msl/boing.wav","null","audio-keyboard-response","251","166668","0.0-1.0-250.0","",""
"null","sound/msl/bird.wav","null","audio-keyboard-response","252","167187","0.0-1.0-251.0","",""
"null","sound/msl/Water.wav","null","audio-keyboard-response","253","167707","0.0-1.0-252.0","",""
"null","sound/msl/ding.wav","null","audio-keyboard-response","254","168228","0.0-1.0-253.0","",""
"null","sound/msl/organ.wav","null","audio-keyboard-response","255","168738","0.0-1.0-254.0","",""
"null","sound/msl/goat.wav","null","audio-keyboard-response","256","169287","0.0-1.0-255.0","",""
"null","sound/msl/door_bell.wav","null","audio-keyboard-response","257","169799","0.0-1.0-256.0","",""
"null","sound/msl/door.wav","null","audio-keyboard-response","258","170310","0.0-1.0-257.0","",""
"null","sound/msl/duck.wav","null","audio-keyboard-response","259","170828","0.0-1.0-258.0","",""
"null","sound/msl/cat.wav","null","audio-keyboard-response","260","171338","0.0-1.0-259.0","",""
"null","sound/msl/clock.wav","null","audio-keyboard-response","261","171897","0.0-1.0-260.0","",""
"null","sound/msl/Water.wav","null","audio-keyboard-response","262","172417","0.0-1.0-261.0","",""
"null","sound/msl/ding.wav","null","audio-keyboard-response","263","172927","0.0-1.0-262.0","",""
"null","sound/msl/organ.wav","null","audio-keyboard-response","264","173439","0.0-1.0-263.0","",""
"null","sound/msl/cow.wav","null","audio-keyboard-response","265","173957","0.0-1.0-264.0","",""
"null","sound/msl/boing.wav","null","audio-keyboard-response","266","174467","0.0-1.0-265.0","",""
"null","sound/msl/bird.wav","null","audio-keyboard-response","267","174987","0.0-1.0-266.0","",""
"null","sound/msl/goat.wav","null","audio-keyboard-response","268","175540","0.0-1.0-267.0","",""
"null","sound/msl/door_bell.wav","null","audio-keyboard-response","269","176048","0.0-1.0-268.0","",""
"null","sound/msl/door.wav","null","audio-keyboard-response","270","176559","0.0-1.0-269.0","",""
"null","sound/msl/dog.wav","null","audio-keyboard-response","271","177078","0.0-1.0-270.0","",""
"null","sound/msl/slide_whistle.wav","null","audio-keyboard-response","272","177598","0.0-1.0-271.0","",""
"null","sound/msl/frog.wav","null","audio-keyboard-response","273","178117","0.0-1.0-272.0","",""
"null","sound/msl/duck.wav","null","audio-keyboard-response","274","178637","0.0-1.0-273.0","",""
"null","sound/msl/cat.wav","null","audio-keyboard-response","275","179148","0.0-1.0-274.0","",""
"null","sound/msl/clock.wav","null","audio-keyboard-response","276","179708","0.0-1.0-275.0","",""
"null","sound/msl/Water.wav","null","audio-keyboard-response","277","180228","0.0-1.0-276.0","",""
"null","sound/msl/ding.wav","null","audio-keyboard-response","278","180747","0.0-1.0-277.0","",""
"null","sound/msl/organ.wav","null","audio-keyboard-response","279","181257","0.0-1.0-278.0","",""
"null","sound/msl/cow.wav","null","audio-keyboard-response","280","181768","0.0-1.0-279.0","",""
"null","sound/msl/boing.wav","null","audio-keyboard-response","281","182279","0.0-1.0-280.0","",""
"null","sound/msl/bird.wav","null","audio-keyboard-response","282","182797","0.0-1.0-281.0","",""
"null","sound/msl/dog.wav","null","audio-keyboard-response","283","183317","0.0-1.0-282.0","",""
"null","sound/msl/slide_whistle.wav","null","audio-keyboard-response","284","183837","0.0-1.0-283.0","",""
"null","sound/msl/frog.wav","null","audio-keyboard-response","285","184358","0.0-1.0-284.0","",""
"null","sound/msl/goat.wav","null","audio-keyboard-response","286","184907","0.0-1.0-285.0","",""
"null","sound/msl/door_bell.wav","null","audio-keyboard-response","287","185427","0.0-1.0-286.0","",""
"null","sound/msl/door.wav","null","audio-keyboard-response","288","185938","0.0-1.0-287.0","",""
"null","sound/msl/duck.wav","null","audio-keyboard-response","289","186447","0.0-1.0-288.0","",""
"null","sound/msl/cat.wav","null","audio-keyboard-response","290","186957","0.0-1.0-289.0","",""
"null","sound/msl/clock.wav","null","audio-keyboard-response","291","187517","0.0-1.0-290.0","",""
"null","sound/msl/cow.wav","null","audio-keyboard-response","292","188037","0.0-1.0-291.0","",""
"null","sound/msl/boing.wav","null","audio-keyboard-response","293","188547","0.0-1.0-292.0","",""
"null","sound/msl/bird.wav","null","audio-keyboard-response","294","189068","0.0-1.0-293.0","",""
"null","sound/msl/Water.wav","null","audio-keyboard-response","295","189588","0.0-1.0-294.0","",""
"null","sound/msl/ding.wav","null","audio-keyboard-response","296","190108","0.0-1.0-295.0","",""
"null","sound/msl/organ.wav","null","audio-keyboard-response","297","190617","0.0-1.0-296.0","",""
"null","sound/msl/duck.wav","null","audio-keyboard-response","298","191127","0.0-1.0-297.0","",""
"null","sound/msl/cat.wav","null","audio-keyboard-response","299","191638","0.0-1.0-298.0","",""
"null","sound/msl/clock.wav","null","audio-keyboard-response","300","192196","0.0-1.0-299.0","",""
"null","sound/msl/dog.wav","null","audio-keyboard-response","301","192717","0.0-1.0-300.0","",""
"null","sound/msl/slide_whistle.wav","null","audio-keyboard-response","302","193237","0.0-1.0-301.0","",""
"null","sound/msl/frog.wav","null","audio-keyboard-response","303","193757","0.0-1.0-302.0","",""
"null","sound/msl/cow.wav","null","audio-keyboard-response","304","194277","0.0-1.0-303.0","",""
"null","sound/msl/boing.wav","null","audio-keyboard-response","305","194787","0.0-1.0-304.0","",""
"null","sound/msl/bird.wav","null","audio-keyboard-response","306","195308","0.0-1.0-305.0","",""
"null","sound/msl/goat.wav","null","audio-keyboard-response","307","195858","0.0-1.0-306.0","",""
"null","sound/msl/door_bell.wav","null","audio-keyboard-response","308","196367","0.0-1.0-307.0","",""
"null","sound/msl/door.wav","null","audio-keyboard-response","309","196877","0.0-1.0-308.0","",""
"null","sound/msl/Water.wav","null","audio-keyboard-response","310","197397","0.0-1.0-309.0","",""
"null","sound/msl/ding.wav","null","audio-keyboard-response","311","197918","0.0-1.0-310.0","",""
"null","sound/msl/organ.wav","null","audio-keyboard-response","312","198428","0.0-1.0-311.0","",""
"null","sound/msl/duck.wav","null","audio-keyboard-response","313","198947","0.0-1.0-312.0","",""
"null","sound/msl/cat.wav","null","audio-keyboard-response","314","199458","0.0-1.0-313.0","",""
"null","sound/msl/clock.wav","null","audio-keyboard-response","315","200021","0.0-1.0-314.0","",""
"null","sound/msl/dog.wav","null","audio-keyboard-response","316","200528","0.0-1.0-315.0","",""
"null","sound/msl/slide_whistle.wav","null","audio-keyboard-response","317","201039","0.0-1.0-316.0","",""
"null","sound/msl/frog.wav","null","audio-keyboard-response","318","201558","0.0-1.0-317.0","",""
"null","sound/msl/cow.wav","null","audio-keyboard-response","319","202077","0.0-1.0-318.0","",""
"null","sound/msl/boing.wav","null","audio-keyboard-response","320","202588","0.0-1.0-319.0","",""
"null","sound/msl/bird.wav","null","audio-keyboard-response","321","203107","0.0-1.0-320.0","",""
"null","sound/msl/Water.wav","null","audio-keyboard-response","322","203628","0.0-1.0-321.0","",""
"null","sound/msl/ding.wav","null","audio-keyboard-response","323","204147","0.0-1.0-322.0","",""
"null","sound/msl/organ.wav","null","audio-keyboard-response","324","204658","0.0-1.0-323.0","",""
"null","sound/msl/dog.wav","null","audio-keyboard-response","325","205172","0.0-1.0-324.0","",""
"null","sound/msl/slide_whistle.wav","null","audio-keyboard-response","326","205677","0.0-1.0-325.0","",""
"null","sound/msl/frog.wav","null","audio-keyboard-response","327","206200","0.0-1.0-326.0","",""
"null","sound/msl/goat.wav","null","audio-keyboard-response","328","206749","0.0-1.0-327.0","",""
"null","sound/msl/door_bell.wav","null","audio-keyboard-response","329","207267","0.0-1.0-328.0","",""
"null","sound/msl/door.wav","null","audio-keyboard-response","330","207779","0.0-1.0-329.0","",""
"null","sound/msl/duck.wav","null","audio-keyboard-response","331","208287","0.0-1.0-330.0","",""
"null","sound/msl/cat.wav","null","audio-keyboard-response","332","208800","0.0-1.0-331.0","",""
"null","sound/msl/clock.wav","null","audio-keyboard-response","333","209357","0.0-1.0-332.0","",""
"null","sound/msl/cow.wav","null","audio-keyboard-response","334","209879","0.0-1.0-333.0","",""
"null","sound/msl/boing.wav","null","audio-keyboard-response","335","210388","0.0-1.0-334.0","",""
"null","sound/msl/bird.wav","null","audio-keyboard-response","336","210909","0.0-1.0-335.0","",""
"null","sound/msl/goat.wav","null","audio-keyboard-response","337","211459","0.0-1.0-336.0","",""
"null","sound/msl/door_bell.wav","null","audio-keyboard-response","338","211968","0.0-1.0-337.0","",""
"null","sound/msl/door.wav","null","audio-keyboard-response","339","212477","0.0-1.0-338.0","",""
"null","sound/msl/Water.wav","null","audio-keyboard-response","340","212998","0.0-1.0-339.0","",""
"null","sound/msl/ding.wav","null","audio-keyboard-response","341","213517","0.0-1.0-340.0","",""
"null","sound/msl/organ.wav","null","audio-keyboard-response","342","214027","0.0-1.0-341.0","",""
"null","sound/msl/cow.wav","null","audio-keyboard-response","343","214548","0.0-1.0-342.0","",""
"null","sound/msl/boing.wav","null","audio-keyboard-response","344","215059","0.0-1.0-343.0","",""
"null","sound/msl/bird.wav","null","audio-keyboard-response","345","215567","0.0-1.0-344.0","",""
"null","sound/msl/Water.wav","null","audio-keyboard-response","346","216091","0.0-1.0-345.0","",""
"null","sound/msl/ding.wav","null","audio-keyboard-response","347","216598","0.0-1.0-346.0","",""
"null","sound/msl/organ.wav","null","audio-keyboard-response","348","217108","0.0-1.0-347.0","",""
"null","sound/msl/goat.wav","null","audio-keyboard-response","349","217658","0.0-1.0-348.0","",""
"null","sound/msl/door_bell.wav","null","audio-keyboard-response","350","218168","0.0-1.0-349.0","",""
"null","sound/msl/door.wav","null","audio-keyboard-response","351","218677","0.0-1.0-350.0","",""
"null","sound/msl/duck.wav","null","audio-keyboard-response","352","219197","0.0-1.0-351.0","",""
"null","sound/msl/cat.wav","null","audio-keyboard-response","353","219708","0.0-1.0-352.0","",""
"null","sound/msl/clock.wav","null","audio-keyboard-response","354","220268","0.0-1.0-353.0","",""
"null","sound/msl/cow.wav","null","audio-keyboard-response","355","220788","0.0-1.0-354.0","",""
"null","sound/msl/boing.wav","null","audio-keyboard-response","356","221297","0.0-1.0-355.0","",""
"null","sound/msl/bird.wav","null","audio-keyboard-response","357","221808","0.0-1.0-356.0","",""
"null","sound/msl/Water.wav","null","audio-keyboard-response","358","222327","0.0-1.0-357.0","",""
"null","sound/msl/ding.wav","null","audio-keyboard-response","359","222837","0.0-1.0-358.0","",""
"null","sound/msl/organ.wav","null","audio-keyboard-response","360","223348","0.0-1.0-359.0","",""
"33541","Instructions2-eng.png","49","image-keyboard-response","361","256890","0.0-2.0","",""
"null","sound/msl/cow.wav","null","audio-keyboard-response","362","257397","0.0-3.0-0.0","",""
"null","sound/msl/cat.wav","null","audio-keyboard-response","363","257907","0.0-3.0-1.0","",""
"null","sound/msl/organ.wav","null","audio-keyboard-response","364","258418","0.0-3.0-2.0","",""
"null","sound/asl/silence.wav","null","audio-keyboard-response","365","258929","0.0-3.0-3.0","",""
"null","sound/msl/goat.wav","null","audio-keyboard-response","366","259478","0.0-3.0-4.0","",""
"null","sound/msl/door_bell.wav","null","audio-keyboard-response","367","259998","0.0-3.0-5.0","",""
"null","sound/msl/door.wav","null","audio-keyboard-response","368","260508","0.0-3.0-6.0","",""
"3829","sound/asl/silence.wav","49","audio-keyboard-response","369","264343","0.0-3.0-7.0","false",""
"null","sound/msl/goat.wav","null","audio-keyboard-response","370","264887","0.0-4.0-0.0","",""
"null","sound/msl/boing.wav","null","audio-keyboard-response","371","265399","0.0-4.0-1.0","",""
"null","sound/msl/clock.wav","null","audio-keyboard-response","372","265957","0.0-4.0-2.0","",""
"null","sound/asl/silence.wav","null","audio-keyboard-response","373","266470","0.0-4.0-3.0","",""
"null","sound/msl/cow.wav","null","audio-keyboard-response","374","266988","0.0-4.0-4.0","",""
"null","sound/msl/boing.wav","null","audio-keyboard-response","375","267497","0.0-4.0-5.0","",""
"null","sound/msl/bird.wav","null","audio-keyboard-response","376","268007","0.0-4.0-6.0","",""
"3488","sound/asl/silence.wav","50","audio-keyboard-response","377","271498","0.0-4.0-7.0","true",""
"null","sound/msl/duck.wav","null","audio-keyboard-response","378","272008","0.0-5.0-0.0","",""
"null","sound/msl/ding.wav","null","audio-keyboard-response","379","272518","0.0-5.0-1.0","",""
"null","sound/msl/frog.wav","null","audio-keyboard-response","380","273040","0.0-5.0-2.0","",""
"null","sound/asl/silence.wav","null","audio-keyboard-response","381","273553","0.0-5.0-3.0","",""
"null","sound/msl/dog.wav","null","audio-keyboard-response","382","274067","0.0-5.0-4.0","",""
"null","sound/msl/slide_whistle.wav","null","audio-keyboard-response","383","274587","0.0-5.0-5.0","",""
"null","sound/msl/frog.wav","null","audio-keyboard-response","384","275108","0.0-5.0-6.0","",""
"3229","sound/asl/silence.wav","50","audio-keyboard-response","385","278346","0.0-5.0-7.0","true",""
"null","sound/msl/goat.wav","null","audio-keyboard-response","386","278887","0.0-6.0-0.0","",""
"null","sound/msl/boing.wav","null","audio-keyboard-response","387","279400","0.0-6.0-1.0","",""
"null","sound/msl/clock.wav","null","audio-keyboard-response","388","279958","0.0-6.0-2.0","",""
"null","sound/asl/silence.wav","null","audio-keyboard-response","389","280473","0.0-6.0-3.0","",""
"null","sound/msl/duck.wav","null","audio-keyboard-response","390","280990","0.0-6.0-4.0","",""
"null","sound/msl/cat.wav","null","audio-keyboard-response","391","281498","0.0-6.0-5.0","",""
"null","sound/msl/clock.wav","null","audio-keyboard-response","392","282057","0.0-6.0-6.0","",""
"821","sound/asl/silence.wav","49","audio-keyboard-response","393","282880","0.0-6.0-7.0","false",""
"null","sound/msl/dog.wav","null","audio-keyboard-response","394","283398","0.0-7.0-0.0","",""
"null","sound/msl/slide_whistle.wav","null","audio-keyboard-response","395","283918","0.0-7.0-1.0","",""
"null","sound/msl/frog.wav","null","audio-keyboard-response","396","284440","0.0-7.0-2.0","",""
"null","sound/asl/silence.wav","null","audio-keyboard-response","397","284954","0.0-7.0-3.0","",""
"null","sound/msl/dog.wav","null","audio-keyboard-response","398","285469","0.0-7.0-4.0","",""
"null","sound/msl/door_bell.wav","null","audio-keyboard-response","399","285988","0.0-7.0-5.0","",""
"null","sound/msl/bird.wav","null","audio-keyboard-response","400","286509","0.0-7.0-6.0","",""
"869","sound/asl/silence.wav","49","audio-keyboard-response","401","287381","0.0-7.0-7.0","true",""
"null","sound/msl/dog.wav","null","audio-keyboard-response","402","287887","0.0-8.0-0.0","",""
"null","sound/msl/door_bell.wav","null","audio-keyboard-response","403","288398","0.0-8.0-1.0","",""
"null","sound/msl/bird.wav","null","audio-keyboard-response","404","288917","0.0-8.0-2.0","",""
"null","sound/asl/silence.wav","null","audio-keyboard-response","405","289425","0.0-8.0-3.0","",""
"null","sound/msl/goat.wav","null","audio-keyboard-response","406","289968","0.0-8.0-4.0","",""
"null","sound/msl/door_bell.wav","null","audio-keyboard-response","407","290480","0.0-8.0-5.0","",""
"null","sound/msl/door.wav","null","audio-keyboard-response","408","290987","0.0-8.0-6.0","",""
"669","sound/asl/silence.wav","50","audio-keyboard-response","409","291658","0.0-8.0-7.0","true",""
"null","sound/msl/Water.wav","null","audio-keyboard-response","410","292177","0.0-9.0-0.0","",""
"null","sound/msl/slide_whistle.wav","null","audio-keyboard-response","411","292687","0.0-9.0-1.0","",""
"null","sound/msl/door.wav","null","audio-keyboard-response","412","293198","0.0-9.0-2.0","",""
"null","sound/asl/silence.wav","null","audio-keyboard-response","413","293713","0.0-9.0-3.0","",""
"null","sound/msl/duck.wav","null","audio-keyboard-response","414","294227","0.0-9.0-4.0","",""
"null","sound/msl/cat.wav","null","audio-keyboard-response","415","294738","0.0-9.0-5.0","",""
"null","sound/msl/clock.wav","null","audio-keyboard-response","416","295297","0.0-9.0-6.0","",""
"811","sound/asl/silence.wav","50","audio-keyboard-response","417","296117","0.0-9.0-7.0","true",""
"null","sound/msl/cow.wav","null","audio-keyboard-response","418","296628","0.0-10.0-0.0","",""
"null","sound/msl/cat.wav","null","audio-keyboard-response","419","297138","0.0-10.0-1.0","",""
"null","sound/msl/organ.wav","null","audio-keyboard-response","420","297648","0.0-10.0-2.0","",""
"null","sound/asl/silence.wav","null","audio-keyboard-response","421","298161","0.0-10.0-3.0","",""
"null","sound/msl/dog.wav","null","audio-keyboard-response","422","298677","0.0-10.0-4.0","",""
"null","sound/msl/slide_whistle.wav","null","audio-keyboard-response","423","299198","0.0-10.0-5.0","",""
"null","sound/msl/frog.wav","null","audio-keyboard-response","424","299720","0.0-10.0-6.0","",""
"4589","sound/asl/silence.wav","50","audio-keyboard-response","425","304313","0.0-10.0-7.0","true",""
"null","sound/msl/Water.wav","null","audio-keyboard-response","426","304830","0.0-11.0-0.0","",""
"null","sound/msl/slide_whistle.wav","null","audio-keyboard-response","427","305347","0.0-11.0-1.0","",""
"null","sound/msl/door.wav","null","audio-keyboard-response","428","305857","0.0-11.0-2.0","",""
"null","sound/asl/silence.wav","null","audio-keyboard-response","429","306369","0.0-11.0-3.0","",""
"null","sound/msl/Water.wav","null","audio-keyboard-response","430","306887","0.0-11.0-4.0","",""
"null","sound/msl/ding.wav","null","audio-keyboard-response","431","307397","0.0-11.0-5.0","",""
"null","sound/msl/organ.wav","null","audio-keyboard-response","432","307908","0.0-11.0-6.0","",""
"741","sound/asl/silence.wav","50","audio-keyboard-response","433","308655","0.0-11.0-7.0","true",""
"null","sound/msl/Water.wav","null","audio-keyboard-response","434","309167","0.0-12.0-0.0","",""
"null","sound/msl/slide_whistle.wav","null","audio-keyboard-response","435","309677","0.0-12.0-1.0","",""
"null","sound/msl/door.wav","null","audio-keyboard-response","436","310188","0.0-12.0-2.0","",""
"null","sound/asl/silence.wav","null","audio-keyboard-response","437","310689","0.0-12.0-3.0","",""
"null","sound/msl/cow.wav","null","audio-keyboard-response","438","311197","0.0-12.0-4.0","",""
"null","sound/msl/boing.wav","null","audio-keyboard-response","439","311710","0.0-12.0-5.0","",""
"null","sound/msl/bird.wav","null","audio-keyboard-response","440","312228","0.0-12.0-6.0","",""
"1640","sound/asl/silence.wav","50","audio-keyboard-response","441","313874","0.0-12.0-7.0","true",""
"null","sound/msl/goat.wav","null","audio-keyboard-response","442","314417","0.0-13.0-0.0","",""
"null","sound/msl/door_bell.wav","null","audio-keyboard-response","443","314927","0.0-13.0-1.0","",""
"null","sound/msl/door.wav","null","audio-keyboard-response","444","315438","0.0-13.0-2.0","",""
"null","sound/asl/silence.wav","null","audio-keyboard-response","445","315950","0.0-13.0-3.0","",""
"null","sound/msl/Water.wav","null","audio-keyboard-response","446","316469","0.0-13.0-4.0","",""
"null","sound/msl/slide_whistle.wav","null","audio-keyboard-response","447","316990","0.0-13.0-5.0","",""
"null","sound/msl/door.wav","null","audio-keyboard-response","448","317500","0.0-13.0-6.0","",""
"392","sound/asl/silence.wav","50","audio-keyboard-response","449","317896","0.0-13.0-7.0","false",""
"null","sound/msl/duck.wav","null","audio-keyboard-response","450","318399","0.0-14.0-0.0","",""
"null","sound/msl/cat.wav","null","audio-keyboard-response","451","318907","0.0-14.0-1.0","",""
"null","sound/msl/clock.wav","null","audio-keyboard-response","452","319467","0.0-14.0-2.0","",""
"null","sound/asl/silence.wav","null","audio-keyboard-response","453","319974","0.0-14.0-3.0","",""
"null","sound/msl/cow.wav","null","audio-keyboard-response","454","320477","0.0-14.0-4.0","",""
"null","sound/msl/cat.wav","null","audio-keyboard-response","455","320988","0.0-14.0-5.0","",""
"null","sound/msl/organ.wav","null","audio-keyboard-response","456","321497","0.0-14.0-6.0","",""
"691","sound/asl/silence.wav","50","audio-keyboard-response","457","322194","0.0-14.0-7.0","false",""
"null","sound/msl/cow.wav","null","audio-keyboard-response","458","322709","0.0-15.0-0.0","",""
"null","sound/msl/boing.wav","null","audio-keyboard-response","459","323217","0.0-15.0-1.0","",""
"null","sound/msl/bird.wav","null","audio-keyboard-response","460","323727","0.0-15.0-2.0","",""
"null","sound/asl/silence.wav","null","audio-keyboard-response","461","324232","0.0-15.0-3.0","",""
"null","sound/msl/duck.wav","null","audio-keyboard-response","462","324747","0.0-15.0-4.0","",""
"null","sound/msl/ding.wav","null","audio-keyboard-response","463","325269","0.0-15.0-5.0","",""
"null","sound/msl/frog.wav","null","audio-keyboard-response","464","325789","0.0-15.0-6.0","",""
"680","sound/asl/silence.wav","49","audio-keyboard-response","465","326470","0.0-15.0-7.0","true",""
"null","sound/msl/Water.wav","null","audio-keyboard-response","466","326987","0.0-16.0-0.0","",""
"null","sound/msl/ding.wav","null","audio-keyboard-response","467","327511","0.0-16.0-1.0","",""
"null","sound/msl/organ.wav","null","audio-keyboard-response","468","328017","0.0-16.0-2.0","",""
"null","sound/asl/silence.wav","null","audio-keyboard-response","469","328530","0.0-16.0-3.0","",""
"null","sound/msl/duck.wav","null","audio-keyboard-response","470","329040","0.0-16.0-4.0","",""
"null","sound/msl/ding.wav","null","audio-keyboard-response","471","329558","0.0-16.0-5.0","",""
"null","sound/msl/frog.wav","null","audio-keyboard-response","472","330078","0.0-16.0-6.0","",""
"411","sound/asl/silence.wav","49","audio-keyboard-response","473","330492","0.0-16.0-7.0","true",""
"null","sound/msl/dog.wav","null","audio-keyboard-response","474","330998","0.0-17.0-0.0","",""
"null","sound/msl/door_bell.wav","null","audio-keyboard-response","475","331518","0.0-17.0-1.0","",""
"null","sound/msl/bird.wav","null","audio-keyboard-response","476","332037","0.0-17.0-2.0","",""
"null","sound/asl/silence.wav","null","audio-keyboard-response","477","332539","0.0-17.0-3.0","",""
"null","sound/msl/Water.wav","null","audio-keyboard-response","478","333057","0.0-17.0-4.0","",""
"null","sound/msl/ding.wav","null","audio-keyboard-response","479","333568","0.0-17.0-5.0","",""
"null","sound/msl/organ.wav","null","audio-keyboard-response","480","334078","0.0-17.0-6.0","",""
"651","sound/asl/silence.wav","50","audio-keyboard-response","481","334736","0.0-17.0-7.0","true",""
"null","sound/msl/goat.wav","null","audio-keyboard-response","482","335278","0.0-18.0-0.0","",""
"null","sound/msl/boing.wav","null","audio-keyboard-response","483","335787","0.0-18.0-1.0","",""
"null","sound/msl/clock.wav","null","audio-keyboard-response","484","336348","0.0-18.0-2.0","",""
"null","sound/asl/silence.wav","null","audio-keyboard-response","485","336861","0.0-18.0-3.0","",""
"null","sound/msl/goat.wav","null","audio-keyboard-response","486","337408","0.0-18.0-4.0","",""
"null","sound/msl/door_bell.wav","null","audio-keyboard-response","487","337919","0.0-18.0-5.0","",""
"null","sound/msl/door.wav","null","audio-keyboard-response","488","338427","0.0-18.0-6.0","",""
"1229","sound/asl/silence.wav","49","audio-keyboard-response","489","339664","0.0-18.0-7.0","false",""
"null","sound/msl/dog.wav","null","audio-keyboard-response","490","340167","0.0-19.0-0.0","",""
"null","sound/msl/slide_whistle.wav","null","audio-keyboard-response","491","340677","0.0-19.0-1.0","",""
"null","sound/msl/frog.wav","null","audio-keyboard-response","492","341197","0.0-19.0-2.0","",""
"null","sound/asl/silence.wav","null","audio-keyboard-response","493","341709","0.0-19.0-3.0","",""
"null","sound/msl/Water.wav","null","audio-keyboard-response","494","342228","0.0-19.0-4.0","",""
"null","sound/msl/slide_whistle.wav","null","audio-keyboard-response","495","342747","0.0-19.0-5.0","",""
"null","sound/msl/door.wav","null","audio-keyboard-response","496","343257","0.0-19.0-6.0","",""
"472","sound/asl/silence.wav","49","audio-keyboard-response","497","343729","0.0-19.0-7.0","true",""
"null","sound/msl/Water.wav","null","audio-keyboard-response","498","344248","0.0-20.0-0.0","",""
"null","sound/msl/ding.wav","null","audio-keyboard-response","499","344757","0.0-20.0-1.0","",""
"null","sound/msl/organ.wav","null","audio-keyboard-response","500","345267","0.0-20.0-2.0","",""
"null","sound/asl/silence.wav","null","audio-keyboard-response","501","345769","0.0-20.0-3.0","",""
"null","sound/msl/cow.wav","null","audio-keyboard-response","502","346278","0.0-20.0-4.0","",""
"null","sound/msl/cat.wav","null","audio-keyboard-response","503","346788","0.0-20.0-5.0","",""
"null","sound/msl/organ.wav","null","audio-keyboard-response","504","347297","0.0-20.0-6.0","",""
"1120","sound/asl/silence.wav","49","audio-keyboard-response","505","348421","0.0-20.0-7.0","true",""
"null","sound/msl/dog.wav","null","audio-keyboard-response","506","348927","0.0-21.0-0.0","",""
"null","sound/msl/door_bell.wav","null","audio-keyboard-response","507","349437","0.0-21.0-1.0","",""
"null","sound/msl/bird.wav","null","audio-keyboard-response","508","349957","0.0-21.0-2.0","",""
"null","sound/asl/silence.wav","null","audio-keyboard-response","509","350465","0.0-21.0-3.0","",""
"null","sound/msl/cow.wav","null","audio-keyboard-response","510","350969","0.0-21.0-4.0","",""
"null","sound/msl/boing.wav","null","audio-keyboard-response","511","351480","0.0-21.0-5.0","",""
"null","sound/msl/bird.wav","null","audio-keyboard-response","512","352000","0.0-21.0-6.0","",""
"1979","sound/asl/silence.wav","50","audio-keyboard-response","513","353986","0.0-21.0-7.0","true",""
"null","sound/msl/goat.wav","null","audio-keyboard-response","514","354530","0.0-22.0-0.0","",""
"null","sound/msl/door_bell.wav","null","audio-keyboard-response","515","355039","0.0-22.0-1.0","",""
"null","sound/msl/door.wav","null","audio-keyboard-response","516","355547","0.0-22.0-2.0","",""
"null","sound/asl/silence.wav","null","audio-keyboard-response","517","356048","0.0-22.0-3.0","",""
"null","sound/msl/duck.wav","null","audio-keyboard-response","518","356559","0.0-22.0-4.0","",""
"null","sound/msl/ding.wav","null","audio-keyboard-response","519","357077","0.0-22.0-5.0","",""
"null","sound/msl/frog.wav","null","audio-keyboard-response","520","357597","0.0-22.0-6.0","",""
"491","sound/asl/silence.wav","49","audio-keyboard-response","521","358092","0.0-22.0-7.0","true",""
"null","sound/msl/dog.wav","null","audio-keyboard-response","522","358598","0.0-23.0-0.0","",""
"null","sound/msl/slide_whistle.wav","null","audio-keyboard-response","523","359117","0.0-23.0-1.0","",""
"null","sound/msl/frog.wav","null","audio-keyboard-response","524","359638","0.0-23.0-2.0","",""
"null","sound/asl/silence.wav","null","audio-keyboard-response","525","360138","0.0-23.0-3.0","",""
"null","sound/msl/goat.wav","null","audio-keyboard-response","526","360687","0.0-23.0-4.0","",""
"null","sound/msl/boing.wav","null","audio-keyboard-response","527","361198","0.0-23.0-5.0","",""
"null","sound/msl/clock.wav","null","audio-keyboard-response","528","361757","0.0-23.0-6.0","",""
"520","sound/asl/silence.wav","50","audio-keyboard-response","529","362279","0.0-23.0-7.0","false",""
"null","sound/msl/duck.wav","null","audio-keyboard-response","530","362798","0.0-24.0-0.0","",""
"null","sound/msl/cat.wav","null","audio-keyboard-response","531","363307","0.0-24.0-1.0","",""
"null","sound/msl/clock.wav","null","audio-keyboard-response","532","363867","0.0-24.0-2.0","",""
"null","sound/asl/silence.wav","null","audio-keyboard-response","533","364370","0.0-24.0-3.0","",""
"null","sound/msl/dog.wav","null","audio-keyboard-response","534","364878","0.0-24.0-4.0","",""
"null","sound/msl/door_bell.wav","null","audio-keyboard-response","535","365398","0.0-24.0-5.0","",""
"null","sound/msl/bird.wav","null","audio-keyboard-response","536","365919","0.0-24.0-6.0","",""
"509","sound/asl/silence.wav","49","audio-keyboard-response","537","366428","0.0-24.0-7.0","true",""
"null","sound/msl/duck.wav","null","audio-keyboard-response","538","366948","0.0-25.0-0.0","",""
"null","sound/msl/cat.wav","null","audio-keyboard-response","539","367457","0.0-25.0-1.0","",""
"null","sound/msl/clock.wav","null","audio-keyboard-response","540","368017","0.0-25.0-2.0","",""
"null","sound/asl/silence.wav","null","audio-keyboard-response","541","368523","0.0-25.0-3.0","",""
"null","sound/msl/duck.wav","null","audio-keyboard-response","542","369037","0.0-25.0-4.0","",""
"null","sound/msl/ding.wav","null","audio-keyboard-response","543","369558","0.0-25.0-5.0","",""
"null","sound/msl/frog.wav","null","audio-keyboard-response","544","370077","0.0-25.0-6.0","",""
"1699","sound/asl/silence.wav","50","audio-keyboard-response","545","371783","0.0-25.0-7.0","false",""
"null","sound/msl/cow.wav","null","audio-keyboard-response","546","372288","0.0-26.0-0.0","",""
"null","sound/msl/boing.wav","null","audio-keyboard-response","547","372797","0.0-26.0-1.0","",""
"null","sound/msl/bird.wav","null","audio-keyboard-response","548","373318","0.0-26.0-2.0","",""
"null","sound/asl/silence.wav","null","audio-keyboard-response","549","373824","0.0-26.0-3.0","",""
"null","sound/msl/cow.wav","null","audio-keyboard-response","550","374327","0.0-26.0-4.0","",""
"null","sound/msl/cat.wav","null","audio-keyboard-response","551","374838","0.0-26.0-5.0","",""
"null","sound/msl/organ.wav","null","audio-keyboard-response","552","375348","0.0-26.0-6.0","",""
"389","sound/asl/silence.wav","50","audio-keyboard-response","553","375746","0.0-26.0-7.0","false",""
"null","sound/msl/goat.wav","null","audio-keyboard-response","554","376287","0.0-27.0-0.0","",""
"null","sound/msl/boing.wav","null","audio-keyboard-response","555","376798","0.0-27.0-1.0","",""
"null","sound/msl/clock.wav","null","audio-keyboard-response","556","377358","0.0-27.0-2.0","",""
"null","sound/asl/silence.wav","null","audio-keyboard-response","557","377870","0.0-27.0-3.0","",""
"null","sound/msl/Water.wav","null","audio-keyboard-response","558","378388","0.0-27.0-4.0","",""
"null","sound/msl/ding.wav","null","audio-keyboard-response","559","378907","0.0-27.0-5.0","",""
"null","sound/msl/organ.wav","null","audio-keyboard-response","560","379418","0.0-27.0-6.0","",""
"331","sound/asl/silence.wav","50","audio-keyboard-response","561","379752","0.0-27.0-7.0","true",""
"4079","","","instructions","562","383832","0.0-28.0","","[{""page_index"":0,""viewing_time"":4079}]"
