"rt","stimulus","key_press","trial_type","trial_index","time_elapsed","internal_node_id","correct","view_history"
"15062","alien.jpg","49","image-keyboard-response","0","15067","0.0-0.0","",""
"null","sound/msl/duck.wav","null","audio-keyboard-response","1","15581","0.0-1.0-0.0","",""
"null","sound/msl/door_bell.wav","null","audio-keyboard-response","2","16090","0.0-1.0-1.0","",""
"null","sound/msl/ding.wav","null","audio-keyboard-response","3","16610","0.0-1.0-2.0","",""
"null","sound/msl/goat.wav","null","audio-keyboard-response","4","17160","0.0-1.0-3.0","",""
"null","sound/msl/organ.wav","null","audio-keyboard-response","5","17671","0.0-1.0-4.0","",""
"null","sound/msl/boing.wav","null","audio-keyboard-response","6","18180","0.0-1.0-5.0","",""
"null","sound/msl/Water.wav","null","audio-keyboard-response","7","18700","0.0-1.0-6.0","",""
"null","sound/msl/slide_whistle.wav","null","audio-keyboard-response","8","19210","0.0-1.0-7.0","",""
"null","sound/msl/frog.wav","null","audio-keyboard-response","9","19731","0.0-1.0-8.0","",""
"null","sound/msl/clock.wav","null","audio-keyboard-response","10","20291","0.0-1.0-9.0","",""
"null","sound/msl/door.wav","null","audio-keyboard-response","11","20801","0.0-1.0-10.0","",""
"null","sound/msl/cow.wav","null","audio-keyboard-response","12","21321","0.0-1.0-11.0","",""
"null","sound/msl/goat.wav","null","audio-keyboard-response","13","21870","0.0-1.0-12.0","",""
"null","sound/msl/organ.wav","null","audio-keyboard-response","14","22381","0.0-1.0-13.0","",""
"null","sound/msl/boing.wav","null","audio-keyboard-response","15","22891","0.0-1.0-14.0","",""
"null","sound/msl/duck.wav","null","audio-keyboard-response","16","23411","0.0-1.0-15.0","",""
"null","sound/msl/door_bell.wav","null","audio-keyboard-response","17","23931","0.0-1.0-16.0","",""
"null","sound/msl/ding.wav","null","audio-keyboard-response","18","24451","0.0-1.0-17.0","",""
"null","sound/msl/cat.wav","null","audio-keyboard-response","19","24961","0.0-1.0-18.0","",""
"null","sound/msl/bird.wav","null","audio-keyboard-response","20","25482","0.0-1.0-19.0","",""
"null","sound/msl/dog.wav","null","audio-keyboard-response","21","26001","0.0-1.0-20.0","",""
"null","sound/msl/clock.wav","null","audio-keyboard-response","22","26561","0.0-1.0-21.0","",""
"null","sound/msl/door.wav","null","audio-keyboard-response","23","27071","0.0-1.0-22.0","",""
"null","sound/msl/cow.wav","null","audio-keyboard-response","24","27581","0.0-1.0-23.0","",""
"null","sound/msl/Water.wav","null","audio-keyboard-response","25","28101","0.0-1.0-24.0","",""
"null","sound/msl/slide_whistle.wav","null","audio-keyboard-response","26","28612","0.0-1.0-25.0","",""
"null","sound/msl/frog.wav","null","audio-keyboard-response","27","29132","0.0-1.0-26.0","",""
"null","sound/msl/duck.wav","null","audio-keyboard-response","28","29651","0.0-1.0-27.0","",""
"null","sound/msl/door_bell.wav","null","audio-keyboard-response","29","30172","0.0-1.0-28.0","",""
"null","sound/msl/ding.wav","null","audio-keyboard-response","30","30687","0.0-1.0-29.0","",""
"null","sound/msl/goat.wav","null","audio-keyboard-response","31","31237","0.0-1.0-30.0","",""
"null","sound/msl/organ.wav","null","audio-keyboard-response","32","31747","0.0-1.0-31.0","",""
"null","sound/msl/boing.wav","null","audio-keyboard-response","33","32257","0.0-1.0-32.0","",""
"null","sound/msl/cat.wav","null","audio-keyboard-response","34","32767","0.0-1.0-33.0","",""
"null","sound/msl/bird.wav","null","audio-keyboard-response","35","33287","0.0-1.0-34.0","",""
"null","sound/msl/dog.wav","null","audio-keyboard-response","36","33807","0.0-1.0-35.0","",""
"null","sound/msl/Water.wav","null","audio-keyboard-response","37","34327","0.0-1.0-36.0","",""
"null","sound/msl/slide_whistle.wav","null","audio-keyboard-response","38","34847","0.0-1.0-37.0","",""
"null","sound/msl/frog.wav","null","audio-keyboard-response","39","35367","0.0-1.0-38.0","",""
"null","sound/msl/clock.wav","null","audio-keyboard-response","40","35928","0.0-1.0-39.0","",""
"null","sound/msl/door.wav","null","audio-keyboard-response","41","36438","0.0-1.0-40.0","",""
"null","sound/msl/cow.wav","null","audio-keyboard-response","42","36957","0.0-1.0-41.0","",""
"null","sound/msl/cat.wav","null","audio-keyboard-response","43","37468","0.0-1.0-42.0","",""
"null","sound/msl/bird.wav","null","audio-keyboard-response","44","37977","0.0-1.0-43.0","",""
"null","sound/msl/dog.wav","null","audio-keyboard-response","45","38487","0.0-1.0-44.0","",""
"null","sound/msl/goat.wav","null","audio-keyboard-response","46","39038","0.0-1.0-45.0","",""
"null","sound/msl/organ.wav","null","audio-keyboard-response","47","39547","0.0-1.0-46.0","",""
"null","sound/msl/boing.wav","null","audio-keyboard-response","48","40058","0.0-1.0-47.0","",""
"null","sound/msl/Water.wav","null","audio-keyboard-response","49","40578","0.0-1.0-48.0","",""
"null","sound/msl/slide_whistle.wav","null","audio-keyboard-response","50","41088","0.0-1.0-49.0","",""
"null","sound/msl/frog.wav","null","audio-keyboard-response","51","41608","0.0-1.0-50.0","",""
"null","sound/msl/duck.wav","null","audio-keyboard-response","52","42129","0.0-1.0-51.0","",""
"null","sound/msl/door_bell.wav","null","audio-keyboard-response","53","42648","0.0-1.0-52.0","",""
"null","sound/msl/ding.wav","null","audio-keyboard-response","54","43169","0.0-1.0-53.0","",""
"null","sound/msl/goat.wav","null","audio-keyboard-response","55","43719","0.0-1.0-54.0","",""
"null","sound/msl/organ.wav","null","audio-keyboard-response","56","44229","0.0-1.0-55.0","",""
"null","sound/msl/boing.wav","null","audio-keyboard-response","57","44739","0.0-1.0-56.0","",""
"null","sound/msl/Water.wav","null","audio-keyboard-response","58","45259","0.0-1.0-57.0","",""
"null","sound/msl/slide_whistle.wav","null","audio-keyboard-response","59","45768","0.0-1.0-58.0","",""
"null","sound/msl/frog.wav","null","audio-keyboard-response","60","46289","0.0-1.0-59.0","",""
"null","sound/msl/clock.wav","null","audio-keyboard-response","61","46849","0.0-1.0-60.0","",""
"null","sound/msl/door.wav","null","audio-keyboard-response","62","47359","0.0-1.0-61.0","",""
"null","sound/msl/cow.wav","null","audio-keyboard-response","63","47879","0.0-1.0-62.0","",""
"null","sound/msl/cat.wav","null","audio-keyboard-response","64","48389","0.0-1.0-63.0","",""
"null","sound/msl/bird.wav","null","audio-keyboard-response","65","48899","0.0-1.0-64.0","",""
"null","sound/msl/dog.wav","null","audio-keyboard-response","66","49409","0.0-1.0-65.0","",""
"null","sound/msl/goat.wav","null","audio-keyboard-response","67","49959","0.0-1.0-66.0","",""
"null","sound/msl/organ.wav","null","audio-keyboard-response","68","50469","0.0-1.0-67.0","",""
"null","sound/msl/boing.wav","null","audio-keyboard-response","69","50980","0.0-1.0-68.0","",""
"null","sound/msl/duck.wav","null","audio-keyboard-response","70","51489","0.0-1.0-69.0","",""
"null","sound/msl/door_bell.wav","null","audio-keyboard-response","71","52009","0.0-1.0-70.0","",""
"null","sound/msl/ding.wav","null","audio-keyboard-response","72","52530","0.0-1.0-71.0","",""
"null","sound/msl/Water.wav","null","audio-keyboard-response","73","53050","0.0-1.0-72.0","",""
"null","sound/msl/slide_whistle.wav","null","audio-keyboard-response","74","53570","0.0-1.0-73.0","",""
"null","sound/msl/frog.wav","null","audio-keyboard-response","75","54090","0.0-1.0-74.0","",""
"null","sound/msl/clock.wav","null","audio-keyboard-response","76","54650","0.0-1.0-75.0","",""
"null","sound/msl/door.wav","null","audio-keyboard-response","77","55160","0.0-1.0-76.0","",""
"null","sound/msl/cow.wav","null","audio-keyboard-response","78","55681","0.0-1.0-77.0","",""
"null","sound/msl/Water.wav","null","audio-keyboard-response","79","56200","0.0-1.0-78.0","",""
"null","sound/msl/slide_whistle.wav","null","audio-keyboard-response","80","56720","0.0-1.0-79.0","",""
"null","sound/msl/frog.wav","null","audio-keyboard-response","81","57241","0.0-1.0-80.0","",""
"null","sound/msl/cat.wav","null","audio-keyboard-response","82","57750","0.0-1.0-81.0","",""
"null","sound/msl/bird.wav","null","audio-keyboard-response","83","58261","0.0-1.0-82.0","",""
"null","sound/msl/dog.wav","null","audio-keyboard-response","84","58771","0.0-1.0-83.0","",""
"null","sound/msl/duck.wav","null","audio-keyboard-response","85","59290","0.0-1.0-84.0","",""
"null","sound/msl/door_bell.wav","null","audio-keyboard-response","86","59810","0.0-1.0-85.0","",""
"null","sound/msl/ding.wav","null","audio-keyboard-response","87","60331","0.0-1.0-86.0","",""
"null","sound/msl/goat.wav","null","audio-keyboard-response","88","60881","0.0-1.0-87.0","",""
"null","sound/msl/organ.wav","null","audio-keyboard-response","89","61391","0.0-1.0-88.0","",""
"null","sound/msl/boing.wav","null","audio-keyboard-response","90","61901","0.0-1.0-89.0","",""
"null","sound/msl/cat.wav","null","audio-keyboard-response","91","62411","0.0-1.0-90.0","",""
"null","sound/msl/bird.wav","null","audio-keyboard-response","92","62931","0.0-1.0-91.0","",""
"null","sound/msl/dog.wav","null","audio-keyboard-response","93","63451","0.0-1.0-92.0","",""
"null","sound/msl/clock.wav","null","audio-keyboard-response","94","64012","0.0-1.0-93.0","",""
"null","sound/msl/door.wav","null","audio-keyboard-response","95","64521","0.0-1.0-94.0","",""
"null","sound/msl/cow.wav","null","audio-keyboard-response","96","65041","0.0-1.0-95.0","",""
"null","sound/msl/Water.wav","null","audio-keyboard-response","97","65561","0.0-1.0-96.0","",""
"null","sound/msl/slide_whistle.wav","null","audio-keyboard-response","98","66082","0.0-1.0-97.0","",""
"null","sound/msl/frog.wav","null","audio-keyboard-response","99","66602","0.0-1.0-98.0","",""
"null","sound/msl/goat.wav","null","audio-keyboard-response","100","67152","0.0-1.0-99.0","",""
"null","sound/msl/organ.wav","null","audio-keyboard-response","101","67661","0.0-1.0-100.0","",""
"null","sound/msl/boing.wav","null","audio-keyboard-response","102","68171","0.0-1.0-101.0","",""
"null","sound/msl/cat.wav","null","audio-keyboard-response","103","68682","0.0-1.0-102.0","",""
"null","sound/msl/bird.wav","null","audio-keyboard-response","104","69202","0.0-1.0-103.0","",""
"null","sound/msl/dog.wav","null","audio-keyboard-response","105","69722","0.0-1.0-104.0","",""
"null","sound/msl/duck.wav","null","audio-keyboard-response","106","70242","0.0-1.0-105.0","",""
"null","sound/msl/door_bell.wav","null","audio-keyboard-response","107","70758","0.0-1.0-106.0","",""
"null","sound/msl/ding.wav","null","audio-keyboard-response","108","71277","0.0-1.0-107.0","",""
"null","sound/msl/goat.wav","null","audio-keyboard-response","109","71827","0.0-1.0-108.0","",""
"null","sound/msl/organ.wav","null","audio-keyboard-response","110","72338","0.0-1.0-109.0","",""
"null","sound/msl/boing.wav","null","audio-keyboard-response","111","72848","0.0-1.0-110.0","",""
"null","sound/msl/clock.wav","null","audio-keyboard-response","112","73409","0.0-1.0-111.0","",""
"null","sound/msl/door.wav","null","audio-keyboard-response","113","73917","0.0-1.0-112.0","",""
"null","sound/msl/cow.wav","null","audio-keyboard-response","114","74437","0.0-1.0-113.0","",""
"null","sound/msl/cat.wav","null","audio-keyboard-response","115","74947","0.0-1.0-114.0","",""
"null","sound/msl/bird.wav","null","audio-keyboard-response","116","75457","0.0-1.0-115.0","",""
"null","sound/msl/dog.wav","null","audio-keyboard-response","117","75968","0.0-1.0-116.0","",""
"null","sound/msl/Water.wav","null","audio-keyboard-response","118","76488","0.0-1.0-117.0","",""
"null","sound/msl/slide_whistle.wav","null","audio-keyboard-response","119","77008","0.0-1.0-118.0","",""
"null","sound/msl/frog.wav","null","audio-keyboard-response","120","77528","0.0-1.0-119.0","",""
"null","sound/msl/duck.wav","null","audio-keyboard-response","121","78047","0.0-1.0-120.0","",""
"null","sound/msl/door_bell.wav","null","audio-keyboard-response","122","78568","0.0-1.0-121.0","",""
"null","sound/msl/ding.wav","null","audio-keyboard-response","123","79088","0.0-1.0-122.0","",""
"null","sound/msl/goat.wav","null","audio-keyboard-response","124","79638","0.0-1.0-123.0","",""
"null","sound/msl/organ.wav","null","audio-keyboard-response","125","80148","0.0-1.0-124.0","",""
"null","sound/msl/boing.wav","null","audio-keyboard-response","126","80658","0.0-1.0-125.0","",""
"null","sound/msl/cat.wav","null","audio-keyboard-response","127","81168","0.0-1.0-126.0","",""
"null","sound/msl/bird.wav","null","audio-keyboard-response","128","81688","0.0-1.0-127.0","",""
"null","sound/msl/dog.wav","null","audio-keyboard-response","129","82209","0.0-1.0-128.0","",""
"null","sound/msl/clock.wav","null","audio-keyboard-response","130","82769","0.0-1.0-129.0","",""
"null","sound/msl/door.wav","null","audio-keyboard-response","131","83279","0.0-1.0-130.0","",""
"null","sound/msl/cow.wav","null","audio-keyboard-response","132","83799","0.0-1.0-131.0","",""
"null","sound/msl/goat.wav","null","audio-keyboard-response","133","84348","0.0-1.0-132.0","",""
"null","sound/msl/organ.wav","null","audio-keyboard-response","134","84859","0.0-1.0-133.0","",""
"null","sound/msl/boing.wav","null","audio-keyboard-response","135","85369","0.0-1.0-134.0","",""
"null","sound/msl/Water.wav","null","audio-keyboard-response","136","85889","0.0-1.0-135.0","",""
"null","sound/msl/slide_whistle.wav","null","audio-keyboard-response","137","86409","0.0-1.0-136.0","",""
"null","sound/msl/frog.wav","null","audio-keyboard-response","138","86929","0.0-1.0-137.0","",""
"null","sound/msl/clock.wav","null","audio-keyboard-response","139","87489","0.0-1.0-138.0","",""
"null","sound/msl/door.wav","null","audio-keyboard-response","140","87999","0.0-1.0-139.0","",""
"null","sound/msl/cow.wav","null","audio-keyboard-response","141","88519","0.0-1.0-140.0","",""
"null","sound/msl/duck.wav","null","audio-keyboard-response","142","89039","0.0-1.0-141.0","",""
"null","sound/msl/door_bell.wav","null","audio-keyboard-response","143","89560","0.0-1.0-142.0","",""
"null","sound/msl/ding.wav","null","audio-keyboard-response","144","90080","0.0-1.0-143.0","",""
"null","sound/msl/cat.wav","null","audio-keyboard-response","145","90590","0.0-1.0-144.0","",""
"null","sound/msl/bird.wav","null","audio-keyboard-response","146","91099","0.0-1.0-145.0","",""
"null","sound/msl/dog.wav","null","audio-keyboard-response","147","91609","0.0-1.0-146.0","",""
"null","sound/msl/Water.wav","null","audio-keyboard-response","148","92129","0.0-1.0-147.0","",""
"null","sound/msl/slide_whistle.wav","null","audio-keyboard-response","149","92650","0.0-1.0-148.0","",""
"null","sound/msl/frog.wav","null","audio-keyboard-response","150","93170","0.0-1.0-149.0","",""
"null","sound/msl/duck.wav","null","audio-keyboard-response","151","93690","0.0-1.0-150.0","",""
"null","sound/msl/door_bell.wav","null","audio-keyboard-response","152","94210","0.0-1.0-151.0","",""
"null","sound/msl/ding.wav","null","audio-keyboard-response","153","94730","0.0-1.0-152.0","",""
"null","sound/msl/goat.wav","null","audio-keyboard-response","154","95280","0.0-1.0-153.0","",""
"null","sound/msl/organ.wav","null","audio-keyboard-response","155","95790","0.0-1.0-154.0","",""
"null","sound/msl/boing.wav","null","audio-keyboard-response","156","96300","0.0-1.0-155.0","",""
"null","sound/msl/clock.wav","null","audio-keyboard-response","157","96860","0.0-1.0-156.0","",""
"null","sound/msl/door.wav","null","audio-keyboard-response","158","97371","0.0-1.0-157.0","",""
"null","sound/msl/cow.wav","null","audio-keyboard-response","159","97890","0.0-1.0-158.0","",""
"null","sound/msl/cat.wav","null","audio-keyboard-response","160","98401","0.0-1.0-159.0","",""
"null","sound/msl/bird.wav","null","audio-keyboard-response","161","98921","0.0-1.0-160.0","",""
"null","sound/msl/dog.wav","null","audio-keyboard-response","162","99441","0.0-1.0-161.0","",""
"null","sound/msl/goat.wav","null","audio-keyboard-response","163","99991","0.0-1.0-162.0","",""
"null","sound/msl/organ.wav","null","audio-keyboard-response","164","100501","0.0-1.0-163.0","",""
"null","sound/msl/boing.wav","null","audio-keyboard-response","165","101011","0.0-1.0-164.0","",""
"null","sound/msl/clock.wav","null","audio-keyboard-response","166","101571","0.0-1.0-165.0","",""
"null","sound/msl/door.wav","null","audio-keyboard-response","167","102081","0.0-1.0-166.0","",""
"null","sound/msl/cow.wav","null","audio-keyboard-response","168","102601","0.0-1.0-167.0","",""
"null","sound/msl/duck.wav","null","audio-keyboard-response","169","103121","0.0-1.0-168.0","",""
"null","sound/msl/door_bell.wav","null","audio-keyboard-response","170","103641","0.0-1.0-169.0","",""
"null","sound/msl/ding.wav","null","audio-keyboard-response","171","104161","0.0-1.0-170.0","",""
"null","sound/msl/Water.wav","null","audio-keyboard-response","172","104682","0.0-1.0-171.0","",""
"null","sound/msl/slide_whistle.wav","null","audio-keyboard-response","173","105201","0.0-1.0-172.0","",""
"null","sound/msl/frog.wav","null","audio-keyboard-response","174","105721","0.0-1.0-173.0","",""
"null","sound/msl/cat.wav","null","audio-keyboard-response","175","106231","0.0-1.0-174.0","",""
"null","sound/msl/bird.wav","null","audio-keyboard-response","176","106742","0.0-1.0-175.0","",""
"null","sound/msl/dog.wav","null","audio-keyboard-response","177","107252","0.0-1.0-176.0","",""
"null","sound/msl/goat.wav","null","audio-keyboard-response","178","107802","0.0-1.0-177.0","",""
"null","sound/msl/organ.wav","null","audio-keyboard-response","179","108312","0.0-1.0-178.0","",""
"null","sound/msl/boing.wav","null","audio-keyboard-response","180","108822","0.0-1.0-179.0","",""
"null","sound/msl/Water.wav","null","audio-keyboard-response","181","109342","0.0-1.0-180.0","",""
"null","sound/msl/slide_whistle.wav","null","audio-keyboard-response","182","109852","0.0-1.0-181.0","",""
"null","sound/msl/frog.wav","null","audio-keyboard-response","183","110372","0.0-1.0-182.0","",""
"null","sound/msl/clock.wav","null","audio-keyboard-response","184","110932","0.0-1.0-183.0","",""
"null","sound/msl/door.wav","null","audio-keyboard-response","185","111437","0.0-1.0-184.0","",""
"null","sound/msl/cow.wav","null","audio-keyboard-response","186","111958","0.0-1.0-185.0","",""
"null","sound/msl/duck.wav","null","audio-keyboard-response","187","112478","0.0-1.0-186.0","",""
"null","sound/msl/door_bell.wav","null","audio-keyboard-response","188","112998","0.0-1.0-187.0","",""
"null","sound/msl/ding.wav","null","audio-keyboard-response","189","113517","0.0-1.0-188.0","",""
"null","sound/msl/cat.wav","null","audio-keyboard-response","190","114028","0.0-1.0-189.0","",""
"null","sound/msl/bird.wav","null","audio-keyboard-response","191","114538","0.0-1.0-190.0","",""
"null","sound/msl/dog.wav","null","audio-keyboard-response","192","115048","0.0-1.0-191.0","",""
"null","sound/msl/goat.wav","null","audio-keyboard-response","193","115598","0.0-1.0-192.0","",""
"null","sound/msl/organ.wav","null","audio-keyboard-response","194","116107","0.0-1.0-193.0","",""
"null","sound/msl/boing.wav","null","audio-keyboard-response","195","116618","0.0-1.0-194.0","",""
"null","sound/msl/Water.wav","null","audio-keyboard-response","196","117138","0.0-1.0-195.0","",""
"null","sound/msl/slide_whistle.wav","null","audio-keyboard-response","197","117648","0.0-1.0-196.0","",""
"null","sound/msl/frog.wav","null","audio-keyboard-response","198","118168","0.0-1.0-197.0","",""
"null","sound/msl/duck.wav","null","audio-keyboard-response","199","118688","0.0-1.0-198.0","",""
"null","sound/msl/door_bell.wav","null","audio-keyboard-response","200","119208","0.0-1.0-199.0","",""
"null","sound/msl/ding.wav","null","audio-keyboard-response","201","119729","0.0-1.0-200.0","",""
"null","sound/msl/clock.wav","null","audio-keyboard-response","202","120288","0.0-1.0-201.0","",""
"null","sound/msl/door.wav","null","audio-keyboard-response","203","120798","0.0-1.0-202.0","",""
"null","sound/msl/cow.wav","null","audio-keyboard-response","204","121318","0.0-1.0-203.0","",""
"null","sound/msl/cat.wav","null","audio-keyboard-response","205","121829","0.0-1.0-204.0","",""
"null","sound/msl/bird.wav","null","audio-keyboard-response","206","122338","0.0-1.0-205.0","",""
"null","sound/msl/dog.wav","null","audio-keyboard-response","207","122849","0.0-1.0-206.0","",""
"null","sound/msl/goat.wav","null","audio-keyboard-response","208","123399","0.0-1.0-207.0","",""
"null","sound/msl/organ.wav","null","audio-keyboard-response","209","123909","0.0-1.0-208.0","",""
"null","sound/msl/boing.wav","null","audio-keyboard-response","210","124418","0.0-1.0-209.0","",""
"null","sound/msl/duck.wav","null","audio-keyboard-response","211","124928","0.0-1.0-210.0","",""
"null","sound/msl/door_bell.wav","null","audio-keyboard-response","212","125449","0.0-1.0-211.0","",""
"null","sound/msl/ding.wav","null","audio-keyboard-response","213","125969","0.0-1.0-212.0","",""
"null","sound/msl/cat.wav","null","audio-keyboard-response","214","126479","0.0-1.0-213.0","",""
"null","sound/msl/bird.wav","null","audio-keyboard-response","215","126999","0.0-1.0-214.0","",""
"null","sound/msl/dog.wav","null","audio-keyboard-response","216","127520","0.0-1.0-215.0","",""
"null","sound/msl/Water.wav","null","audio-keyboard-response","217","128041","0.0-1.0-216.0","",""
"null","sound/msl/slide_whistle.wav","null","audio-keyboard-response","218","128561","0.0-1.0-217.0","",""
"null","sound/msl/frog.wav","null","audio-keyboard-response","219","129079","0.0-1.0-218.0","",""
"null","sound/msl/clock.wav","null","audio-keyboard-response","220","129639","0.0-1.0-219.0","",""
"null","sound/msl/door.wav","null","audio-keyboard-response","221","130149","0.0-1.0-220.0","",""
"null","sound/msl/cow.wav","null","audio-keyboard-response","222","130660","0.0-1.0-221.0","",""
"null","sound/msl/goat.wav","null","audio-keyboard-response","223","131211","0.0-1.0-222.0","",""
"null","sound/msl/organ.wav","null","audio-keyboard-response","224","131720","0.0-1.0-223.0","",""
"null","sound/msl/boing.wav","null","audio-keyboard-response","225","132230","0.0-1.0-224.0","",""
"null","sound/msl/Water.wav","null","audio-keyboard-response","226","132752","0.0-1.0-225.0","",""
"null","sound/msl/slide_whistle.wav","null","audio-keyboard-response","227","133260","0.0-1.0-226.0","",""
"null","sound/msl/frog.wav","null","audio-keyboard-response","228","133769","0.0-1.0-227.0","",""
"null","sound/msl/cat.wav","null","audio-keyboard-response","229","134279","0.0-1.0-228.0","",""
"null","sound/msl/bird.wav","null","audio-keyboard-response","230","134801","0.0-1.0-229.0","",""
"null","sound/msl/dog.wav","null","audio-keyboard-response","231","135321","0.0-1.0-230.0","",""
"null","sound/msl/Water.wav","null","audio-keyboard-response","232","135840","0.0-1.0-231.0","",""
"null","sound/msl/slide_whistle.wav","null","audio-keyboard-response","233","136361","0.0-1.0-232.0","",""
"null","sound/msl/frog.wav","null","audio-keyboard-response","234","136881","0.0-1.0-233.0","",""
"null","sound/msl/goat.wav","null","audio-keyboard-response","235","137430","0.0-1.0-234.0","",""
"null","sound/msl/organ.wav","null","audio-keyboard-response","236","137941","0.0-1.0-235.0","",""
"null","sound/msl/boing.wav","null","audio-keyboard-response","237","138451","0.0-1.0-236.0","",""
"null","sound/msl/clock.wav","null","audio-keyboard-response","238","139010","0.0-1.0-237.0","",""
"null","sound/msl/door.wav","null","audio-keyboard-response","239","139520","0.0-1.0-238.0","",""
"null","sound/msl/cow.wav","null","audio-keyboard-response","240","140041","0.0-1.0-239.0","",""
"null","sound/msl/duck.wav","null","audio-keyboard-response","241","140561","0.0-1.0-240.0","",""
"null","sound/msl/door_bell.wav","null","audio-keyboard-response","242","141081","0.0-1.0-241.0","",""
"null","sound/msl/ding.wav","null","audio-keyboard-response","243","141601","0.0-1.0-242.0","",""
"null","sound/msl/cat.wav","null","audio-keyboard-response","244","142111","0.0-1.0-243.0","",""
"null","sound/msl/bird.wav","null","audio-keyboard-response","245","142621","0.0-1.0-244.0","",""
"null","sound/msl/dog.wav","null","audio-keyboard-response","246","143131","0.0-1.0-245.0","",""
"null","sound/msl/goat.wav","null","audio-keyboard-response","247","143681","0.0-1.0-246.0","",""
"null","sound/msl/organ.wav","null","audio-keyboard-response","248","144192","0.0-1.0-247.0","",""
"null","sound/msl/boing.wav","null","audio-keyboard-response","249","144701","0.0-1.0-248.0","",""
"null","sound/msl/clock.wav","null","audio-keyboard-response","250","145262","0.0-1.0-249.0","",""
"null","sound/msl/door.wav","null","audio-keyboard-response","251","145771","0.0-1.0-250.0","",""
"null","sound/msl/cow.wav","null","audio-keyboard-response","252","146291","0.0-1.0-251.0","",""
"null","sound/msl/duck.wav","null","audio-keyboard-response","253","146812","0.0-1.0-252.0","",""
"null","sound/msl/door_bell.wav","null","audio-keyboard-response","254","147331","0.0-1.0-253.0","",""
"null","sound/msl/ding.wav","null","audio-keyboard-response","255","147852","0.0-1.0-254.0","",""
"null","sound/msl/Water.wav","null","audio-keyboard-response","256","148372","0.0-1.0-255.0","",""
"null","sound/msl/slide_whistle.wav","null","audio-keyboard-response","257","148892","0.0-1.0-256.0","",""
"null","sound/msl/frog.wav","null","audio-keyboard-response","258","149412","0.0-1.0-257.0","",""
"null","sound/msl/cat.wav","null","audio-keyboard-response","259","149923","0.0-1.0-258.0","",""
"null","sound/msl/bird.wav","null","audio-keyboard-response","260","150442","0.0-1.0-259.0","",""
"null","sound/msl/dog.wav","null","audio-keyboard-response","261","150961","0.0-1.0-260.0","",""
"null","sound/msl/duck.wav","null","audio-keyboard-response","262","151481","0.0-1.0-261.0","",""
"null","sound/msl/door_bell.wav","null","audio-keyboard-response","263","152002","0.0-1.0-262.0","",""
"null","sound/msl/ding.wav","null","audio-keyboard-response","264","152517","0.0-1.0-263.0","",""
"null","sound/msl/clock.wav","null","audio-keyboard-response","265","153077","0.0-1.0-264.0","",""
"null","sound/msl/door.wav","null","audio-keyboard-response","266","153587","0.0-1.0-265.0","",""
"null","sound/msl/cow.wav","null","audio-keyboard-response","267","154098","0.0-1.0-266.0","",""
"null","sound/msl/Water.wav","null","audio-keyboard-response","268","154617","0.0-1.0-267.0","",""
"null","sound/msl/slide_whistle.wav","null","audio-keyboard-response","269","155128","0.0-1.0-268.0","",""
"null","sound/msl/frog.wav","null","audio-keyboard-response","270","155647","0.0-1.0-269.0","",""
"null","sound/msl/goat.wav","null","audio-keyboard-response","271","156199","0.0-1.0-270.0","",""
"null","sound/msl/organ.wav","null","audio-keyboard-response","272","156708","0.0-1.0-271.0","",""
"null","sound/msl/boing.wav","null","audio-keyboard-response","273","157218","0.0-1.0-272.0","",""
"null","sound/msl/cat.wav","null","audio-keyboard-response","274","157728","0.0-1.0-273.0","",""
"null","sound/msl/bird.wav","null","audio-keyboard-response","275","158249","0.0-1.0-274.0","",""
"null","sound/msl/dog.wav","null","audio-keyboard-response","276","158768","0.0-1.0-275.0","",""
"null","sound/msl/duck.wav","null","audio-keyboard-response","277","159288","0.0-1.0-276.0","",""
"null","sound/msl/door_bell.wav","null","audio-keyboard-response","278","159808","0.0-1.0-277.0","",""
"null","sound/msl/ding.wav","null","audio-keyboard-response","279","160328","0.0-1.0-278.0","",""
"null","sound/msl/clock.wav","null","audio-keyboard-response","280","160888","0.0-1.0-279.0","",""
"null","sound/msl/door.wav","null","audio-keyboard-response","281","161398","0.0-1.0-280.0","",""
"null","sound/msl/cow.wav","null","audio-keyboard-response","282","161918","0.0-1.0-281.0","",""
"null","sound/msl/goat.wav","null","audio-keyboard-response","283","162468","0.0-1.0-282.0","",""
"null","sound/msl/organ.wav","null","audio-keyboard-response","284","162979","0.0-1.0-283.0","",""
"null","sound/msl/boing.wav","null","audio-keyboard-response","285","163489","0.0-1.0-284.0","",""
"null","sound/msl/Water.wav","null","audio-keyboard-response","286","164009","0.0-1.0-285.0","",""
"null","sound/msl/slide_whistle.wav","null","audio-keyboard-response","287","164528","0.0-1.0-286.0","",""
"null","sound/msl/frog.wav","null","audio-keyboard-response","288","165049","0.0-1.0-287.0","",""
"null","sound/msl/cat.wav","null","audio-keyboard-response","289","165559","0.0-1.0-288.0","",""
"null","sound/msl/bird.wav","null","audio-keyboard-response","290","166080","0.0-1.0-289.0","",""
"null","sound/msl/dog.wav","null","audio-keyboard-response","291","166599","0.0-1.0-290.0","",""
"null","sound/msl/clock.wav","null","audio-keyboard-response","292","167159","0.0-1.0-291.0","",""
"null","sound/msl/door.wav","null","audio-keyboard-response","293","167669","0.0-1.0-292.0","",""
"null","sound/msl/cow.wav","null","audio-keyboard-response","294","168179","0.0-1.0-293.0","",""
"null","sound/msl/duck.wav","null","audio-keyboard-response","295","168689","0.0-1.0-294.0","",""
"null","sound/msl/door_bell.wav","null","audio-keyboard-response","296","169210","0.0-1.0-295.0","",""
"null","sound/msl/ding.wav","null","audio-keyboard-response","297","169730","0.0-1.0-296.0","",""
"null","sound/msl/cat.wav","null","audio-keyboard-response","298","170240","0.0-1.0-297.0","",""
"null","sound/msl/bird.wav","null","audio-keyboard-response","299","170760","0.0-1.0-298.0","",""
"null","sound/msl/dog.wav","null","audio-keyboard-response","300","171279","0.0-1.0-299.0","",""
"null","sound/msl/goat.wav","null","audio-keyboard-response","301","171830","0.0-1.0-300.0","",""
"null","sound/msl/organ.wav","null","audio-keyboard-response","302","172341","0.0-1.0-301.0","",""
"null","sound/msl/boing.wav","null","audio-keyboard-response","303","172851","0.0-1.0-302.0","",""
"null","sound/msl/clock.wav","null","audio-keyboard-response","304","173410","0.0-1.0-303.0","",""
"null","sound/msl/door.wav","null","audio-keyboard-response","305","173920","0.0-1.0-304.0","",""
"null","sound/msl/cow.wav","null","audio-keyboard-response","306","174441","0.0-1.0-305.0","",""
"null","sound/msl/Water.wav","null","audio-keyboard-response","307","174960","0.0-1.0-306.0","",""
"null","sound/msl/slide_whistle.wav","null","audio-keyboard-response","308","175480","0.0-1.0-307.0","",""
"null","sound/msl/frog.wav","null","audio-keyboard-response","309","176000","0.0-1.0-308.0","",""
"null","sound/msl/duck.wav","null","audio-keyboard-response","310","176520","0.0-1.0-309.0","",""
"null","sound/msl/door_bell.wav","null","audio-keyboard-response","311","177041","0.0-1.0-310.0","",""
"null","sound/msl/ding.wav","null","audio-keyboard-response","312","177561","0.0-1.0-311.0","",""
"null","sound/msl/cat.wav","null","audio-keyboard-response","313","178071","0.0-1.0-312.0","",""
"null","sound/msl/bird.wav","null","audio-keyboard-response","314","178580","0.0-1.0-313.0","",""
"null","sound/msl/dog.wav","null","audio-keyboard-response","315","179091","0.0-1.0-314.0","",""
"null","sound/msl/goat.wav","null","audio-keyboard-response","316","179641","0.0-1.0-315.0","",""
"null","sound/msl/organ.wav","null","audio-keyboard-response","317","180151","0.0-1.0-316.0","",""
"null","sound/msl/boing.wav","null","audio-keyboard-response","318","180661","0.0-1.0-317.0","",""
"null","sound/msl/clock.wav","null","audio-keyboard-response","319","181220","0.0-1.0-318.0","",""
"null","sound/msl/door.wav","null","audio-keyboard-response","320","181731","0.0-1.0-319.0","",""
"null","sound/msl/cow.wav","null","audio-keyboard-response","321","182251","0.0-1.0-320.0","",""
"null","sound/msl/duck.wav","null","audio-keyboard-response","322","182771","0.0-1.0-321.0","",""
"null","sound/msl/door_bell.wav","null","audio-keyboard-response","323","183291","0.0-1.0-322.0","",""
"null","sound/msl/ding.wav","null","audio-keyboard-response","324","183812","0.0-1.0-323.0","",""
"null","sound/msl/goat.wav","null","audio-keyboard-response","325","184361","0.0-1.0-324.0","",""
"null","sound/msl/organ.wav","null","audio-keyboard-response","326","184872","0.0-1.0-325.0","",""
"null","sound/msl/boing.wav","null","audio-keyboard-response","327","185381","0.0-1.0-326.0","",""
"null","sound/msl/Water.wav","null","audio-keyboard-response","328","185902","0.0-1.0-327.0","",""
"null","sound/msl/slide_whistle.wav","null","audio-keyboard-response","329","186412","0.0-1.0-328.0","",""
"null","sound/msl/frog.wav","null","audio-keyboard-response","330","186932","0.0-1.0-329.0","",""
"null","sound/msl/cat.wav","null","audio-keyboard-response","331","187441","0.0-1.0-330.0","",""
"null","sound/msl/bird.wav","null","audio-keyboard-response","332","187962","0.0-1.0-331.0","",""
"null","sound/msl/dog.wav","null","audio-keyboard-response","333","188482","0.0-1.0-332.0","",""
"null","sound/msl/clock.wav","null","audio-keyboard-response","334","189042","0.0-1.0-333.0","",""
"null","sound/msl/door.wav","null","audio-keyboard-response","335","189552","0.0-1.0-334.0","",""
"null","sound/msl/cow.wav","null","audio-keyboard-response","336","190062","0.0-1.0-335.0","",""
"null","sound/msl/Water.wav","null","audio-keyboard-response","337","190582","0.0-1.0-336.0","",""
"null","sound/msl/slide_whistle.wav","null","audio-keyboard-response","338","191092","0.0-1.0-337.0","",""
"null","sound/msl/frog.wav","null","audio-keyboard-response","339","191612","0.0-1.0-338.0","",""
"null","sound/msl/duck.wav","null","audio-keyboard-response","340","192133","0.0-1.0-339.0","",""
"null","sound/msl/door_bell.wav","null","audio-keyboard-response","341","192648","0.0-1.0-340.0","",""
"null","sound/msl/ding.wav","null","audio-keyboard-response","342","193170","0.0-1.0-341.0","",""
"null","sound/msl/clock.wav","null","audio-keyboard-response","343","193728","0.0-1.0-342.0","",""
"null","sound/msl/door.wav","null","audio-keyboard-response","344","194238","0.0-1.0-343.0","",""
"null","sound/msl/cow.wav","null","audio-keyboard-response","345","194757","0.0-1.0-344.0","",""
"null","sound/msl/duck.wav","null","audio-keyboard-response","346","195278","0.0-1.0-345.0","",""
"null","sound/msl/door_bell.wav","null","audio-keyboard-response","347","195799","0.0-1.0-346.0","",""
"null","sound/msl/ding.wav","null","audio-keyboard-response","348","196318","0.0-1.0-347.0","",""
"null","sound/msl/Water.wav","null","audio-keyboard-response","349","196838","0.0-1.0-348.0","",""
"null","sound/msl/slide_whistle.wav","null","audio-keyboard-response","350","197359","0.0-1.0-349.0","",""
"null","sound/msl/frog.wav","null","audio-keyboard-response","351","197880","0.0-1.0-350.0","",""
"null","sound/msl/cat.wav","null","audio-keyboard-response","352","198389","0.0-1.0-351.0","",""
"null","sound/msl/bird.wav","null","audio-keyboard-response","353","198898","0.0-1.0-352.0","",""
"null","sound/msl/dog.wav","null","audio-keyboard-response","354","199408","0.0-1.0-353.0","",""
"null","sound/msl/clock.wav","null","audio-keyboard-response","355","199969","0.0-1.0-354.0","",""
"null","sound/msl/door.wav","null","audio-keyboard-response","356","200479","0.0-1.0-355.0","",""
"null","sound/msl/cow.wav","null","audio-keyboard-response","357","200999","0.0-1.0-356.0","",""
"null","sound/msl/duck.wav","null","audio-keyboard-response","358","201518","0.0-1.0-357.0","",""
"null","sound/msl/door_bell.wav","null","audio-keyboard-response","359","202039","0.0-1.0-358.0","",""
"null","sound/msl/ding.wav","null","audio-keyboard-response","360","202559","0.0-1.0-359.0","",""
"15237","Instructions2-eng.png","49","image-keyboard-response","361","217801","0.0-2.0","",""
"null","sound/msl/cat.wav","null","audio-keyboard-response","362","218311","0.0-3.0-0.0","",""
"null","sound/msl/bird.wav","null","audio-keyboard-response","363","218820","0.0-3.0-1.0","",""
"null","sound/msl/dog.wav","null","audio-keyboard-response","364","219331","0.0-3.0-2.0","",""
"null","sound/asl/silence.wav","null","audio-keyboard-response","365","219835","0.0-3.0-3.0","",""
"null","sound/msl/goat.wav","null","audio-keyboard-response","366","220381","0.0-3.0-4.0","",""
"null","sound/msl/slide_whistle.wav","null","audio-keyboard-response","367","220891","0.0-3.0-5.0","",""
"null","sound/msl/cow.wav","null","audio-keyboard-response","368","221411","0.0-3.0-6.0","",""
"5019","sound/asl/silence.wav","50","audio-keyboard-response","369","226434","0.0-3.0-7.0","false",""
"null","sound/msl/Water.wav","null","audio-keyboard-response","370","226952","0.0-4.0-0.0","",""
"null","sound/msl/slide_whistle.wav","null","audio-keyboard-response","371","227463","0.0-4.0-1.0","",""
"null","sound/msl/frog.wav","null","audio-keyboard-response","372","227972","0.0-4.0-2.0","",""
"null","sound/asl/silence.wav","null","audio-keyboard-response","373","228473","0.0-4.0-3.0","",""
"null","sound/msl/cat.wav","null","audio-keyboard-response","374","228982","0.0-4.0-4.0","",""
"null","sound/msl/door_bell.wav","null","audio-keyboard-response","375","229493","0.0-4.0-5.0","",""
"null","sound/msl/boing.wav","null","audio-keyboard-response","376","230002","0.0-4.0-6.0","",""
"680","sound/asl/silence.wav","49","audio-keyboard-response","377","230687","0.0-4.0-7.0","true",""
"null","sound/msl/cat.wav","null","audio-keyboard-response","378","231193","0.0-5.0-0.0","",""
"null","sound/msl/door_bell.wav","null","audio-keyboard-response","379","231703","0.0-5.0-1.0","",""
"null","sound/msl/boing.wav","null","audio-keyboard-response","380","232213","0.0-5.0-2.0","",""
"null","sound/asl/silence.wav","null","audio-keyboard-response","381","232714","0.0-5.0-3.0","",""
"null","sound/msl/goat.wav","null","audio-keyboard-response","382","233258","0.0-5.0-4.0","",""
"null","sound/msl/organ.wav","null","audio-keyboard-response","383","233768","0.0-5.0-5.0","",""
"null","sound/msl/boing.wav","null","audio-keyboard-response","384","234278","0.0-5.0-6.0","",""
"3571","sound/asl/silence.wav","50","audio-keyboard-response","385","237849","0.0-5.0-7.0","true",""
"null","sound/msl/Water.wav","null","audio-keyboard-response","386","238369","0.0-6.0-0.0","",""
"null","sound/msl/door.wav","null","audio-keyboard-response","387","238878","0.0-6.0-1.0","",""
"null","sound/msl/dog.wav","null","audio-keyboard-response","388","239399","0.0-6.0-2.0","",""
"null","sound/asl/silence.wav","null","audio-keyboard-response","389","239900","0.0-6.0-3.0","",""
"null","sound/msl/cat.wav","null","audio-keyboard-response","390","240408","0.0-6.0-4.0","",""
"null","sound/msl/bird.wav","null","audio-keyboard-response","391","240929","0.0-6.0-5.0","",""
"null","sound/msl/dog.wav","null","audio-keyboard-response","392","241449","0.0-6.0-6.0","",""
"3131","sound/asl/silence.wav","50","audio-keyboard-response","393","244584","0.0-6.0-7.0","true",""
"null","sound/msl/goat.wav","null","audio-keyboard-response","394","245129","0.0-7.0-0.0","",""
"null","sound/msl/slide_whistle.wav","null","audio-keyboard-response","395","245649","0.0-7.0-1.0","",""
"null","sound/msl/cow.wav","null","audio-keyboard-response","396","246169","0.0-7.0-2.0","",""
"null","sound/asl/silence.wav","null","audio-keyboard-response","397","246671","0.0-7.0-3.0","",""
"null","sound/msl/clock.wav","null","audio-keyboard-response","398","247229","0.0-7.0-4.0","",""
"null","sound/msl/door.wav","null","audio-keyboard-response","399","247740","0.0-7.0-5.0","",""
"null","sound/msl/cow.wav","null","audio-keyboard-response","400","248250","0.0-7.0-6.0","",""
"669","sound/asl/silence.wav","49","audio-keyboard-response","401","248922","0.0-7.0-7.0","false",""
"null","sound/msl/cat.wav","null","audio-keyboard-response","402","249430","0.0-8.0-0.0","",""
"null","sound/msl/bird.wav","null","audio-keyboard-response","403","249939","0.0-8.0-1.0","",""
"null","sound/msl/dog.wav","null","audio-keyboard-response","404","250450","0.0-8.0-2.0","",""
"null","sound/asl/silence.wav","null","audio-keyboard-response","405","250952","0.0-8.0-3.0","",""
"null","sound/msl/cat.wav","null","audio-keyboard-response","406","251460","0.0-8.0-4.0","",""
"null","sound/msl/door_bell.wav","null","audio-keyboard-response","407","251970","0.0-8.0-5.0","",""
"null","sound/msl/boing.wav","null","audio-keyboard-response","408","252480","0.0-8.0-6.0","",""
"1221","sound/asl/silence.wav","49","audio-keyboard-response","409","253705","0.0-8.0-7.0","true",""
"null","sound/msl/Water.wav","null","audio-keyboard-response","410","254221","0.0-9.0-0.0","",""
"null","sound/msl/door.wav","null","audio-keyboard-response","411","254731","0.0-9.0-1.0","",""
"null","sound/msl/dog.wav","null","audio-keyboard-response","412","255251","0.0-9.0-2.0","",""
"null","sound/asl/silence.wav","null","audio-keyboard-response","413","255752","0.0-9.0-3.0","",""
"null","sound/msl/clock.wav","null","audio-keyboard-response","414","256310","0.0-9.0-4.0","",""
"null","sound/msl/door.wav","null","audio-keyboard-response","415","256821","0.0-9.0-5.0","",""
"null","sound/msl/cow.wav","null","audio-keyboard-response","416","257331","0.0-9.0-6.0","",""
"4659","sound/asl/silence.wav","49","audio-keyboard-response","417","261995","0.0-9.0-7.0","false",""
"null","sound/msl/goat.wav","null","audio-keyboard-response","418","262542","0.0-10.0-0.0","",""
"null","sound/msl/organ.wav","null","audio-keyboard-response","419","263052","0.0-10.0-1.0","",""
"null","sound/msl/boing.wav","null","audio-keyboard-response","420","263562","0.0-10.0-2.0","",""
"null","sound/asl/silence.wav","null","audio-keyboard-response","421","264064","0.0-10.0-3.0","",""
"null","sound/msl/duck.wav","null","audio-keyboard-response","422","264572","0.0-10.0-4.0","",""
"null","sound/msl/organ.wav","null","audio-keyboard-response","423","265082","0.0-10.0-5.0","",""
"null","sound/msl/frog.wav","null","audio-keyboard-response","424","265602","0.0-10.0-6.0","",""
"669","sound/asl/silence.wav","50","audio-keyboard-response","425","266278","0.0-10.0-7.0","false",""
"null","sound/msl/Water.wav","null","audio-keyboard-response","426","266792","0.0-11.0-0.0","",""
"null","sound/msl/door.wav","null","audio-keyboard-response","427","267304","0.0-11.0-1.0","",""
"null","sound/msl/dog.wav","null","audio-keyboard-response","428","267813","0.0-11.0-2.0","",""
"null","sound/asl/silence.wav","null","audio-keyboard-response","429","268314","0.0-11.0-3.0","",""
"null","sound/msl/Water.wav","null","audio-keyboard-response","430","268833","0.0-11.0-4.0","",""
"null","sound/msl/slide_whistle.wav","null","audio-keyboard-response","431","269343","0.0-11.0-5.0","",""
"null","sound/msl/frog.wav","null","audio-keyboard-response","432","269853","0.0-11.0-6.0","",""
"789","sound/asl/silence.wav","50","audio-keyboard-response","433","270644","0.0-11.0-7.0","true",""
"null","sound/msl/clock.wav","null","audio-keyboard-response","434","271202","0.0-12.0-0.0","",""
"null","sound/msl/bird.wav","null","audio-keyboard-response","435","271723","0.0-12.0-1.0","",""
"null","sound/msl/ding.wav","null","audio-keyboard-response","436","272243","0.0-12.0-2.0","",""
"null","sound/asl/silence.wav","null","audio-keyboard-response","437","272746","0.0-12.0-3.0","",""
"null","sound/msl/goat.wav","null","audio-keyboard-response","438","273294","0.0-12.0-4.0","",""
"null","sound/msl/organ.wav","null","audio-keyboard-response","439","273798","0.0-12.0-5.0","",""
"null","sound/msl/boing.wav","null","audio-keyboard-response","440","274308","0.0-12.0-6.0","",""
"152","sound/asl/silence.wav","49","audio-keyboard-response","441","274459","0.0-12.0-7.0","false",""
"null","sound/msl/duck.wav","null","audio-keyboard-response","442","274968","0.0-13.0-0.0","",""
"null","sound/msl/organ.wav","null","audio-keyboard-response","443","275478","0.0-13.0-1.0","",""
"null","sound/msl/frog.wav","null","audio-keyboard-response","444","275998","0.0-13.0-2.0","",""
"null","sound/asl/silence.wav","null","audio-keyboard-response","445","276499","0.0-13.0-3.0","",""
"null","sound/msl/cat.wav","null","audio-keyboard-response","446","277008","0.0-13.0-4.0","",""
"null","sound/msl/bird.wav","null","audio-keyboard-response","447","277529","0.0-13.0-5.0","",""
"null","sound/msl/dog.wav","null","audio-keyboard-response","448","278048","0.0-13.0-6.0","",""
"2269","sound/asl/silence.wav","50","audio-keyboard-response","449","280327","0.0-13.0-7.0","true",""
"null","sound/msl/goat.wav","null","audio-keyboard-response","450","280869","0.0-14.0-0.0","",""
"null","sound/msl/slide_whistle.wav","null","audio-keyboard-response","451","281379","0.0-14.0-1.0","",""
"null","sound/msl/cow.wav","null","audio-keyboard-response","452","281889","0.0-14.0-2.0","",""
"null","sound/asl/silence.wav","null","audio-keyboard-response","453","282390","0.0-14.0-3.0","",""
"null","sound/msl/Water.wav","null","audio-keyboard-response","454","282909","0.0-14.0-4.0","",""
"null","sound/msl/slide_whistle.wav","null","audio-keyboard-response","455","283419","0.0-14.0-5.0","",""
"null","sound/msl/frog.wav","null","audio-keyboard-response","456","283929","0.0-14.0-6.0","",""
"4059","sound/asl/silence.wav","49","audio-keyboard-response","457","287997","0.0-14.0-7.0","false",""
"null","sound/msl/cat.wav","null","audio-keyboard-response","458","288500","0.0-15.0-0.0","",""
"null","sound/msl/bird.wav","null","audio-keyboard-response","459","289010","0.0-15.0-1.0","",""
"null","sound/msl/dog.wav","null","audio-keyboard-response","460","289530","0.0-15.0-2.0","",""
"null","sound/asl/silence.wav","null","audio-keyboard-response","461","290032","0.0-15.0-3.0","",""
"null","sound/msl/clock.wav","null","audio-keyboard-response","462","290590","0.0-15.0-4.0","",""
"null","sound/msl/bird.wav","null","audio-keyboard-response","463","291100","0.0-15.0-5.0","",""
"null","sound/msl/ding.wav","null","audio-keyboard-response","464","291610","0.0-15.0-6.0","",""
"611","sound/asl/silence.wav","49","audio-keyboard-response","465","292224","0.0-15.0-7.0","true",""
"null","sound/msl/Water.wav","null","audio-keyboard-response","466","292740","0.0-16.0-0.0","",""
"null","sound/msl/door.wav","null","audio-keyboard-response","467","293250","0.0-16.0-1.0","",""
"null","sound/msl/dog.wav","null","audio-keyboard-response","468","293771","0.0-16.0-2.0","",""
"null","sound/asl/silence.wav","null","audio-keyboard-response","469","294271","0.0-16.0-3.0","",""
"null","sound/msl/duck.wav","null","audio-keyboard-response","470","294780","0.0-16.0-4.0","",""
"null","sound/msl/door_bell.wav","null","audio-keyboard-response","471","295290","0.0-16.0-5.0","",""
"null","sound/msl/ding.wav","null","audio-keyboard-response","472","295811","0.0-16.0-6.0","",""
"3011","sound/asl/silence.wav","49","audio-keyboard-response","473","298829","0.0-16.0-7.0","false",""
"null","sound/msl/duck.wav","null","audio-keyboard-response","474","299341","0.0-17.0-0.0","",""
"null","sound/msl/door_bell.wav","null","audio-keyboard-response","475","299851","0.0-17.0-1.0","",""
"null","sound/msl/ding.wav","null","audio-keyboard-response","476","300372","0.0-17.0-2.0","",""
"null","sound/asl/silence.wav","null","audio-keyboard-response","477","300873","0.0-17.0-3.0","",""
"null","sound/msl/clock.wav","null","audio-keyboard-response","478","301431","0.0-17.0-4.0","",""
"null","sound/msl/bird.wav","null","audio-keyboard-response","479","301941","0.0-17.0-5.0","",""
"null","sound/msl/ding.wav","null","audio-keyboard-response","480","302451","0.0-17.0-6.0","",""
"2379","sound/asl/silence.wav","49","audio-keyboard-response","481","304840","0.0-17.0-7.0","true",""
"null","sound/msl/goat.wav","null","audio-keyboard-response","482","305382","0.0-18.0-0.0","",""
"null","sound/msl/organ.wav","null","audio-keyboard-response","483","305893","0.0-18.0-1.0","",""
"null","sound/msl/boing.wav","null","audio-keyboard-response","484","306402","0.0-18.0-2.0","",""
"null","sound/asl/silence.wav","null","audio-keyboard-response","485","306904","0.0-18.0-3.0","",""
"null","sound/msl/Water.wav","null","audio-keyboard-response","486","307422","0.0-18.0-4.0","",""
"null","sound/msl/door.wav","null","audio-keyboard-response","487","307933","0.0-18.0-5.0","",""
"null","sound/msl/dog.wav","null","audio-keyboard-response","488","308452","0.0-18.0-6.0","",""
"1349","sound/asl/silence.wav","49","audio-keyboard-response","489","309812","0.0-18.0-7.0","true",""
"null","sound/msl/goat.wav","null","audio-keyboard-response","490","310363","0.0-19.0-0.0","",""
"null","sound/msl/organ.wav","null","audio-keyboard-response","491","310873","0.0-19.0-1.0","",""
"null","sound/msl/boing.wav","null","audio-keyboard-response","492","311383","0.0-19.0-2.0","",""
"null","sound/asl/silence.wav","null","audio-keyboard-response","493","311885","0.0-19.0-3.0","",""
"null","sound/msl/goat.wav","null","audio-keyboard-response","494","312433","0.0-19.0-4.0","",""
"null","sound/msl/slide_whistle.wav","null","audio-keyboard-response","495","312943","0.0-19.0-5.0","",""
"null","sound/msl/cow.wav","null","audio-keyboard-response","496","313453","0.0-19.0-6.0","",""
"1011","sound/asl/silence.wav","50","audio-keyboard-response","497","314463","0.0-19.0-7.0","false",""
"null","sound/msl/duck.wav","null","audio-keyboard-response","498","314968","0.0-20.0-0.0","",""
"null","sound/msl/organ.wav","null","audio-keyboard-response","499","315478","0.0-20.0-1.0","",""
"null","sound/msl/frog.wav","null","audio-keyboard-response","500","315999","0.0-20.0-2.0","",""
"null","sound/asl/silence.wav","null","audio-keyboard-response","501","316500","0.0-20.0-3.0","",""
"null","sound/msl/clock.wav","null","audio-keyboard-response","502","317058","0.0-20.0-4.0","",""
"null","sound/msl/door.wav","null","audio-keyboard-response","503","317569","0.0-20.0-5.0","",""
"null","sound/msl/cow.wav","null","audio-keyboard-response","504","318089","0.0-20.0-6.0","",""
"1091","sound/asl/silence.wav","49","audio-keyboard-response","505","319179","0.0-20.0-7.0","false",""
"null","sound/msl/clock.wav","null","audio-keyboard-response","506","319739","0.0-21.0-0.0","",""
"null","sound/msl/door.wav","null","audio-keyboard-response","507","320249","0.0-21.0-1.0","",""
"null","sound/msl/cow.wav","null","audio-keyboard-response","508","320769","0.0-21.0-2.0","",""
"null","sound/asl/silence.wav","null","audio-keyboard-response","509","321271","0.0-21.0-3.0","",""
"null","sound/msl/clock.wav","null","audio-keyboard-response","510","321829","0.0-21.0-4.0","",""
"null","sound/msl/bird.wav","null","audio-keyboard-response","511","322341","0.0-21.0-5.0","",""
"null","sound/msl/ding.wav","null","audio-keyboard-response","512","322849","0.0-21.0-6.0","",""
"451","sound/asl/silence.wav","49","audio-keyboard-response","513","323307","0.0-21.0-7.0","true",""
"null","sound/msl/goat.wav","null","audio-keyboard-response","514","323860","0.0-22.0-0.0","",""
"null","sound/msl/slide_whistle.wav","null","audio-keyboard-response","515","324370","0.0-22.0-1.0","",""
"null","sound/msl/cow.wav","null","audio-keyboard-response","516","324890","0.0-22.0-2.0","",""
"null","sound/asl/silence.wav","null","audio-keyboard-response","517","325391","0.0-22.0-3.0","",""
"null","sound/msl/duck.wav","null","audio-keyboard-response","518","325900","0.0-22.0-4.0","",""
"null","sound/msl/door_bell.wav","null","audio-keyboard-response","519","326412","0.0-22.0-5.0","",""
"null","sound/msl/ding.wav","null","audio-keyboard-response","520","326930","0.0-22.0-6.0","",""
"6219","sound/asl/silence.wav","49","audio-keyboard-response","521","333159","0.0-22.0-7.0","false",""
"null","sound/msl/duck.wav","null","audio-keyboard-response","522","333681","0.0-23.0-0.0","",""
"null","sound/msl/organ.wav","null","audio-keyboard-response","523","334191","0.0-23.0-1.0","",""
"null","sound/msl/frog.wav","null","audio-keyboard-response","524","334701","0.0-23.0-2.0","",""
"null","sound/asl/silence.wav","null","audio-keyboard-response","525","335203","0.0-23.0-3.0","",""
"null","sound/msl/duck.wav","null","audio-keyboard-response","526","335721","0.0-23.0-4.0","",""
"null","sound/msl/door_bell.wav","null","audio-keyboard-response","527","336241","0.0-23.0-5.0","",""
"null","sound/msl/ding.wav","null","audio-keyboard-response","528","336762","0.0-23.0-6.0","",""
"269","sound/asl/silence.wav","49","audio-keyboard-response","529","337038","0.0-23.0-7.0","false",""
"null","sound/msl/duck.wav","null","audio-keyboard-response","530","337561","0.0-24.0-0.0","",""
"null","sound/msl/door_bell.wav","null","audio-keyboard-response","531","338082","0.0-24.0-1.0","",""
"null","sound/msl/ding.wav","null","audio-keyboard-response","532","338602","0.0-24.0-2.0","",""
"null","sound/asl/silence.wav","null","audio-keyboard-response","533","339104","0.0-24.0-3.0","",""
"null","sound/msl/cat.wav","null","audio-keyboard-response","534","339612","0.0-24.0-4.0","",""
"null","sound/msl/door_bell.wav","null","audio-keyboard-response","535","340132","0.0-24.0-5.0","",""
"null","sound/msl/boing.wav","null","audio-keyboard-response","536","340641","0.0-24.0-6.0","",""
"1061","sound/asl/silence.wav","49","audio-keyboard-response","537","341707","0.0-24.0-7.0","true",""
"null","sound/msl/clock.wav","null","audio-keyboard-response","538","342262","0.0-25.0-0.0","",""
"null","sound/msl/door.wav","null","audio-keyboard-response","539","342773","0.0-25.0-1.0","",""
"null","sound/msl/cow.wav","null","audio-keyboard-response","540","343292","0.0-25.0-2.0","",""
"null","sound/asl/silence.wav","null","audio-keyboard-response","541","343794","0.0-25.0-3.0","",""
"null","sound/msl/cat.wav","null","audio-keyboard-response","542","344302","0.0-25.0-4.0","",""
"null","sound/msl/door_bell.wav","null","audio-keyboard-response","543","344812","0.0-25.0-5.0","",""
"null","sound/msl/boing.wav","null","audio-keyboard-response","544","345322","0.0-25.0-6.0","",""
"640","sound/asl/silence.wav","50","audio-keyboard-response","545","345971","0.0-25.0-7.0","false",""
"null","sound/msl/Water.wav","null","audio-keyboard-response","546","346492","0.0-26.0-0.0","",""
"null","sound/msl/slide_whistle.wav","null","audio-keyboard-response","547","347012","0.0-26.0-1.0","",""
"null","sound/msl/frog.wav","null","audio-keyboard-response","548","347532","0.0-26.0-2.0","",""
"null","sound/asl/silence.wav","null","audio-keyboard-response","549","348034","0.0-26.0-3.0","",""
"null","sound/msl/duck.wav","null","audio-keyboard-response","550","348543","0.0-26.0-4.0","",""
"null","sound/msl/organ.wav","null","audio-keyboard-response","551","349053","0.0-26.0-5.0","",""
"null","sound/msl/frog.wav","null","audio-keyboard-response","552","349574","0.0-26.0-6.0","",""
"829","sound/asl/silence.wav","49","audio-keyboard-response","553","350409","0.0-26.0-7.0","true",""
"null","sound/msl/clock.wav","null","audio-keyboard-response","554","350963","0.0-27.0-0.0","",""
"null","sound/msl/bird.wav","null","audio-keyboard-response","555","351483","0.0-27.0-1.0","",""
"null","sound/msl/ding.wav","null","audio-keyboard-response","556","352004","0.0-27.0-2.0","",""
"null","sound/asl/silence.wav","null","audio-keyboard-response","557","352504","0.0-27.0-3.0","",""
"null","sound/msl/Water.wav","null","audio-keyboard-response","558","353023","0.0-27.0-4.0","",""
"null","sound/msl/slide_whistle.wav","null","audio-keyboard-response","559","353533","0.0-27.0-5.0","",""
"null","sound/msl/frog.wav","null","audio-keyboard-response","560","354053","0.0-27.0-6.0","",""
"251","sound/asl/silence.wav","50","audio-keyboard-response","561","354313","0.0-27.0-7.0","true",""
"3756","","","instructions","562","358071","0.0-28.0","","[{""page_index"":0,""viewing_time"":3756}]"
