"rt","stimulus","key_press","trial_type","trial_index","time_elapsed","internal_node_id","correct","view_history","responses"
"10619","backround.jpg","49","image-keyboard-response","0","10623","0.0-0.0","","",""
"null","sound/asl/5words_lanaguage.mp3","null","audio-keyboard-response","1","146280","0.0-1.0","","",""
"6791","Instructions2-eng.png","49","image-keyboard-response","2","153075","0.0-2.0","","",""
"null","sound/asl/nalobi.wav","null","audio-keyboard-response","3","154280","0.0-3.0-0.0","","",""
"null","sound/asl/duloga.wav","null","audio-keyboard-response","4","155124","0.0-3.0-1.0","","",""
"669","sound/asl/silence.wav","49","audio-keyboard-response","5","155800","0.0-3.0-2.0","true","",""
"null","sound/asl/nalobi.wav","null","audio-keyboard-response","6","157001","0.0-4.0-0.0","","",""
"null","sound/asl/kibeno.wav","null","audio-keyboard-response","7","157864","0.0-4.0-1.0","","",""
"1251","sound/asl/silence.wav","49","audio-keyboard-response","8","159118","0.0-4.0-2.0","true","",""
"null","sound/asl/tobelu.wav","null","audio-keyboard-response","9","160320","0.0-5.0-0.0","","",""
"null","sound/asl/gekalu.wav","null","audio-keyboard-response","10","161245","0.0-5.0-1.0","","",""
"419","sound/asl/silence.wav","49","audio-keyboard-response","11","161672","0.0-5.0-2.0","true","",""
"null","sound/asl/gedino.wav","null","audio-keyboard-response","12","162876","0.0-6.0-0.0","","",""
"null","sound/asl/kibeno.wav","null","audio-keyboard-response","13","163744","0.0-6.0-1.0","","",""
"589","sound/asl/silence.wav","50","audio-keyboard-response","14","164344","0.0-6.0-2.0","false","",""
"null","sound/asl/duloga.wav","null","audio-keyboard-response","15","165545","0.0-7.0-0.0","","",""
"null","sound/asl/gedino.wav","null","audio-keyboard-response","16","166425","0.0-7.0-1.0","","",""
"501","sound/asl/silence.wav","50","audio-keyboard-response","17","166932","0.0-7.0-2.0","true","",""
"null","sound/asl/kimuga.wav","null","audio-keyboard-response","18","168133","0.0-8.0-0.0","","",""
"null","sound/asl/gekalu.wav","null","audio-keyboard-response","19","169056","0.0-8.0-1.0","","",""
"611","sound/asl/silence.wav","49","audio-keyboard-response","20","169667","0.0-8.0-2.0","true","",""
"null","sound/asl/tomubi.wav","null","audio-keyboard-response","21","170872","0.0-9.0-0.0","","",""
"null","sound/asl/gedino.wav","null","audio-keyboard-response","22","171746","0.0-9.0-1.0","","",""
"2731","sound/asl/silence.wav","49","audio-keyboard-response","23","174486","0.0-9.0-2.0","false","",""
"null","sound/asl/nadime.wav","null","audio-keyboard-response","24","175687","0.0-10.0-0.0","","",""
"null","sound/asl/gedino.wav","null","audio-keyboard-response","25","176567","0.0-10.0-1.0","","",""
"739","sound/asl/silence.wav","50","audio-keyboard-response","26","177307","0.0-10.0-2.0","true","",""
"null","sound/asl/tomubi.wav","null","audio-keyboard-response","27","178507","0.0-11.0-0.0","","",""
"null","sound/asl/tobelu.wav","null","audio-keyboard-response","28","179388","0.0-11.0-1.0","","",""
"891","sound/asl/silence.wav","50","audio-keyboard-response","29","180286","0.0-11.0-2.0","true","",""
"null","sound/asl/nadime.wav","null","audio-keyboard-response","30","181487","0.0-12.0-0.0","","",""
"null","sound/asl/dukame.wav","null","audio-keyboard-response","31","182347","0.0-12.0-1.0","","",""
"581","sound/asl/silence.wav","49","audio-keyboard-response","32","182929","0.0-12.0-2.0","false","",""
"null","sound/asl/tomubi.wav","null","audio-keyboard-response","33","184131","0.0-13.0-0.0","","",""
"null","sound/asl/kimuga.wav","null","audio-keyboard-response","34","184977","0.0-13.0-1.0","","",""
"392","sound/asl/silence.wav","50","audio-keyboard-response","35","185376","0.0-13.0-2.0","true","",""
"null","sound/asl/tobelu.wav","null","audio-keyboard-response","36","186578","0.0-14.0-0.0","","",""
"null","sound/asl/kibeno.wav","null","audio-keyboard-response","37","187448","0.0-14.0-1.0","","",""
"789","sound/asl/silence.wav","49","audio-keyboard-response","38","188244","0.0-14.0-2.0","true","",""
"null","sound/asl/tomubi.wav","null","audio-keyboard-response","39","189444","0.0-15.0-0.0","","",""
"null","sound/asl/nalobi.wav","null","audio-keyboard-response","40","190278","0.0-15.0-1.0","","",""
"1829","sound/asl/silence.wav","49","audio-keyboard-response","41","192114","0.0-15.0-2.0","false","",""
"null","sound/asl/kimuga.wav","null","audio-keyboard-response","42","193315","0.0-16.0-0.0","","",""
"null","sound/asl/kibeno.wav","null","audio-keyboard-response","43","194179","0.0-16.0-1.0","","",""
"421","sound/asl/silence.wav","49","audio-keyboard-response","44","194604","0.0-16.0-2.0","true","",""
"null","sound/asl/nadime.wav","null","audio-keyboard-response","45","195805","0.0-17.0-0.0","","",""
"null","sound/asl/tobelu.wav","null","audio-keyboard-response","46","196674","0.0-17.0-1.0","","",""
"1269","sound/asl/silence.wav","49","audio-keyboard-response","47","197953","0.0-17.0-2.0","false","",""
"null","sound/asl/tomubi.wav","null","audio-keyboard-response","48","199155","0.0-18.0-0.0","","",""
"null","sound/asl/dukame.wav","null","audio-keyboard-response","49","200015","0.0-18.0-1.0","","",""
"2861","sound/asl/silence.wav","49","audio-keyboard-response","50","202880","0.0-18.0-2.0","false","",""
"null","sound/asl/nalobi.wav","null","audio-keyboard-response","51","204081","0.0-19.0-0.0","","",""
"null","sound/asl/nadime.wav","null","audio-keyboard-response","52","204905","0.0-19.0-1.0","","",""
"509","sound/asl/silence.wav","50","audio-keyboard-response","53","205417","0.0-19.0-2.0","false","",""
"null","sound/asl/nalobi.wav","null","audio-keyboard-response","54","206619","0.0-20.0-0.0","","",""
"null","sound/asl/gekalu.wav","null","audio-keyboard-response","55","207546","0.0-20.0-1.0","","",""
"571","sound/asl/silence.wav","50","audio-keyboard-response","56","208120","0.0-20.0-2.0","false","",""
"null","sound/asl/duloga.wav","null","audio-keyboard-response","57","209321","0.0-21.0-0.0","","",""
"null","sound/asl/kimuga.wav","null","audio-keyboard-response","58","210166","0.0-21.0-1.0","","",""
"629","sound/asl/silence.wav","49","audio-keyboard-response","59","210798","0.0-21.0-2.0","false","",""
"null","sound/asl/gedino.wav","null","audio-keyboard-response","60","212000","0.0-22.0-0.0","","",""
"null","sound/asl/gekalu.wav","null","audio-keyboard-response","61","212926","0.0-22.0-1.0","","",""
"499","sound/asl/silence.wav","50","audio-keyboard-response","62","213430","0.0-22.0-2.0","false","",""
"null","sound/asl/dukame.wav","null","audio-keyboard-response","63","214631","0.0-23.0-0.0","","",""
"null","sound/asl/gekalu.wav","null","audio-keyboard-response","64","215556","0.0-23.0-1.0","","",""
"160","sound/asl/silence.wav","49","audio-keyboard-response","65","215723","0.0-23.0-2.0","true","",""
"null","sound/asl/dukame.wav","null","audio-keyboard-response","66","216926","0.0-24.0-0.0","","",""
"null","sound/asl/kibeno.wav","null","audio-keyboard-response","67","217796","0.0-24.0-1.0","","",""
"451","sound/asl/silence.wav","49","audio-keyboard-response","68","218247","0.0-24.0-2.0","true","",""
"null","sound/asl/duloga.wav","null","audio-keyboard-response","69","219449","0.0-25.0-0.0","","",""
"null","sound/asl/tobelu.wav","null","audio-keyboard-response","70","220317","0.0-25.0-1.0","","",""
"229","sound/asl/silence.wav","50","audio-keyboard-response","71","220554","0.0-25.0-2.0","true","",""
"null","sound/asl/dukame.wav","null","audio-keyboard-response","72","221755","0.0-26.0-0.0","","",""
"null","sound/asl/duloga.wav","null","audio-keyboard-response","73","222597","0.0-26.0-1.0","","",""
"800","sound/asl/silence.wav","49","audio-keyboard-response","74","223397","0.0-26.0-2.0","true","",""
"null","sound/asl/nadime.wav","null","audio-keyboard-response","75","224599","0.0-27.0-0.0","","",""
"null","sound/asl/kimuga.wav","null","audio-keyboard-response","76","225447","0.0-27.0-1.0","","",""
"259","sound/asl/silence.wav","49","audio-keyboard-response","77","225716","0.0-27.0-2.0","false","",""
"3189","","","instructions","78","228906","0.0-28.0","","[{""page_index"":0,""viewing_time"":3189}]",""
"17739","","","survey-likert","79","246647","0.0-29.0","","","{""Q0"":2}"
"9900","","","survey-likert","80","256548","0.0-30.0","","","{""Q0"":1}"
"4822","","","survey-likert","81","261372","0.0-31.0","","","{""Q0"":1}"
"5391","","","survey-likert","82","266764","0.0-32.0","","","{""Q0"":4}"
"5231","","","survey-likert","83","271996","0.0-33.0","","","{""Q0"":1}"
"5576","","","survey-likert","84","277572","0.0-34.0","","","{""Q0"":1}"
"1150","","","instructions","85","278722","0.0-35.0","","[{""page_index"":0,""viewing_time"":1150}]",""
