"rt","stimulus","key_press","trial_type","trial_index","time_elapsed","internal_node_id","correct","view_history"
"9598","alien.jpg","49","image-keyboard-response","0","9603","0.0-0.0","",""
"null","sound/msl/duck.wav","null","audio-keyboard-response","1","10099","0.0-1.0-0.0","",""
"null","sound/msl/door_bell.wav","null","audio-keyboard-response","2","10609","0.0-1.0-1.0","",""
"null","sound/msl/cow.wav","null","audio-keyboard-response","3","11119","0.0-1.0-2.0","",""
"null","sound/msl/organ.wav","null","audio-keyboard-response","4","11622","0.0-1.0-3.0","",""
"null","sound/msl/frog.wav","null","audio-keyboard-response","5","12129","0.0-1.0-4.0","",""
"null","sound/msl/Water.wav","null","audio-keyboard-response","6","12638","0.0-1.0-5.0","",""
"null","sound/msl/bird.wav","null","audio-keyboard-response","7","13138","0.0-1.0-6.0","",""
"null","sound/msl/door.wav","null","audio-keyboard-response","8","13639","0.0-1.0-7.0","",""
"null","sound/msl/ding.wav","null","audio-keyboard-response","9","14139","0.0-1.0-8.0","",""
"null","sound/msl/cat.wav","null","audio-keyboard-response","10","14639","0.0-1.0-9.0","",""
"null","sound/msl/slide_whistle.wav","null","audio-keyboard-response","11","15139","0.0-1.0-10.0","",""
"null","sound/msl/clock.wav","null","audio-keyboard-response","12","15689","0.0-1.0-11.0","",""
"null","sound/msl/organ.wav","null","audio-keyboard-response","13","16189","0.0-1.0-12.0","",""
"null","sound/msl/frog.wav","null","audio-keyboard-response","14","16689","0.0-1.0-13.0","",""
"null","sound/msl/Water.wav","null","audio-keyboard-response","15","17199","0.0-1.0-14.0","",""
"null","sound/msl/duck.wav","null","audio-keyboard-response","16","17699","0.0-1.0-15.0","",""
"null","sound/msl/door_bell.wav","null","audio-keyboard-response","17","18210","0.0-1.0-16.0","",""
"null","sound/msl/cow.wav","null","audio-keyboard-response","18","18719","0.0-1.0-17.0","",""
"null","sound/msl/dog.wav","null","audio-keyboard-response","19","19220","0.0-1.0-18.0","",""
"null","sound/msl/goat.wav","null","audio-keyboard-response","20","19759","0.0-1.0-19.0","",""
"null","sound/msl/boing.wav","null","audio-keyboard-response","21","20260","0.0-1.0-20.0","",""
"null","sound/msl/cat.wav","null","audio-keyboard-response","22","20759","0.0-1.0-21.0","",""
"null","sound/msl/slide_whistle.wav","null","audio-keyboard-response","23","21260","0.0-1.0-22.0","",""
"null","sound/msl/clock.wav","null","audio-keyboard-response","24","21809","0.0-1.0-23.0","",""
"null","sound/msl/bird.wav","null","audio-keyboard-response","25","22320","0.0-1.0-24.0","",""
"null","sound/msl/door.wav","null","audio-keyboard-response","26","22820","0.0-1.0-25.0","",""
"null","sound/msl/ding.wav","null","audio-keyboard-response","27","23330","0.0-1.0-26.0","",""
"null","sound/msl/duck.wav","null","audio-keyboard-response","28","23840","0.0-1.0-27.0","",""
"null","sound/msl/door_bell.wav","null","audio-keyboard-response","29","24340","0.0-1.0-28.0","",""
"null","sound/msl/cow.wav","null","audio-keyboard-response","30","24850","0.0-1.0-29.0","",""
"null","sound/msl/organ.wav","null","audio-keyboard-response","31","25350","0.0-1.0-30.0","",""
"null","sound/msl/frog.wav","null","audio-keyboard-response","32","25850","0.0-1.0-31.0","",""
"null","sound/msl/Water.wav","null","audio-keyboard-response","33","26360","0.0-1.0-32.0","",""
"null","sound/msl/dog.wav","null","audio-keyboard-response","34","26860","0.0-1.0-33.0","",""
"null","sound/msl/goat.wav","null","audio-keyboard-response","35","27400","0.0-1.0-34.0","",""
"null","sound/msl/boing.wav","null","audio-keyboard-response","36","27901","0.0-1.0-35.0","",""
"null","sound/msl/bird.wav","null","audio-keyboard-response","37","28410","0.0-1.0-36.0","",""
"null","sound/msl/door.wav","null","audio-keyboard-response","38","28910","0.0-1.0-37.0","",""
"null","sound/msl/ding.wav","null","audio-keyboard-response","39","29411","0.0-1.0-38.0","",""
"null","sound/msl/cat.wav","null","audio-keyboard-response","40","29911","0.0-1.0-39.0","",""
"null","sound/msl/slide_whistle.wav","null","audio-keyboard-response","41","30411","0.0-1.0-40.0","",""
"null","sound/msl/clock.wav","null","audio-keyboard-response","42","30960","0.0-1.0-41.0","",""
"null","sound/msl/dog.wav","null","audio-keyboard-response","43","31461","0.0-1.0-42.0","",""
"null","sound/msl/goat.wav","null","audio-keyboard-response","44","32001","0.0-1.0-43.0","",""
"null","sound/msl/boing.wav","null","audio-keyboard-response","45","32501","0.0-1.0-44.0","",""
"null","sound/msl/organ.wav","null","audio-keyboard-response","46","33001","0.0-1.0-45.0","",""
"null","sound/msl/frog.wav","null","audio-keyboard-response","47","33501","0.0-1.0-46.0","",""
"null","sound/msl/Water.wav","null","audio-keyboard-response","48","34011","0.0-1.0-47.0","",""
"null","sound/msl/bird.wav","null","audio-keyboard-response","49","34521","0.0-1.0-48.0","",""
"null","sound/msl/door.wav","null","audio-keyboard-response","50","35021","0.0-1.0-49.0","",""
"null","sound/msl/ding.wav","null","audio-keyboard-response","51","35531","0.0-1.0-50.0","",""
"null","sound/msl/duck.wav","null","audio-keyboard-response","52","36041","0.0-1.0-51.0","",""
"null","sound/msl/door_bell.wav","null","audio-keyboard-response","53","36541","0.0-1.0-52.0","",""
"null","sound/msl/cow.wav","null","audio-keyboard-response","54","37051","0.0-1.0-53.0","",""
"null","sound/msl/organ.wav","null","audio-keyboard-response","55","37552","0.0-1.0-54.0","",""
"null","sound/msl/frog.wav","null","audio-keyboard-response","56","38051","0.0-1.0-55.0","",""
"null","sound/msl/Water.wav","null","audio-keyboard-response","57","38562","0.0-1.0-56.0","",""
"null","sound/msl/bird.wav","null","audio-keyboard-response","58","39062","0.0-1.0-57.0","",""
"null","sound/msl/door.wav","null","audio-keyboard-response","59","39562","0.0-1.0-58.0","",""
"null","sound/msl/ding.wav","null","audio-keyboard-response","60","40062","0.0-1.0-59.0","",""
"null","sound/msl/cat.wav","null","audio-keyboard-response","61","40562","0.0-1.0-60.0","",""
"null","sound/msl/slide_whistle.wav","null","audio-keyboard-response","62","41062","0.0-1.0-61.0","",""
"null","sound/msl/clock.wav","null","audio-keyboard-response","63","41612","0.0-1.0-62.0","",""
"null","sound/msl/dog.wav","null","audio-keyboard-response","64","42122","0.0-1.0-63.0","",""
"null","sound/msl/goat.wav","null","audio-keyboard-response","65","42662","0.0-1.0-64.0","",""
"null","sound/msl/boing.wav","null","audio-keyboard-response","66","43162","0.0-1.0-65.0","",""
"null","sound/msl/organ.wav","null","audio-keyboard-response","67","43662","0.0-1.0-66.0","",""
"null","sound/msl/frog.wav","null","audio-keyboard-response","68","44172","0.0-1.0-67.0","",""
"null","sound/msl/Water.wav","null","audio-keyboard-response","69","44677","0.0-1.0-68.0","",""
"null","sound/msl/duck.wav","null","audio-keyboard-response","70","45178","0.0-1.0-69.0","",""
"null","sound/msl/door_bell.wav","null","audio-keyboard-response","71","45688","0.0-1.0-70.0","",""
"null","sound/msl/cow.wav","null","audio-keyboard-response","72","46198","0.0-1.0-71.0","",""
"null","sound/msl/bird.wav","null","audio-keyboard-response","73","46698","0.0-1.0-72.0","",""
"null","sound/msl/door.wav","null","audio-keyboard-response","74","47198","0.0-1.0-73.0","",""
"null","sound/msl/ding.wav","null","audio-keyboard-response","75","47697","0.0-1.0-74.0","",""
"null","sound/msl/cat.wav","null","audio-keyboard-response","76","48198","0.0-1.0-75.0","",""
"null","sound/msl/slide_whistle.wav","null","audio-keyboard-response","77","48698","0.0-1.0-76.0","",""
"null","sound/msl/clock.wav","null","audio-keyboard-response","78","49248","0.0-1.0-77.0","",""
"null","sound/msl/bird.wav","null","audio-keyboard-response","79","49758","0.0-1.0-78.0","",""
"null","sound/msl/door.wav","null","audio-keyboard-response","80","50258","0.0-1.0-79.0","",""
"null","sound/msl/ding.wav","null","audio-keyboard-response","81","50768","0.0-1.0-80.0","",""
"null","sound/msl/dog.wav","null","audio-keyboard-response","82","51278","0.0-1.0-81.0","",""
"null","sound/msl/goat.wav","null","audio-keyboard-response","83","51818","0.0-1.0-82.0","",""
"null","sound/msl/boing.wav","null","audio-keyboard-response","84","52319","0.0-1.0-83.0","",""
"null","sound/msl/duck.wav","null","audio-keyboard-response","85","52819","0.0-1.0-84.0","",""
"null","sound/msl/door_bell.wav","null","audio-keyboard-response","86","53329","0.0-1.0-85.0","",""
"null","sound/msl/cow.wav","null","audio-keyboard-response","87","53839","0.0-1.0-86.0","",""
"null","sound/msl/organ.wav","null","audio-keyboard-response","88","54339","0.0-1.0-87.0","",""
"null","sound/msl/frog.wav","null","audio-keyboard-response","89","54849","0.0-1.0-88.0","",""
"null","sound/msl/Water.wav","null","audio-keyboard-response","90","55358","0.0-1.0-89.0","",""
"null","sound/msl/dog.wav","null","audio-keyboard-response","91","55860","0.0-1.0-90.0","",""
"null","sound/msl/goat.wav","null","audio-keyboard-response","92","56400","0.0-1.0-91.0","",""
"null","sound/msl/boing.wav","null","audio-keyboard-response","93","56899","0.0-1.0-92.0","",""
"null","sound/msl/cat.wav","null","audio-keyboard-response","94","57399","0.0-1.0-93.0","",""
"null","sound/msl/slide_whistle.wav","null","audio-keyboard-response","95","57899","0.0-1.0-94.0","",""
"null","sound/msl/clock.wav","null","audio-keyboard-response","96","58450","0.0-1.0-95.0","",""
"null","sound/msl/bird.wav","null","audio-keyboard-response","97","58960","0.0-1.0-96.0","",""
"null","sound/msl/door.wav","null","audio-keyboard-response","98","59459","0.0-1.0-97.0","",""
"null","sound/msl/ding.wav","null","audio-keyboard-response","99","59970","0.0-1.0-98.0","",""
"null","sound/msl/organ.wav","null","audio-keyboard-response","100","60470","0.0-1.0-99.0","",""
"null","sound/msl/frog.wav","null","audio-keyboard-response","101","60970","0.0-1.0-100.0","",""
"null","sound/msl/Water.wav","null","audio-keyboard-response","102","61480","0.0-1.0-101.0","",""
"null","sound/msl/dog.wav","null","audio-keyboard-response","103","61980","0.0-1.0-102.0","",""
"null","sound/msl/goat.wav","null","audio-keyboard-response","104","62521","0.0-1.0-103.0","",""
"null","sound/msl/boing.wav","null","audio-keyboard-response","105","63020","0.0-1.0-104.0","",""
"null","sound/msl/duck.wav","null","audio-keyboard-response","106","63530","0.0-1.0-105.0","",""
"null","sound/msl/door_bell.wav","null","audio-keyboard-response","107","64040","0.0-1.0-106.0","",""
"null","sound/msl/cow.wav","null","audio-keyboard-response","108","64540","0.0-1.0-107.0","",""
"null","sound/msl/organ.wav","null","audio-keyboard-response","109","65040","0.0-1.0-108.0","",""
"null","sound/msl/frog.wav","null","audio-keyboard-response","110","65541","0.0-1.0-109.0","",""
"null","sound/msl/Water.wav","null","audio-keyboard-response","111","66050","0.0-1.0-110.0","",""
"null","sound/msl/cat.wav","null","audio-keyboard-response","112","66550","0.0-1.0-111.0","",""
"null","sound/msl/slide_whistle.wav","null","audio-keyboard-response","113","67050","0.0-1.0-112.0","",""
"null","sound/msl/clock.wav","null","audio-keyboard-response","114","67600","0.0-1.0-113.0","",""
"null","sound/msl/dog.wav","null","audio-keyboard-response","115","68100","0.0-1.0-114.0","",""
"null","sound/msl/goat.wav","null","audio-keyboard-response","116","68641","0.0-1.0-115.0","",""
"null","sound/msl/boing.wav","null","audio-keyboard-response","117","69141","0.0-1.0-116.0","",""
"null","sound/msl/bird.wav","null","audio-keyboard-response","118","69651","0.0-1.0-117.0","",""
"null","sound/msl/door.wav","null","audio-keyboard-response","119","70151","0.0-1.0-118.0","",""
"null","sound/msl/ding.wav","null","audio-keyboard-response","120","70651","0.0-1.0-119.0","",""
"null","sound/msl/duck.wav","null","audio-keyboard-response","121","71161","0.0-1.0-120.0","",""
"null","sound/msl/door_bell.wav","null","audio-keyboard-response","122","71661","0.0-1.0-121.0","",""
"null","sound/msl/cow.wav","null","audio-keyboard-response","123","72171","0.0-1.0-122.0","",""
"null","sound/msl/organ.wav","null","audio-keyboard-response","124","72671","0.0-1.0-123.0","",""
"null","sound/msl/frog.wav","null","audio-keyboard-response","125","73171","0.0-1.0-124.0","",""
"null","sound/msl/Water.wav","null","audio-keyboard-response","126","73682","0.0-1.0-125.0","",""
"null","sound/msl/dog.wav","null","audio-keyboard-response","127","74181","0.0-1.0-126.0","",""
"null","sound/msl/goat.wav","null","audio-keyboard-response","128","74722","0.0-1.0-127.0","",""
"null","sound/msl/boing.wav","null","audio-keyboard-response","129","75222","0.0-1.0-128.0","",""
"null","sound/msl/cat.wav","null","audio-keyboard-response","130","75722","0.0-1.0-129.0","",""
"null","sound/msl/slide_whistle.wav","null","audio-keyboard-response","131","76222","0.0-1.0-130.0","",""
"null","sound/msl/clock.wav","null","audio-keyboard-response","132","76772","0.0-1.0-131.0","",""
"null","sound/msl/organ.wav","null","audio-keyboard-response","133","77272","0.0-1.0-132.0","",""
"null","sound/msl/frog.wav","null","audio-keyboard-response","134","77772","0.0-1.0-133.0","",""
"null","sound/msl/Water.wav","null","audio-keyboard-response","135","78282","0.0-1.0-134.0","",""
"null","sound/msl/bird.wav","null","audio-keyboard-response","136","78782","0.0-1.0-135.0","",""
"null","sound/msl/door.wav","null","audio-keyboard-response","137","79282","0.0-1.0-136.0","",""
"null","sound/msl/ding.wav","null","audio-keyboard-response","138","79782","0.0-1.0-137.0","",""
"null","sound/msl/cat.wav","null","audio-keyboard-response","139","80282","0.0-1.0-138.0","",""
"null","sound/msl/slide_whistle.wav","null","audio-keyboard-response","140","80782","0.0-1.0-139.0","",""
"null","sound/msl/clock.wav","null","audio-keyboard-response","141","81332","0.0-1.0-140.0","",""
"null","sound/msl/duck.wav","null","audio-keyboard-response","142","81842","0.0-1.0-141.0","",""
"null","sound/msl/door_bell.wav","null","audio-keyboard-response","143","82342","0.0-1.0-142.0","",""
"null","sound/msl/cow.wav","null","audio-keyboard-response","144","82853","0.0-1.0-143.0","",""
"null","sound/msl/dog.wav","null","audio-keyboard-response","145","83363","0.0-1.0-144.0","",""
"null","sound/msl/goat.wav","null","audio-keyboard-response","146","83903","0.0-1.0-145.0","",""
"null","sound/msl/boing.wav","null","audio-keyboard-response","147","84402","0.0-1.0-146.0","",""
"null","sound/msl/bird.wav","null","audio-keyboard-response","148","84903","0.0-1.0-147.0","",""
"null","sound/msl/door.wav","null","audio-keyboard-response","149","85398","0.0-1.0-148.0","",""
"null","sound/msl/ding.wav","null","audio-keyboard-response","150","85898","0.0-1.0-149.0","",""
"null","sound/msl/duck.wav","null","audio-keyboard-response","151","86407","0.0-1.0-150.0","",""
"null","sound/msl/door_bell.wav","null","audio-keyboard-response","152","86918","0.0-1.0-151.0","",""
"null","sound/msl/cow.wav","null","audio-keyboard-response","153","87419","0.0-1.0-152.0","",""
"null","sound/msl/organ.wav","null","audio-keyboard-response","154","87918","0.0-1.0-153.0","",""
"null","sound/msl/frog.wav","null","audio-keyboard-response","155","88418","0.0-1.0-154.0","",""
"null","sound/msl/Water.wav","null","audio-keyboard-response","156","88929","0.0-1.0-155.0","",""
"null","sound/msl/cat.wav","null","audio-keyboard-response","157","89428","0.0-1.0-156.0","",""
"null","sound/msl/slide_whistle.wav","null","audio-keyboard-response","158","89929","0.0-1.0-157.0","",""
"null","sound/msl/clock.wav","null","audio-keyboard-response","159","90478","0.0-1.0-158.0","",""
"null","sound/msl/dog.wav","null","audio-keyboard-response","160","90979","0.0-1.0-159.0","",""
"null","sound/msl/goat.wav","null","audio-keyboard-response","161","91519","0.0-1.0-160.0","",""
"null","sound/msl/boing.wav","null","audio-keyboard-response","162","92018","0.0-1.0-161.0","",""
"null","sound/msl/organ.wav","null","audio-keyboard-response","163","92519","0.0-1.0-162.0","",""
"null","sound/msl/frog.wav","null","audio-keyboard-response","164","93019","0.0-1.0-163.0","",""
"null","sound/msl/Water.wav","null","audio-keyboard-response","165","93529","0.0-1.0-164.0","",""
"null","sound/msl/cat.wav","null","audio-keyboard-response","166","94029","0.0-1.0-165.0","",""
"null","sound/msl/slide_whistle.wav","null","audio-keyboard-response","167","94530","0.0-1.0-166.0","",""
"null","sound/msl/clock.wav","null","audio-keyboard-response","168","95079","0.0-1.0-167.0","",""
"null","sound/msl/duck.wav","null","audio-keyboard-response","169","95579","0.0-1.0-168.0","",""
"null","sound/msl/door_bell.wav","null","audio-keyboard-response","170","96089","0.0-1.0-169.0","",""
"null","sound/msl/cow.wav","null","audio-keyboard-response","171","96599","0.0-1.0-170.0","",""
"null","sound/msl/bird.wav","null","audio-keyboard-response","172","97099","0.0-1.0-171.0","",""
"null","sound/msl/door.wav","null","audio-keyboard-response","173","97599","0.0-1.0-172.0","",""
"null","sound/msl/ding.wav","null","audio-keyboard-response","174","98100","0.0-1.0-173.0","",""
"null","sound/msl/dog.wav","null","audio-keyboard-response","175","98610","0.0-1.0-174.0","",""
"null","sound/msl/goat.wav","null","audio-keyboard-response","176","99150","0.0-1.0-175.0","",""
"null","sound/msl/boing.wav","null","audio-keyboard-response","177","99650","0.0-1.0-176.0","",""
"null","sound/msl/organ.wav","null","audio-keyboard-response","178","100150","0.0-1.0-177.0","",""
"null","sound/msl/frog.wav","null","audio-keyboard-response","179","100650","0.0-1.0-178.0","",""
"null","sound/msl/Water.wav","null","audio-keyboard-response","180","101160","0.0-1.0-179.0","",""
"null","sound/msl/bird.wav","null","audio-keyboard-response","181","101660","0.0-1.0-180.0","",""
"null","sound/msl/door.wav","null","audio-keyboard-response","182","102160","0.0-1.0-181.0","",""
"null","sound/msl/ding.wav","null","audio-keyboard-response","183","102661","0.0-1.0-182.0","",""
"null","sound/msl/cat.wav","null","audio-keyboard-response","184","103161","0.0-1.0-183.0","",""
"null","sound/msl/slide_whistle.wav","null","audio-keyboard-response","185","103661","0.0-1.0-184.0","",""
"null","sound/msl/clock.wav","null","audio-keyboard-response","186","104210","0.0-1.0-185.0","",""
"null","sound/msl/duck.wav","null","audio-keyboard-response","187","104721","0.0-1.0-186.0","",""
"null","sound/msl/door_bell.wav","null","audio-keyboard-response","188","105221","0.0-1.0-187.0","",""
"null","sound/msl/cow.wav","null","audio-keyboard-response","189","105731","0.0-1.0-188.0","",""
"null","sound/msl/dog.wav","null","audio-keyboard-response","190","106240","0.0-1.0-189.0","",""
"null","sound/msl/goat.wav","null","audio-keyboard-response","191","106780","0.0-1.0-190.0","",""
"null","sound/msl/boing.wav","null","audio-keyboard-response","192","107281","0.0-1.0-191.0","",""
"null","sound/msl/organ.wav","null","audio-keyboard-response","193","107781","0.0-1.0-192.0","",""
"null","sound/msl/frog.wav","null","audio-keyboard-response","194","108291","0.0-1.0-193.0","",""
"null","sound/msl/Water.wav","null","audio-keyboard-response","195","108801","0.0-1.0-194.0","",""
"null","sound/msl/bird.wav","null","audio-keyboard-response","196","109301","0.0-1.0-195.0","",""
"null","sound/msl/door.wav","null","audio-keyboard-response","197","109801","0.0-1.0-196.0","",""
"null","sound/msl/ding.wav","null","audio-keyboard-response","198","110302","0.0-1.0-197.0","",""
"null","sound/msl/duck.wav","null","audio-keyboard-response","199","110811","0.0-1.0-198.0","",""
"null","sound/msl/door_bell.wav","null","audio-keyboard-response","200","111321","0.0-1.0-199.0","",""
"null","sound/msl/cow.wav","null","audio-keyboard-response","201","111822","0.0-1.0-200.0","",""
"null","sound/msl/cat.wav","null","audio-keyboard-response","202","112322","0.0-1.0-201.0","",""
"null","sound/msl/slide_whistle.wav","null","audio-keyboard-response","203","112822","0.0-1.0-202.0","",""
"null","sound/msl/clock.wav","null","audio-keyboard-response","204","113372","0.0-1.0-203.0","",""
"null","sound/msl/dog.wav","null","audio-keyboard-response","205","113881","0.0-1.0-204.0","",""
"null","sound/msl/goat.wav","null","audio-keyboard-response","206","114421","0.0-1.0-205.0","",""
"null","sound/msl/boing.wav","null","audio-keyboard-response","207","114922","0.0-1.0-206.0","",""
"null","sound/msl/organ.wav","null","audio-keyboard-response","208","115422","0.0-1.0-207.0","",""
"null","sound/msl/frog.wav","null","audio-keyboard-response","209","115932","0.0-1.0-208.0","",""
"null","sound/msl/Water.wav","null","audio-keyboard-response","210","116442","0.0-1.0-209.0","",""
"null","sound/msl/duck.wav","null","audio-keyboard-response","211","116942","0.0-1.0-210.0","",""
"null","sound/msl/door_bell.wav","null","audio-keyboard-response","212","117452","0.0-1.0-211.0","",""
"null","sound/msl/cow.wav","null","audio-keyboard-response","213","117962","0.0-1.0-212.0","",""
"null","sound/msl/dog.wav","null","audio-keyboard-response","214","118462","0.0-1.0-213.0","",""
"null","sound/msl/goat.wav","null","audio-keyboard-response","215","119002","0.0-1.0-214.0","",""
"null","sound/msl/boing.wav","null","audio-keyboard-response","216","119503","0.0-1.0-215.0","",""
"null","sound/msl/bird.wav","null","audio-keyboard-response","217","120013","0.0-1.0-216.0","",""
"null","sound/msl/door.wav","null","audio-keyboard-response","218","120512","0.0-1.0-217.0","",""
"null","sound/msl/ding.wav","null","audio-keyboard-response","219","121013","0.0-1.0-218.0","",""
"null","sound/msl/cat.wav","null","audio-keyboard-response","220","121512","0.0-1.0-219.0","",""
"null","sound/msl/slide_whistle.wav","null","audio-keyboard-response","221","122013","0.0-1.0-220.0","",""
"null","sound/msl/clock.wav","null","audio-keyboard-response","222","122563","0.0-1.0-221.0","",""
"null","sound/msl/organ.wav","null","audio-keyboard-response","223","123063","0.0-1.0-222.0","",""
"null","sound/msl/frog.wav","null","audio-keyboard-response","224","123573","0.0-1.0-223.0","",""
"null","sound/msl/Water.wav","null","audio-keyboard-response","225","124083","0.0-1.0-224.0","",""
"null","sound/msl/bird.wav","null","audio-keyboard-response","226","124584","0.0-1.0-225.0","",""
"null","sound/msl/door.wav","null","audio-keyboard-response","227","125083","0.0-1.0-226.0","",""
"null","sound/msl/ding.wav","null","audio-keyboard-response","228","125583","0.0-1.0-227.0","",""
"null","sound/msl/dog.wav","null","audio-keyboard-response","229","126093","0.0-1.0-228.0","",""
"null","sound/msl/goat.wav","null","audio-keyboard-response","230","126628","0.0-1.0-229.0","",""
"null","sound/msl/boing.wav","null","audio-keyboard-response","231","127128","0.0-1.0-230.0","",""
"null","sound/msl/bird.wav","null","audio-keyboard-response","232","127638","0.0-1.0-231.0","",""
"null","sound/msl/door.wav","null","audio-keyboard-response","233","128138","0.0-1.0-232.0","",""
"null","sound/msl/ding.wav","null","audio-keyboard-response","234","128649","0.0-1.0-233.0","",""
"null","sound/msl/organ.wav","null","audio-keyboard-response","235","129148","0.0-1.0-234.0","",""
"null","sound/msl/frog.wav","null","audio-keyboard-response","236","129648","0.0-1.0-235.0","",""
"null","sound/msl/Water.wav","null","audio-keyboard-response","237","130159","0.0-1.0-236.0","",""
"null","sound/msl/cat.wav","null","audio-keyboard-response","238","130659","0.0-1.0-237.0","",""
"null","sound/msl/slide_whistle.wav","null","audio-keyboard-response","239","131159","0.0-1.0-238.0","",""
"null","sound/msl/clock.wav","null","audio-keyboard-response","240","131709","0.0-1.0-239.0","",""
"null","sound/msl/duck.wav","null","audio-keyboard-response","241","132209","0.0-1.0-240.0","",""
"null","sound/msl/door_bell.wav","null","audio-keyboard-response","242","132719","0.0-1.0-241.0","",""
"null","sound/msl/cow.wav","null","audio-keyboard-response","243","133219","0.0-1.0-242.0","",""
"null","sound/msl/dog.wav","null","audio-keyboard-response","244","133729","0.0-1.0-243.0","",""
"null","sound/msl/goat.wav","null","audio-keyboard-response","245","134270","0.0-1.0-244.0","",""
"null","sound/msl/boing.wav","null","audio-keyboard-response","246","134769","0.0-1.0-245.0","",""
"null","sound/msl/organ.wav","null","audio-keyboard-response","247","135269","0.0-1.0-246.0","",""
"null","sound/msl/frog.wav","null","audio-keyboard-response","248","135770","0.0-1.0-247.0","",""
"null","sound/msl/Water.wav","null","audio-keyboard-response","249","136279","0.0-1.0-248.0","",""
"null","sound/msl/cat.wav","null","audio-keyboard-response","250","136780","0.0-1.0-249.0","",""
"null","sound/msl/slide_whistle.wav","null","audio-keyboard-response","251","137281","0.0-1.0-250.0","",""
"null","sound/msl/clock.wav","null","audio-keyboard-response","252","137829","0.0-1.0-251.0","",""
"null","sound/msl/duck.wav","null","audio-keyboard-response","253","138330","0.0-1.0-252.0","",""
"null","sound/msl/door_bell.wav","null","audio-keyboard-response","254","138840","0.0-1.0-253.0","",""
"null","sound/msl/cow.wav","null","audio-keyboard-response","255","139340","0.0-1.0-254.0","",""
"null","sound/msl/bird.wav","null","audio-keyboard-response","256","139850","0.0-1.0-255.0","",""
"null","sound/msl/door.wav","null","audio-keyboard-response","257","140350","0.0-1.0-256.0","",""
"null","sound/msl/ding.wav","null","audio-keyboard-response","258","140851","0.0-1.0-257.0","",""
"null","sound/msl/dog.wav","null","audio-keyboard-response","259","141360","0.0-1.0-258.0","",""
"null","sound/msl/goat.wav","null","audio-keyboard-response","260","141901","0.0-1.0-259.0","",""
"null","sound/msl/boing.wav","null","audio-keyboard-response","261","142401","0.0-1.0-260.0","",""
"null","sound/msl/duck.wav","null","audio-keyboard-response","262","142901","0.0-1.0-261.0","",""
"null","sound/msl/door_bell.wav","null","audio-keyboard-response","263","143411","0.0-1.0-262.0","",""
"null","sound/msl/cow.wav","null","audio-keyboard-response","264","143920","0.0-1.0-263.0","",""
"null","sound/msl/cat.wav","null","audio-keyboard-response","265","144421","0.0-1.0-264.0","",""
"null","sound/msl/slide_whistle.wav","null","audio-keyboard-response","266","144921","0.0-1.0-265.0","",""
"null","sound/msl/clock.wav","null","audio-keyboard-response","267","145471","0.0-1.0-266.0","",""
"null","sound/msl/bird.wav","null","audio-keyboard-response","268","145971","0.0-1.0-267.0","",""
"null","sound/msl/door.wav","null","audio-keyboard-response","269","146471","0.0-1.0-268.0","",""
"null","sound/msl/ding.wav","null","audio-keyboard-response","270","146971","0.0-1.0-269.0","",""
"null","sound/msl/organ.wav","null","audio-keyboard-response","271","147471","0.0-1.0-270.0","",""
"null","sound/msl/frog.wav","null","audio-keyboard-response","272","147971","0.0-1.0-271.0","",""
"null","sound/msl/Water.wav","null","audio-keyboard-response","273","148482","0.0-1.0-272.0","",""
"null","sound/msl/dog.wav","null","audio-keyboard-response","274","148981","0.0-1.0-273.0","",""
"null","sound/msl/goat.wav","null","audio-keyboard-response","275","149521","0.0-1.0-274.0","",""
"null","sound/msl/boing.wav","null","audio-keyboard-response","276","150022","0.0-1.0-275.0","",""
"null","sound/msl/duck.wav","null","audio-keyboard-response","277","150531","0.0-1.0-276.0","",""
"null","sound/msl/door_bell.wav","null","audio-keyboard-response","278","151041","0.0-1.0-277.0","",""
"null","sound/msl/cow.wav","null","audio-keyboard-response","279","151542","0.0-1.0-278.0","",""
"null","sound/msl/cat.wav","null","audio-keyboard-response","280","152042","0.0-1.0-279.0","",""
"null","sound/msl/slide_whistle.wav","null","audio-keyboard-response","281","152541","0.0-1.0-280.0","",""
"null","sound/msl/clock.wav","null","audio-keyboard-response","282","153091","0.0-1.0-281.0","",""
"null","sound/msl/organ.wav","null","audio-keyboard-response","283","153592","0.0-1.0-282.0","",""
"null","sound/msl/frog.wav","null","audio-keyboard-response","284","154091","0.0-1.0-283.0","",""
"null","sound/msl/Water.wav","null","audio-keyboard-response","285","154602","0.0-1.0-284.0","",""
"null","sound/msl/bird.wav","null","audio-keyboard-response","286","155102","0.0-1.0-285.0","",""
"null","sound/msl/door.wav","null","audio-keyboard-response","287","155602","0.0-1.0-286.0","",""
"null","sound/msl/ding.wav","null","audio-keyboard-response","288","156102","0.0-1.0-287.0","",""
"null","sound/msl/dog.wav","null","audio-keyboard-response","289","156612","0.0-1.0-288.0","",""
"null","sound/msl/goat.wav","null","audio-keyboard-response","290","157153","0.0-1.0-289.0","",""
"null","sound/msl/boing.wav","null","audio-keyboard-response","291","157652","0.0-1.0-290.0","",""
"null","sound/msl/cat.wav","null","audio-keyboard-response","292","158152","0.0-1.0-291.0","",""
"null","sound/msl/slide_whistle.wav","null","audio-keyboard-response","293","158653","0.0-1.0-292.0","",""
"null","sound/msl/clock.wav","null","audio-keyboard-response","294","159203","0.0-1.0-293.0","",""
"null","sound/msl/duck.wav","null","audio-keyboard-response","295","159703","0.0-1.0-294.0","",""
"null","sound/msl/door_bell.wav","null","audio-keyboard-response","296","160212","0.0-1.0-295.0","",""
"null","sound/msl/cow.wav","null","audio-keyboard-response","297","160722","0.0-1.0-296.0","",""
"null","sound/msl/dog.wav","null","audio-keyboard-response","298","161223","0.0-1.0-297.0","",""
"null","sound/msl/goat.wav","null","audio-keyboard-response","299","161763","0.0-1.0-298.0","",""
"null","sound/msl/boing.wav","null","audio-keyboard-response","300","162263","0.0-1.0-299.0","",""
"null","sound/msl/organ.wav","null","audio-keyboard-response","301","162763","0.0-1.0-300.0","",""
"null","sound/msl/frog.wav","null","audio-keyboard-response","302","163263","0.0-1.0-301.0","",""
"null","sound/msl/Water.wav","null","audio-keyboard-response","303","163773","0.0-1.0-302.0","",""
"null","sound/msl/cat.wav","null","audio-keyboard-response","304","164273","0.0-1.0-303.0","",""
"null","sound/msl/slide_whistle.wav","null","audio-keyboard-response","305","164772","0.0-1.0-304.0","",""
"null","sound/msl/clock.wav","null","audio-keyboard-response","306","165323","0.0-1.0-305.0","",""
"null","sound/msl/bird.wav","null","audio-keyboard-response","307","165823","0.0-1.0-306.0","",""
"null","sound/msl/door.wav","null","audio-keyboard-response","308","166324","0.0-1.0-307.0","",""
"null","sound/msl/ding.wav","null","audio-keyboard-response","309","166824","0.0-1.0-308.0","",""
"null","sound/msl/duck.wav","null","audio-keyboard-response","310","167328","0.0-1.0-309.0","",""
"null","sound/msl/door_bell.wav","null","audio-keyboard-response","311","167839","0.0-1.0-310.0","",""
"null","sound/msl/cow.wav","null","audio-keyboard-response","312","168338","0.0-1.0-311.0","",""
"null","sound/msl/dog.wav","null","audio-keyboard-response","313","168849","0.0-1.0-312.0","",""
"null","sound/msl/goat.wav","null","audio-keyboard-response","314","169389","0.0-1.0-313.0","",""
"null","sound/msl/boing.wav","null","audio-keyboard-response","315","169888","0.0-1.0-314.0","",""
"null","sound/msl/organ.wav","null","audio-keyboard-response","316","170388","0.0-1.0-315.0","",""
"null","sound/msl/frog.wav","null","audio-keyboard-response","317","170888","0.0-1.0-316.0","",""
"null","sound/msl/Water.wav","null","audio-keyboard-response","318","171399","0.0-1.0-317.0","",""
"null","sound/msl/cat.wav","null","audio-keyboard-response","319","171899","0.0-1.0-318.0","",""
"null","sound/msl/slide_whistle.wav","null","audio-keyboard-response","320","172399","0.0-1.0-319.0","",""
"null","sound/msl/clock.wav","null","audio-keyboard-response","321","172949","0.0-1.0-320.0","",""
"null","sound/msl/duck.wav","null","audio-keyboard-response","322","173450","0.0-1.0-321.0","",""
"null","sound/msl/door_bell.wav","null","audio-keyboard-response","323","173959","0.0-1.0-322.0","",""
"null","sound/msl/cow.wav","null","audio-keyboard-response","324","174460","0.0-1.0-323.0","",""
"null","sound/msl/organ.wav","null","audio-keyboard-response","325","174959","0.0-1.0-324.0","",""
"null","sound/msl/frog.wav","null","audio-keyboard-response","326","175460","0.0-1.0-325.0","",""
"null","sound/msl/Water.wav","null","audio-keyboard-response","327","175970","0.0-1.0-326.0","",""
"null","sound/msl/bird.wav","null","audio-keyboard-response","328","176480","0.0-1.0-327.0","",""
"null","sound/msl/door.wav","null","audio-keyboard-response","329","176979","0.0-1.0-328.0","",""
"null","sound/msl/ding.wav","null","audio-keyboard-response","330","177490","0.0-1.0-329.0","",""
"null","sound/msl/dog.wav","null","audio-keyboard-response","331","178000","0.0-1.0-330.0","",""
"null","sound/msl/goat.wav","null","audio-keyboard-response","332","178540","0.0-1.0-331.0","",""
"null","sound/msl/boing.wav","null","audio-keyboard-response","333","179040","0.0-1.0-332.0","",""
"null","sound/msl/cat.wav","null","audio-keyboard-response","334","179540","0.0-1.0-333.0","",""
"null","sound/msl/slide_whistle.wav","null","audio-keyboard-response","335","180039","0.0-1.0-334.0","",""
"null","sound/msl/clock.wav","null","audio-keyboard-response","336","180590","0.0-1.0-335.0","",""
"null","sound/msl/bird.wav","null","audio-keyboard-response","337","181091","0.0-1.0-336.0","",""
"null","sound/msl/door.wav","null","audio-keyboard-response","338","181590","0.0-1.0-337.0","",""
"null","sound/msl/ding.wav","null","audio-keyboard-response","339","182090","0.0-1.0-338.0","",""
"null","sound/msl/duck.wav","null","audio-keyboard-response","340","182600","0.0-1.0-339.0","",""
"null","sound/msl/door_bell.wav","null","audio-keyboard-response","341","183101","0.0-1.0-340.0","",""
"null","sound/msl/cow.wav","null","audio-keyboard-response","342","183610","0.0-1.0-341.0","",""
"null","sound/msl/cat.wav","null","audio-keyboard-response","343","184111","0.0-1.0-342.0","",""
"null","sound/msl/slide_whistle.wav","null","audio-keyboard-response","344","184610","0.0-1.0-343.0","",""
"null","sound/msl/clock.wav","null","audio-keyboard-response","345","185161","0.0-1.0-344.0","",""
"null","sound/msl/duck.wav","null","audio-keyboard-response","346","185661","0.0-1.0-345.0","",""
"null","sound/msl/door_bell.wav","null","audio-keyboard-response","347","186170","0.0-1.0-346.0","",""
"null","sound/msl/cow.wav","null","audio-keyboard-response","348","186680","0.0-1.0-347.0","",""
"null","sound/msl/bird.wav","null","audio-keyboard-response","349","187181","0.0-1.0-348.0","",""
"null","sound/msl/door.wav","null","audio-keyboard-response","350","187681","0.0-1.0-349.0","",""
"null","sound/msl/ding.wav","null","audio-keyboard-response","351","188181","0.0-1.0-350.0","",""
"null","sound/msl/dog.wav","null","audio-keyboard-response","352","188692","0.0-1.0-351.0","",""
"null","sound/msl/goat.wav","null","audio-keyboard-response","353","189231","0.0-1.0-352.0","",""
"null","sound/msl/boing.wav","null","audio-keyboard-response","354","189732","0.0-1.0-353.0","",""
"null","sound/msl/cat.wav","null","audio-keyboard-response","355","190231","0.0-1.0-354.0","",""
"null","sound/msl/slide_whistle.wav","null","audio-keyboard-response","356","190731","0.0-1.0-355.0","",""
"null","sound/msl/clock.wav","null","audio-keyboard-response","357","191281","0.0-1.0-356.0","",""
"null","sound/msl/duck.wav","null","audio-keyboard-response","358","191782","0.0-1.0-357.0","",""
"null","sound/msl/door_bell.wav","null","audio-keyboard-response","359","192291","0.0-1.0-358.0","",""
"null","sound/msl/cow.wav","null","audio-keyboard-response","360","192802","0.0-1.0-359.0","",""
"7417","Instructions2-eng.png","49","image-keyboard-response","361","200221","0.0-2.0","",""
"null","sound/msl/duck.wav","null","audio-keyboard-response","362","200723","0.0-3.0-0.0","",""
"null","sound/msl/frog.wav","null","audio-keyboard-response","363","201223","0.0-3.0-1.0","",""
"null","sound/msl/ding.wav","null","audio-keyboard-response","364","201733","0.0-3.0-2.0","",""
"null","sound/asl/silence.wav","null","audio-keyboard-response","365","202235","0.0-3.0-3.0","",""
"null","sound/msl/duck.wav","null","audio-keyboard-response","366","202733","0.0-3.0-4.0","",""
"null","sound/msl/door_bell.wav","null","audio-keyboard-response","367","203242","0.0-3.0-5.0","",""
"null","sound/msl/cow.wav","null","audio-keyboard-response","368","203744","0.0-3.0-6.0","",""
"1659","sound/asl/silence.wav","50","audio-keyboard-response","369","205404","0.0-3.0-7.0","true",""
"null","sound/msl/organ.wav","null","audio-keyboard-response","370","205903","0.0-4.0-0.0","",""
"null","sound/msl/door.wav","null","audio-keyboard-response","371","206403","0.0-4.0-1.0","",""
"null","sound/msl/clock.wav","null","audio-keyboard-response","372","206954","0.0-4.0-2.0","",""
"null","sound/asl/silence.wav","null","audio-keyboard-response","373","207455","0.0-4.0-3.0","",""
"null","sound/msl/cat.wav","null","audio-keyboard-response","374","207949","0.0-4.0-4.0","",""
"null","sound/msl/slide_whistle.wav","null","audio-keyboard-response","375","208449","0.0-4.0-5.0","",""
"null","sound/msl/clock.wav","null","audio-keyboard-response","376","208999","0.0-4.0-6.0","",""
"3461","sound/asl/silence.wav","50","audio-keyboard-response","377","212463","0.0-4.0-7.0","true",""
"null","sound/msl/organ.wav","null","audio-keyboard-response","378","212960","0.0-5.0-0.0","",""
"null","sound/msl/door.wav","null","audio-keyboard-response","379","213459","0.0-5.0-1.0","",""
"null","sound/msl/clock.wav","null","audio-keyboard-response","380","214009","0.0-5.0-2.0","",""
"null","sound/asl/silence.wav","null","audio-keyboard-response","381","214511","0.0-5.0-3.0","",""
"null","sound/msl/bird.wav","null","audio-keyboard-response","382","215010","0.0-5.0-4.0","",""
"null","sound/msl/door.wav","null","audio-keyboard-response","383","215510","0.0-5.0-5.0","",""
"null","sound/msl/ding.wav","null","audio-keyboard-response","384","216010","0.0-5.0-6.0","",""
"1949","sound/asl/silence.wav","49","audio-keyboard-response","385","217960","0.0-5.0-7.0","false",""
"null","sound/msl/bird.wav","null","audio-keyboard-response","386","218460","0.0-6.0-0.0","",""
"null","sound/msl/slide_whistle.wav","null","audio-keyboard-response","387","218960","0.0-6.0-1.0","",""
"null","sound/msl/boing.wav","null","audio-keyboard-response","388","219461","0.0-6.0-2.0","",""
"null","sound/asl/silence.wav","null","audio-keyboard-response","389","219963","0.0-6.0-3.0","",""
"null","sound/msl/cat.wav","null","audio-keyboard-response","390","220461","0.0-6.0-4.0","",""
"null","sound/msl/slide_whistle.wav","null","audio-keyboard-response","391","220960","0.0-6.0-5.0","",""
"null","sound/msl/clock.wav","null","audio-keyboard-response","392","221510","0.0-6.0-6.0","",""
"352","sound/asl/silence.wav","50","audio-keyboard-response","393","221868","0.0-6.0-7.0","true",""
"null","sound/msl/dog.wav","null","audio-keyboard-response","394","222371","0.0-7.0-0.0","",""
"null","sound/msl/door_bell.wav","null","audio-keyboard-response","395","222880","0.0-7.0-1.0","",""
"null","sound/msl/Water.wav","null","audio-keyboard-response","396","223391","0.0-7.0-2.0","",""
"null","sound/asl/silence.wav","null","audio-keyboard-response","397","223892","0.0-7.0-3.0","",""
"null","sound/msl/organ.wav","null","audio-keyboard-response","398","224390","0.0-7.0-4.0","",""
"null","sound/msl/frog.wav","null","audio-keyboard-response","399","224891","0.0-7.0-5.0","",""
"null","sound/msl/Water.wav","null","audio-keyboard-response","400","225401","0.0-7.0-6.0","",""
"709","sound/asl/silence.wav","49","audio-keyboard-response","401","226116","0.0-7.0-7.0","false",""
"null","sound/msl/dog.wav","null","audio-keyboard-response","402","226612","0.0-8.0-0.0","",""
"null","sound/msl/goat.wav","null","audio-keyboard-response","403","227151","0.0-8.0-1.0","",""
"null","sound/msl/boing.wav","null","audio-keyboard-response","404","227651","0.0-8.0-2.0","",""
"null","sound/asl/silence.wav","null","audio-keyboard-response","405","228153","0.0-8.0-3.0","",""
"null","sound/msl/dog.wav","null","audio-keyboard-response","406","228651","0.0-8.0-4.0","",""
"null","sound/msl/door_bell.wav","null","audio-keyboard-response","407","229162","0.0-8.0-5.0","",""
"null","sound/msl/Water.wav","null","audio-keyboard-response","408","229672","0.0-8.0-6.0","",""
"472","sound/asl/silence.wav","49","audio-keyboard-response","409","230150","0.0-8.0-7.0","true",""
"null","sound/msl/bird.wav","null","audio-keyboard-response","410","230652","0.0-9.0-0.0","",""
"null","sound/msl/door.wav","null","audio-keyboard-response","411","231151","0.0-9.0-1.0","",""
"null","sound/msl/ding.wav","null","audio-keyboard-response","412","231652","0.0-9.0-2.0","",""
"null","sound/asl/silence.wav","null","audio-keyboard-response","413","232153","0.0-9.0-3.0","",""
"null","sound/msl/duck.wav","null","audio-keyboard-response","414","232652","0.0-9.0-4.0","",""
"null","sound/msl/frog.wav","null","audio-keyboard-response","415","233162","0.0-9.0-5.0","",""
"null","sound/msl/ding.wav","null","audio-keyboard-response","416","233662","0.0-9.0-6.0","",""
"499","sound/asl/silence.wav","50","audio-keyboard-response","417","234166","0.0-9.0-7.0","false",""
"null","sound/msl/dog.wav","null","audio-keyboard-response","418","234662","0.0-10.0-0.0","",""
"null","sound/msl/goat.wav","null","audio-keyboard-response","419","235202","0.0-10.0-1.0","",""
"null","sound/msl/boing.wav","null","audio-keyboard-response","420","235702","0.0-10.0-2.0","",""
"null","sound/asl/silence.wav","null","audio-keyboard-response","421","236203","0.0-10.0-3.0","",""
"null","sound/msl/cat.wav","null","audio-keyboard-response","422","236702","0.0-10.0-4.0","",""
"null","sound/msl/goat.wav","null","audio-keyboard-response","423","237242","0.0-10.0-5.0","",""
"null","sound/msl/cow.wav","null","audio-keyboard-response","424","237743","0.0-10.0-6.0","",""
"2880","sound/asl/silence.wav","50","audio-keyboard-response","425","240627","0.0-10.0-7.0","false",""
"null","sound/msl/duck.wav","null","audio-keyboard-response","426","241132","0.0-11.0-0.0","",""
"null","sound/msl/frog.wav","null","audio-keyboard-response","427","241642","0.0-11.0-1.0","",""
"null","sound/msl/ding.wav","null","audio-keyboard-response","428","242143","0.0-11.0-2.0","",""
"null","sound/asl/silence.wav","null","audio-keyboard-response","429","242645","0.0-11.0-3.0","",""
"null","sound/msl/dog.wav","null","audio-keyboard-response","430","243144","0.0-11.0-4.0","",""
"null","sound/msl/goat.wav","null","audio-keyboard-response","431","243684","0.0-11.0-5.0","",""
"null","sound/msl/boing.wav","null","audio-keyboard-response","432","244183","0.0-11.0-6.0","",""
"608","sound/asl/silence.wav","49","audio-keyboard-response","433","244802","0.0-11.0-7.0","false",""
"null","sound/msl/cat.wav","null","audio-keyboard-response","434","245303","0.0-12.0-0.0","",""
"null","sound/msl/slide_whistle.wav","null","audio-keyboard-response","435","245803","0.0-12.0-1.0","",""
"null","sound/msl/clock.wav","null","audio-keyboard-response","436","246353","0.0-12.0-2.0","",""
"null","sound/asl/silence.wav","null","audio-keyboard-response","437","246856","0.0-12.0-3.0","",""
"null","sound/msl/dog.wav","null","audio-keyboard-response","438","247364","0.0-12.0-4.0","",""
"null","sound/msl/door_bell.wav","null","audio-keyboard-response","439","247863","0.0-12.0-5.0","",""
"null","sound/msl/Water.wav","null","audio-keyboard-response","440","248374","0.0-12.0-6.0","",""
"749","sound/asl/silence.wav","49","audio-keyboard-response","441","249129","0.0-12.0-7.0","true",""
"null","sound/msl/bird.wav","null","audio-keyboard-response","442","249639","0.0-13.0-0.0","",""
"null","sound/msl/slide_whistle.wav","null","audio-keyboard-response","443","250139","0.0-13.0-1.0","",""
"null","sound/msl/boing.wav","null","audio-keyboard-response","444","250639","0.0-13.0-2.0","",""
"null","sound/asl/silence.wav","null","audio-keyboard-response","445","251141","0.0-13.0-3.0","",""
"null","sound/msl/bird.wav","null","audio-keyboard-response","446","251649","0.0-13.0-4.0","",""
"null","sound/msl/door.wav","null","audio-keyboard-response","447","252149","0.0-13.0-5.0","",""
"null","sound/msl/ding.wav","null","audio-keyboard-response","448","252649","0.0-13.0-6.0","",""
"589","sound/asl/silence.wav","50","audio-keyboard-response","449","253240","0.0-13.0-7.0","true",""
"null","sound/msl/bird.wav","null","audio-keyboard-response","450","253739","0.0-14.0-0.0","",""
"null","sound/msl/door.wav","null","audio-keyboard-response","451","254239","0.0-14.0-1.0","",""
"null","sound/msl/ding.wav","null","audio-keyboard-response","452","254740","0.0-14.0-2.0","",""
"null","sound/asl/silence.wav","null","audio-keyboard-response","453","255242","0.0-14.0-3.0","",""
"null","sound/msl/dog.wav","null","audio-keyboard-response","454","255739","0.0-14.0-4.0","",""
"null","sound/msl/door_bell.wav","null","audio-keyboard-response","455","256250","0.0-14.0-5.0","",""
"null","sound/msl/Water.wav","null","audio-keyboard-response","456","256760","0.0-14.0-6.0","",""
"1781","sound/asl/silence.wav","49","audio-keyboard-response","457","258546","0.0-14.0-7.0","true",""
"null","sound/msl/organ.wav","null","audio-keyboard-response","458","259040","0.0-15.0-0.0","",""
"null","sound/msl/frog.wav","null","audio-keyboard-response","459","259541","0.0-15.0-1.0","",""
"null","sound/msl/Water.wav","null","audio-keyboard-response","460","260051","0.0-15.0-2.0","",""
"null","sound/asl/silence.wav","null","audio-keyboard-response","461","260552","0.0-15.0-3.0","",""
"null","sound/msl/duck.wav","null","audio-keyboard-response","462","261050","0.0-15.0-4.0","",""
"null","sound/msl/frog.wav","null","audio-keyboard-response","463","261560","0.0-15.0-5.0","",""
"null","sound/msl/ding.wav","null","audio-keyboard-response","464","262061","0.0-15.0-6.0","",""
"1619","sound/asl/silence.wav","49","audio-keyboard-response","465","263681","0.0-15.0-7.0","true",""
"null","sound/msl/dog.wav","null","audio-keyboard-response","466","264181","0.0-16.0-0.0","",""
"null","sound/msl/goat.wav","null","audio-keyboard-response","467","264721","0.0-16.0-1.0","",""
"null","sound/msl/boing.wav","null","audio-keyboard-response","468","265221","0.0-16.0-2.0","",""
"null","sound/asl/silence.wav","null","audio-keyboard-response","469","265723","0.0-16.0-3.0","",""
"null","sound/msl/organ.wav","null","audio-keyboard-response","470","266221","0.0-16.0-4.0","",""
"null","sound/msl/door.wav","null","audio-keyboard-response","471","266721","0.0-16.0-5.0","",""
"null","sound/msl/clock.wav","null","audio-keyboard-response","472","267271","0.0-16.0-6.0","",""
"1440","sound/asl/silence.wav","50","audio-keyboard-response","473","268715","0.0-16.0-7.0","false",""
"null","sound/msl/duck.wav","null","audio-keyboard-response","474","269212","0.0-17.0-0.0","",""
"null","sound/msl/door_bell.wav","null","audio-keyboard-response","475","269722","0.0-17.0-1.0","",""
"null","sound/msl/cow.wav","null","audio-keyboard-response","476","270222","0.0-17.0-2.0","",""
"null","sound/asl/silence.wav","null","audio-keyboard-response","477","270724","0.0-17.0-3.0","",""
"null","sound/msl/cat.wav","null","audio-keyboard-response","478","271222","0.0-17.0-4.0","",""
"null","sound/msl/goat.wav","null","audio-keyboard-response","479","271762","0.0-17.0-5.0","",""
"null","sound/msl/cow.wav","null","audio-keyboard-response","480","272262","0.0-17.0-6.0","",""
"240","sound/asl/silence.wav","50","audio-keyboard-response","481","272506","0.0-17.0-7.0","false",""
"null","sound/msl/organ.wav","null","audio-keyboard-response","482","273002","0.0-18.0-0.0","",""
"null","sound/msl/frog.wav","null","audio-keyboard-response","483","273502","0.0-18.0-1.0","",""
"null","sound/msl/Water.wav","null","audio-keyboard-response","484","274012","0.0-18.0-2.0","",""
"null","sound/asl/silence.wav","null","audio-keyboard-response","485","274515","0.0-18.0-3.0","",""
"null","sound/msl/bird.wav","null","audio-keyboard-response","486","275012","0.0-18.0-4.0","",""
"null","sound/msl/slide_whistle.wav","null","audio-keyboard-response","487","275513","0.0-18.0-5.0","",""
"null","sound/msl/boing.wav","null","audio-keyboard-response","488","276013","0.0-18.0-6.0","",""
"291","sound/asl/silence.wav","49","audio-keyboard-response","489","276309","0.0-18.0-7.0","true",""
"null","sound/msl/organ.wav","null","audio-keyboard-response","490","276802","0.0-19.0-0.0","",""
"null","sound/msl/frog.wav","null","audio-keyboard-response","491","277303","0.0-19.0-1.0","",""
"null","sound/msl/Water.wav","null","audio-keyboard-response","492","277812","0.0-19.0-2.0","",""
"null","sound/asl/silence.wav","null","audio-keyboard-response","493","278314","0.0-19.0-3.0","",""
"null","sound/msl/organ.wav","null","audio-keyboard-response","494","278812","0.0-19.0-4.0","",""
"null","sound/msl/door.wav","null","audio-keyboard-response","495","279313","0.0-19.0-5.0","",""
"null","sound/msl/clock.wav","null","audio-keyboard-response","496","279863","0.0-19.0-6.0","",""
"488","sound/asl/silence.wav","49","audio-keyboard-response","497","280356","0.0-19.0-7.0","true",""
"null","sound/msl/bird.wav","null","audio-keyboard-response","498","280853","0.0-20.0-0.0","",""
"null","sound/msl/slide_whistle.wav","null","audio-keyboard-response","499","281353","0.0-20.0-1.0","",""
"null","sound/msl/boing.wav","null","audio-keyboard-response","500","281853","0.0-20.0-2.0","",""
"null","sound/asl/silence.wav","null","audio-keyboard-response","501","282356","0.0-20.0-3.0","",""
"null","sound/msl/duck.wav","null","audio-keyboard-response","502","282854","0.0-20.0-4.0","",""
"null","sound/msl/door_bell.wav","null","audio-keyboard-response","503","283364","0.0-20.0-5.0","",""
"null","sound/msl/cow.wav","null","audio-keyboard-response","504","283864","0.0-20.0-6.0","",""
"179","sound/asl/silence.wav","50","audio-keyboard-response","505","284047","0.0-20.0-7.0","true",""
"null","sound/msl/organ.wav","null","audio-keyboard-response","506","284543","0.0-21.0-0.0","",""
"null","sound/msl/door.wav","null","audio-keyboard-response","507","285043","0.0-21.0-1.0","",""
"null","sound/msl/clock.wav","null","audio-keyboard-response","508","285595","0.0-21.0-2.0","",""
"null","sound/asl/silence.wav","null","audio-keyboard-response","509","286096","0.0-21.0-3.0","",""
"null","sound/msl/duck.wav","null","audio-keyboard-response","510","286604","0.0-21.0-4.0","",""
"null","sound/msl/door_bell.wav","null","audio-keyboard-response","511","287104","0.0-21.0-5.0","",""
"null","sound/msl/cow.wav","null","audio-keyboard-response","512","287614","0.0-21.0-6.0","",""
"109","sound/asl/silence.wav","50","audio-keyboard-response","513","287724","0.0-21.0-7.0","true",""
"null","sound/msl/cat.wav","null","audio-keyboard-response","514","288224","0.0-22.0-0.0","",""
"null","sound/msl/slide_whistle.wav","null","audio-keyboard-response","515","288725","0.0-22.0-1.0","",""
"null","sound/msl/clock.wav","null","audio-keyboard-response","516","289274","0.0-22.0-2.0","",""
"null","sound/asl/silence.wav","null","audio-keyboard-response","517","289776","0.0-22.0-3.0","",""
"null","sound/msl/cat.wav","null","audio-keyboard-response","518","290269","0.0-22.0-4.0","",""
"null","sound/msl/goat.wav","null","audio-keyboard-response","519","290810","0.0-22.0-5.0","",""
"null","sound/msl/cow.wav","null","audio-keyboard-response","520","291319","0.0-22.0-6.0","",""
"101","sound/asl/silence.wav","49","audio-keyboard-response","521","291428","0.0-22.0-7.0","true",""
"null","sound/msl/bird.wav","null","audio-keyboard-response","522","291929","0.0-23.0-0.0","",""
"null","sound/msl/slide_whistle.wav","null","audio-keyboard-response","523","292429","0.0-23.0-1.0","",""
"null","sound/msl/boing.wav","null","audio-keyboard-response","524","292930","0.0-23.0-2.0","",""
"null","sound/asl/silence.wav","null","audio-keyboard-response","525","293430","0.0-23.0-3.0","",""
"null","sound/msl/dog.wav","null","audio-keyboard-response","526","293930","0.0-23.0-4.0","",""
"null","sound/msl/goat.wav","null","audio-keyboard-response","527","294470","0.0-23.0-5.0","",""
"null","sound/msl/boing.wav","null","audio-keyboard-response","528","294970","0.0-23.0-6.0","",""
"91","sound/asl/silence.wav","49","audio-keyboard-response","529","295068","0.0-23.0-7.0","false",""
"null","sound/msl/duck.wav","null","audio-keyboard-response","530","295570","0.0-24.0-0.0","",""
"null","sound/msl/frog.wav","null","audio-keyboard-response","531","296080","0.0-24.0-1.0","",""
"null","sound/msl/ding.wav","null","audio-keyboard-response","532","296580","0.0-24.0-2.0","",""
"null","sound/asl/silence.wav","null","audio-keyboard-response","533","297082","0.0-24.0-3.0","",""
"null","sound/msl/cat.wav","null","audio-keyboard-response","534","297580","0.0-24.0-4.0","",""
"null","sound/msl/slide_whistle.wav","null","audio-keyboard-response","535","298080","0.0-24.0-5.0","",""
"null","sound/msl/clock.wav","null","audio-keyboard-response","536","298630","0.0-24.0-6.0","",""
"61","sound/asl/silence.wav","49","audio-keyboard-response","537","298695","0.0-24.0-7.0","false",""
"null","sound/msl/cat.wav","null","audio-keyboard-response","538","299190","0.0-25.0-0.0","",""
"null","sound/msl/goat.wav","null","audio-keyboard-response","539","299731","0.0-25.0-1.0","",""
"null","sound/msl/cow.wav","null","audio-keyboard-response","540","300241","0.0-25.0-2.0","",""
"null","sound/asl/silence.wav","null","audio-keyboard-response","541","300742","0.0-25.0-3.0","",""
"null","sound/msl/bird.wav","null","audio-keyboard-response","542","301251","0.0-25.0-4.0","",""
"null","sound/msl/door.wav","null","audio-keyboard-response","543","301751","0.0-25.0-5.0","",""
"null","sound/msl/ding.wav","null","audio-keyboard-response","544","302251","0.0-25.0-6.0","",""
"149","sound/asl/silence.wav","49","audio-keyboard-response","545","302406","0.0-25.0-7.0","false",""
"null","sound/msl/cat.wav","null","audio-keyboard-response","546","302900","0.0-26.0-0.0","",""
"null","sound/msl/goat.wav","null","audio-keyboard-response","547","303441","0.0-26.0-1.0","",""
"null","sound/msl/cow.wav","null","audio-keyboard-response","548","303941","0.0-26.0-2.0","",""
"null","sound/asl/silence.wav","null","audio-keyboard-response","549","304442","0.0-26.0-3.0","",""
"null","sound/msl/organ.wav","null","audio-keyboard-response","550","304941","0.0-26.0-4.0","",""
"null","sound/msl/frog.wav","null","audio-keyboard-response","551","305452","0.0-26.0-5.0","",""
"null","sound/msl/Water.wav","null","audio-keyboard-response","552","305961","0.0-26.0-6.0","",""
"141","sound/asl/silence.wav","50","audio-keyboard-response","553","306109","0.0-26.0-7.0","true",""
"null","sound/msl/duck.wav","null","audio-keyboard-response","554","306612","0.0-27.0-0.0","",""
"null","sound/msl/door_bell.wav","null","audio-keyboard-response","555","307121","0.0-27.0-1.0","",""
"null","sound/msl/cow.wav","null","audio-keyboard-response","556","307622","0.0-27.0-2.0","",""
"null","sound/asl/silence.wav","null","audio-keyboard-response","557","308124","0.0-27.0-3.0","",""
"null","sound/msl/dog.wav","null","audio-keyboard-response","558","308623","0.0-27.0-4.0","",""
"null","sound/msl/door_bell.wav","null","audio-keyboard-response","559","309132","0.0-27.0-5.0","",""
"null","sound/msl/Water.wav","null","audio-keyboard-response","560","309641","0.0-27.0-6.0","",""
"261","sound/asl/silence.wav","49","audio-keyboard-response","561","309902","0.0-27.0-7.0","true",""
"18793","","","instructions","562","328697","0.0-28.0","","[{""page_index"":0,""viewing_time"":18793}]"
