"rt","stimulus","key_press","trial_type","trial_index","time_elapsed","internal_node_id","correct","view_history"
"12580","alien.jpg","49","image-keyboard-response","0","12581","0.0-0.0","",""
"null","sound/msl/organ.wav","null","audio-keyboard-response","1","13085","0.0-1.0-0.0","",""
"null","sound/msl/dog.wav","null","audio-keyboard-response","2","13605","0.0-1.0-1.0","",""
"null","sound/msl/duck.wav","null","audio-keyboard-response","3","14124","0.0-1.0-2.0","",""
"null","sound/msl/frog.wav","null","audio-keyboard-response","4","14644","0.0-1.0-3.0","",""
"null","sound/msl/boing.wav","null","audio-keyboard-response","5","15155","0.0-1.0-4.0","",""
"null","sound/msl/cat.wav","null","audio-keyboard-response","6","15664","0.0-1.0-5.0","",""
"null","sound/msl/slide_whistle.wav","null","audio-keyboard-response","7","16174","0.0-1.0-6.0","",""
"null","sound/msl/goat.wav","null","audio-keyboard-response","8","16725","0.0-1.0-7.0","",""
"null","sound/msl/door_bell.wav","null","audio-keyboard-response","9","17244","0.0-1.0-8.0","",""
"null","sound/msl/ding.wav","null","audio-keyboard-response","10","17765","0.0-1.0-9.0","",""
"null","sound/msl/Water.wav","null","audio-keyboard-response","11","18285","0.0-1.0-10.0","",""
"null","sound/msl/bird.wav","null","audio-keyboard-response","12","18805","0.0-1.0-11.0","",""
"null","sound/msl/frog.wav","null","audio-keyboard-response","13","19325","0.0-1.0-12.0","",""
"null","sound/msl/boing.wav","null","audio-keyboard-response","14","19835","0.0-1.0-13.0","",""
"null","sound/msl/cat.wav","null","audio-keyboard-response","15","20345","0.0-1.0-14.0","",""
"null","sound/msl/organ.wav","null","audio-keyboard-response","16","20855","0.0-1.0-15.0","",""
"null","sound/msl/dog.wav","null","audio-keyboard-response","17","21375","0.0-1.0-16.0","",""
"null","sound/msl/duck.wav","null","audio-keyboard-response","18","21896","0.0-1.0-17.0","",""
"null","sound/msl/door.wav","null","audio-keyboard-response","19","22406","0.0-1.0-18.0","",""
"null","sound/msl/cow.wav","null","audio-keyboard-response","20","22926","0.0-1.0-19.0","",""
"null","sound/msl/clock.wav","null","audio-keyboard-response","21","23485","0.0-1.0-20.0","",""
"null","sound/msl/ding.wav","null","audio-keyboard-response","22","24005","0.0-1.0-21.0","",""
"null","sound/msl/Water.wav","null","audio-keyboard-response","23","24525","0.0-1.0-22.0","",""
"null","sound/msl/bird.wav","null","audio-keyboard-response","24","25045","0.0-1.0-23.0","",""
"null","sound/msl/slide_whistle.wav","null","audio-keyboard-response","25","25566","0.0-1.0-24.0","",""
"null","sound/msl/goat.wav","null","audio-keyboard-response","26","26116","0.0-1.0-25.0","",""
"null","sound/msl/door_bell.wav","null","audio-keyboard-response","27","26626","0.0-1.0-26.0","",""
"null","sound/msl/organ.wav","null","audio-keyboard-response","28","27135","0.0-1.0-27.0","",""
"null","sound/msl/dog.wav","null","audio-keyboard-response","29","27656","0.0-1.0-28.0","",""
"null","sound/msl/duck.wav","null","audio-keyboard-response","30","28176","0.0-1.0-29.0","",""
"null","sound/msl/frog.wav","null","audio-keyboard-response","31","28696","0.0-1.0-30.0","",""
"null","sound/msl/boing.wav","null","audio-keyboard-response","32","29207","0.0-1.0-31.0","",""
"null","sound/msl/cat.wav","null","audio-keyboard-response","33","29717","0.0-1.0-32.0","",""
"null","sound/msl/door.wav","null","audio-keyboard-response","34","30227","0.0-1.0-33.0","",""
"null","sound/msl/cow.wav","null","audio-keyboard-response","35","30736","0.0-1.0-34.0","",""
"null","sound/msl/clock.wav","null","audio-keyboard-response","36","31297","0.0-1.0-35.0","",""
"null","sound/msl/slide_whistle.wav","null","audio-keyboard-response","37","31816","0.0-1.0-36.0","",""
"null","sound/msl/goat.wav","null","audio-keyboard-response","38","32367","0.0-1.0-37.0","",""
"null","sound/msl/door_bell.wav","null","audio-keyboard-response","39","32886","0.0-1.0-38.0","",""
"null","sound/msl/ding.wav","null","audio-keyboard-response","40","33407","0.0-1.0-39.0","",""
"null","sound/msl/Water.wav","null","audio-keyboard-response","41","33926","0.0-1.0-40.0","",""
"null","sound/msl/bird.wav","null","audio-keyboard-response","42","34447","0.0-1.0-41.0","",""
"null","sound/msl/door.wav","null","audio-keyboard-response","43","34957","0.0-1.0-42.0","",""
"null","sound/msl/cow.wav","null","audio-keyboard-response","44","35467","0.0-1.0-43.0","",""
"null","sound/msl/clock.wav","null","audio-keyboard-response","45","36027","0.0-1.0-44.0","",""
"null","sound/msl/frog.wav","null","audio-keyboard-response","46","36537","0.0-1.0-45.0","",""
"null","sound/msl/boing.wav","null","audio-keyboard-response","47","37047","0.0-1.0-46.0","",""
"null","sound/msl/cat.wav","null","audio-keyboard-response","48","37558","0.0-1.0-47.0","",""
"null","sound/msl/slide_whistle.wav","null","audio-keyboard-response","49","38067","0.0-1.0-48.0","",""
"null","sound/msl/goat.wav","null","audio-keyboard-response","50","38618","0.0-1.0-49.0","",""
"null","sound/msl/door_bell.wav","null","audio-keyboard-response","51","39138","0.0-1.0-50.0","",""
"null","sound/msl/organ.wav","null","audio-keyboard-response","52","39648","0.0-1.0-51.0","",""
"null","sound/msl/dog.wav","null","audio-keyboard-response","53","40168","0.0-1.0-52.0","",""
"null","sound/msl/duck.wav","null","audio-keyboard-response","54","40688","0.0-1.0-53.0","",""
"null","sound/msl/frog.wav","null","audio-keyboard-response","55","41208","0.0-1.0-54.0","",""
"null","sound/msl/boing.wav","null","audio-keyboard-response","56","41718","0.0-1.0-55.0","",""
"null","sound/msl/cat.wav","null","audio-keyboard-response","57","42228","0.0-1.0-56.0","",""
"null","sound/msl/slide_whistle.wav","null","audio-keyboard-response","58","42738","0.0-1.0-57.0","",""
"null","sound/msl/goat.wav","null","audio-keyboard-response","59","43288","0.0-1.0-58.0","",""
"null","sound/msl/door_bell.wav","null","audio-keyboard-response","60","43803","0.0-1.0-59.0","",""
"null","sound/msl/ding.wav","null","audio-keyboard-response","61","44324","0.0-1.0-60.0","",""
"null","sound/msl/Water.wav","null","audio-keyboard-response","62","44843","0.0-1.0-61.0","",""
"null","sound/msl/bird.wav","null","audio-keyboard-response","63","45364","0.0-1.0-62.0","",""
"null","sound/msl/door.wav","null","audio-keyboard-response","64","45874","0.0-1.0-63.0","",""
"null","sound/msl/cow.wav","null","audio-keyboard-response","65","46384","0.0-1.0-64.0","",""
"null","sound/msl/clock.wav","null","audio-keyboard-response","66","46944","0.0-1.0-65.0","",""
"null","sound/msl/frog.wav","null","audio-keyboard-response","67","47454","0.0-1.0-66.0","",""
"null","sound/msl/boing.wav","null","audio-keyboard-response","68","47963","0.0-1.0-67.0","",""
"null","sound/msl/cat.wav","null","audio-keyboard-response","69","48474","0.0-1.0-68.0","",""
"null","sound/msl/organ.wav","null","audio-keyboard-response","70","48984","0.0-1.0-69.0","",""
"null","sound/msl/dog.wav","null","audio-keyboard-response","71","49494","0.0-1.0-70.0","",""
"null","sound/msl/duck.wav","null","audio-keyboard-response","72","50014","0.0-1.0-71.0","",""
"null","sound/msl/slide_whistle.wav","null","audio-keyboard-response","73","50534","0.0-1.0-72.0","",""
"null","sound/msl/goat.wav","null","audio-keyboard-response","74","51084","0.0-1.0-73.0","",""
"null","sound/msl/door_bell.wav","null","audio-keyboard-response","75","51604","0.0-1.0-74.0","",""
"null","sound/msl/ding.wav","null","audio-keyboard-response","76","52124","0.0-1.0-75.0","",""
"null","sound/msl/Water.wav","null","audio-keyboard-response","77","52644","0.0-1.0-76.0","",""
"null","sound/msl/bird.wav","null","audio-keyboard-response","78","53164","0.0-1.0-77.0","",""
"null","sound/msl/slide_whistle.wav","null","audio-keyboard-response","79","53685","0.0-1.0-78.0","",""
"null","sound/msl/goat.wav","null","audio-keyboard-response","80","54234","0.0-1.0-79.0","",""
"null","sound/msl/door_bell.wav","null","audio-keyboard-response","81","54744","0.0-1.0-80.0","",""
"null","sound/msl/door.wav","null","audio-keyboard-response","82","55255","0.0-1.0-81.0","",""
"null","sound/msl/cow.wav","null","audio-keyboard-response","83","55775","0.0-1.0-82.0","",""
"null","sound/msl/clock.wav","null","audio-keyboard-response","84","56335","0.0-1.0-83.0","",""
"null","sound/msl/organ.wav","null","audio-keyboard-response","85","56845","0.0-1.0-84.0","",""
"null","sound/msl/dog.wav","null","audio-keyboard-response","86","57365","0.0-1.0-85.0","",""
"null","sound/msl/duck.wav","null","audio-keyboard-response","87","57885","0.0-1.0-86.0","",""
"null","sound/msl/frog.wav","null","audio-keyboard-response","88","58405","0.0-1.0-87.0","",""
"null","sound/msl/boing.wav","null","audio-keyboard-response","89","58915","0.0-1.0-88.0","",""
"null","sound/msl/cat.wav","null","audio-keyboard-response","90","59425","0.0-1.0-89.0","",""
"null","sound/msl/door.wav","null","audio-keyboard-response","91","59935","0.0-1.0-90.0","",""
"null","sound/msl/cow.wav","null","audio-keyboard-response","92","60455","0.0-1.0-91.0","",""
"null","sound/msl/clock.wav","null","audio-keyboard-response","93","61015","0.0-1.0-92.0","",""
"null","sound/msl/ding.wav","null","audio-keyboard-response","94","61535","0.0-1.0-93.0","",""
"null","sound/msl/Water.wav","null","audio-keyboard-response","95","62056","0.0-1.0-94.0","",""
"null","sound/msl/bird.wav","null","audio-keyboard-response","96","62576","0.0-1.0-95.0","",""
"null","sound/msl/slide_whistle.wav","null","audio-keyboard-response","97","63096","0.0-1.0-96.0","",""
"null","sound/msl/goat.wav","null","audio-keyboard-response","98","63646","0.0-1.0-97.0","",""
"null","sound/msl/door_bell.wav","null","audio-keyboard-response","99","64166","0.0-1.0-98.0","",""
"null","sound/msl/frog.wav","null","audio-keyboard-response","100","64686","0.0-1.0-99.0","",""
"null","sound/msl/boing.wav","null","audio-keyboard-response","101","65196","0.0-1.0-100.0","",""
"null","sound/msl/cat.wav","null","audio-keyboard-response","102","65706","0.0-1.0-101.0","",""
"null","sound/msl/door.wav","null","audio-keyboard-response","103","66216","0.0-1.0-102.0","",""
"null","sound/msl/cow.wav","null","audio-keyboard-response","104","66736","0.0-1.0-103.0","",""
"null","sound/msl/clock.wav","null","audio-keyboard-response","105","67297","0.0-1.0-104.0","",""
"null","sound/msl/organ.wav","null","audio-keyboard-response","106","67807","0.0-1.0-105.0","",""
"null","sound/msl/dog.wav","null","audio-keyboard-response","107","68326","0.0-1.0-106.0","",""
"null","sound/msl/duck.wav","null","audio-keyboard-response","108","68847","0.0-1.0-107.0","",""
"null","sound/msl/frog.wav","null","audio-keyboard-response","109","69367","0.0-1.0-108.0","",""
"null","sound/msl/boing.wav","null","audio-keyboard-response","110","69877","0.0-1.0-109.0","",""
"null","sound/msl/cat.wav","null","audio-keyboard-response","111","70386","0.0-1.0-110.0","",""
"null","sound/msl/ding.wav","null","audio-keyboard-response","112","70897","0.0-1.0-111.0","",""
"null","sound/msl/Water.wav","null","audio-keyboard-response","113","71417","0.0-1.0-112.0","",""
"null","sound/msl/bird.wav","null","audio-keyboard-response","114","71937","0.0-1.0-113.0","",""
"null","sound/msl/door.wav","null","audio-keyboard-response","115","72447","0.0-1.0-114.0","",""
"null","sound/msl/cow.wav","null","audio-keyboard-response","116","72967","0.0-1.0-115.0","",""
"null","sound/msl/clock.wav","null","audio-keyboard-response","117","73527","0.0-1.0-116.0","",""
"null","sound/msl/slide_whistle.wav","null","audio-keyboard-response","118","74047","0.0-1.0-117.0","",""
"null","sound/msl/goat.wav","null","audio-keyboard-response","119","74597","0.0-1.0-118.0","",""
"null","sound/msl/door_bell.wav","null","audio-keyboard-response","120","75107","0.0-1.0-119.0","",""
"null","sound/msl/organ.wav","null","audio-keyboard-response","121","75618","0.0-1.0-120.0","",""
"null","sound/msl/dog.wav","null","audio-keyboard-response","122","76138","0.0-1.0-121.0","",""
"null","sound/msl/duck.wav","null","audio-keyboard-response","123","76657","0.0-1.0-122.0","",""
"null","sound/msl/frog.wav","null","audio-keyboard-response","124","77178","0.0-1.0-123.0","",""
"null","sound/msl/boing.wav","null","audio-keyboard-response","125","77688","0.0-1.0-124.0","",""
"null","sound/msl/cat.wav","null","audio-keyboard-response","126","78197","0.0-1.0-125.0","",""
"null","sound/msl/door.wav","null","audio-keyboard-response","127","78708","0.0-1.0-126.0","",""
"null","sound/msl/cow.wav","null","audio-keyboard-response","128","79218","0.0-1.0-127.0","",""
"null","sound/msl/clock.wav","null","audio-keyboard-response","129","79777","0.0-1.0-128.0","",""
"null","sound/msl/ding.wav","null","audio-keyboard-response","130","80298","0.0-1.0-129.0","",""
"null","sound/msl/Water.wav","null","audio-keyboard-response","131","80818","0.0-1.0-130.0","",""
"null","sound/msl/bird.wav","null","audio-keyboard-response","132","81338","0.0-1.0-131.0","",""
"null","sound/msl/frog.wav","null","audio-keyboard-response","133","81858","0.0-1.0-132.0","",""
"null","sound/msl/boing.wav","null","audio-keyboard-response","134","82368","0.0-1.0-133.0","",""
"null","sound/msl/cat.wav","null","audio-keyboard-response","135","82878","0.0-1.0-134.0","",""
"null","sound/msl/slide_whistle.wav","null","audio-keyboard-response","136","83388","0.0-1.0-135.0","",""
"null","sound/msl/goat.wav","null","audio-keyboard-response","137","83938","0.0-1.0-136.0","",""
"null","sound/msl/door_bell.wav","null","audio-keyboard-response","138","84453","0.0-1.0-137.0","",""
"null","sound/msl/ding.wav","null","audio-keyboard-response","139","84974","0.0-1.0-138.0","",""
"null","sound/msl/Water.wav","null","audio-keyboard-response","140","85494","0.0-1.0-139.0","",""
"null","sound/msl/bird.wav","null","audio-keyboard-response","141","86014","0.0-1.0-140.0","",""
"null","sound/msl/organ.wav","null","audio-keyboard-response","142","86524","0.0-1.0-141.0","",""
"null","sound/msl/dog.wav","null","audio-keyboard-response","143","87043","0.0-1.0-142.0","",""
"null","sound/msl/duck.wav","null","audio-keyboard-response","144","87564","0.0-1.0-143.0","",""
"null","sound/msl/door.wav","null","audio-keyboard-response","145","88074","0.0-1.0-144.0","",""
"null","sound/msl/cow.wav","null","audio-keyboard-response","146","88584","0.0-1.0-145.0","",""
"null","sound/msl/clock.wav","null","audio-keyboard-response","147","89144","0.0-1.0-146.0","",""
"null","sound/msl/slide_whistle.wav","null","audio-keyboard-response","148","89654","0.0-1.0-147.0","",""
"null","sound/msl/goat.wav","null","audio-keyboard-response","149","90204","0.0-1.0-148.0","",""
"null","sound/msl/door_bell.wav","null","audio-keyboard-response","150","90725","0.0-1.0-149.0","",""
"null","sound/msl/organ.wav","null","audio-keyboard-response","151","91235","0.0-1.0-150.0","",""
"null","sound/msl/dog.wav","null","audio-keyboard-response","152","91745","0.0-1.0-151.0","",""
"null","sound/msl/duck.wav","null","audio-keyboard-response","153","92254","0.0-1.0-152.0","",""
"null","sound/msl/frog.wav","null","audio-keyboard-response","154","92774","0.0-1.0-153.0","",""
"null","sound/msl/boing.wav","null","audio-keyboard-response","155","93285","0.0-1.0-154.0","",""
"null","sound/msl/cat.wav","null","audio-keyboard-response","156","93795","0.0-1.0-155.0","",""
"null","sound/msl/ding.wav","null","audio-keyboard-response","157","94305","0.0-1.0-156.0","",""
"null","sound/msl/Water.wav","null","audio-keyboard-response","158","94825","0.0-1.0-157.0","",""
"null","sound/msl/bird.wav","null","audio-keyboard-response","159","95335","0.0-1.0-158.0","",""
"null","sound/msl/door.wav","null","audio-keyboard-response","160","95844","0.0-1.0-159.0","",""
"null","sound/msl/cow.wav","null","audio-keyboard-response","161","96365","0.0-1.0-160.0","",""
"null","sound/msl/clock.wav","null","audio-keyboard-response","162","96925","0.0-1.0-161.0","",""
"null","sound/msl/frog.wav","null","audio-keyboard-response","163","97445","0.0-1.0-162.0","",""
"null","sound/msl/boing.wav","null","audio-keyboard-response","164","97955","0.0-1.0-163.0","",""
"null","sound/msl/cat.wav","null","audio-keyboard-response","165","98465","0.0-1.0-164.0","",""
"null","sound/msl/ding.wav","null","audio-keyboard-response","166","98976","0.0-1.0-165.0","",""
"null","sound/msl/Water.wav","null","audio-keyboard-response","167","99495","0.0-1.0-166.0","",""
"null","sound/msl/bird.wav","null","audio-keyboard-response","168","100015","0.0-1.0-167.0","",""
"null","sound/msl/organ.wav","null","audio-keyboard-response","169","100526","0.0-1.0-168.0","",""
"null","sound/msl/dog.wav","null","audio-keyboard-response","170","101046","0.0-1.0-169.0","",""
"null","sound/msl/duck.wav","null","audio-keyboard-response","171","101565","0.0-1.0-170.0","",""
"null","sound/msl/slide_whistle.wav","null","audio-keyboard-response","172","102085","0.0-1.0-171.0","",""
"null","sound/msl/goat.wav","null","audio-keyboard-response","173","102636","0.0-1.0-172.0","",""
"null","sound/msl/door_bell.wav","null","audio-keyboard-response","174","103146","0.0-1.0-173.0","",""
"null","sound/msl/door.wav","null","audio-keyboard-response","175","103656","0.0-1.0-174.0","",""
"null","sound/msl/cow.wav","null","audio-keyboard-response","176","104176","0.0-1.0-175.0","",""
"null","sound/msl/clock.wav","null","audio-keyboard-response","177","104736","0.0-1.0-176.0","",""
"null","sound/msl/frog.wav","null","audio-keyboard-response","178","105256","0.0-1.0-177.0","",""
"null","sound/msl/boing.wav","null","audio-keyboard-response","179","105766","0.0-1.0-178.0","",""
"null","sound/msl/cat.wav","null","audio-keyboard-response","180","106276","0.0-1.0-179.0","",""
"null","sound/msl/slide_whistle.wav","null","audio-keyboard-response","181","106786","0.0-1.0-180.0","",""
"null","sound/msl/goat.wav","null","audio-keyboard-response","182","107337","0.0-1.0-181.0","",""
"null","sound/msl/door_bell.wav","null","audio-keyboard-response","183","107856","0.0-1.0-182.0","",""
"null","sound/msl/ding.wav","null","audio-keyboard-response","184","108376","0.0-1.0-183.0","",""
"null","sound/msl/Water.wav","null","audio-keyboard-response","185","108896","0.0-1.0-184.0","",""
"null","sound/msl/bird.wav","null","audio-keyboard-response","186","109416","0.0-1.0-185.0","",""
"null","sound/msl/organ.wav","null","audio-keyboard-response","187","109926","0.0-1.0-186.0","",""
"null","sound/msl/dog.wav","null","audio-keyboard-response","188","110447","0.0-1.0-187.0","",""
"null","sound/msl/duck.wav","null","audio-keyboard-response","189","110967","0.0-1.0-188.0","",""
"null","sound/msl/door.wav","null","audio-keyboard-response","190","111477","0.0-1.0-189.0","",""
"null","sound/msl/cow.wav","null","audio-keyboard-response","191","111987","0.0-1.0-190.0","",""
"null","sound/msl/clock.wav","null","audio-keyboard-response","192","112547","0.0-1.0-191.0","",""
"null","sound/msl/frog.wav","null","audio-keyboard-response","193","113057","0.0-1.0-192.0","",""
"null","sound/msl/boing.wav","null","audio-keyboard-response","194","113567","0.0-1.0-193.0","",""
"null","sound/msl/cat.wav","null","audio-keyboard-response","195","114077","0.0-1.0-194.0","",""
"null","sound/msl/slide_whistle.wav","null","audio-keyboard-response","196","114588","0.0-1.0-195.0","",""
"null","sound/msl/goat.wav","null","audio-keyboard-response","197","115137","0.0-1.0-196.0","",""
"null","sound/msl/door_bell.wav","null","audio-keyboard-response","198","115658","0.0-1.0-197.0","",""
"null","sound/msl/organ.wav","null","audio-keyboard-response","199","116167","0.0-1.0-198.0","",""
"null","sound/msl/dog.wav","null","audio-keyboard-response","200","116687","0.0-1.0-199.0","",""
"null","sound/msl/duck.wav","null","audio-keyboard-response","201","117208","0.0-1.0-200.0","",""
"null","sound/msl/ding.wav","null","audio-keyboard-response","202","117728","0.0-1.0-201.0","",""
"null","sound/msl/Water.wav","null","audio-keyboard-response","203","118248","0.0-1.0-202.0","",""
"null","sound/msl/bird.wav","null","audio-keyboard-response","204","118768","0.0-1.0-203.0","",""
"null","sound/msl/door.wav","null","audio-keyboard-response","205","119278","0.0-1.0-204.0","",""
"null","sound/msl/cow.wav","null","audio-keyboard-response","206","119787","0.0-1.0-205.0","",""
"null","sound/msl/clock.wav","null","audio-keyboard-response","207","120348","0.0-1.0-206.0","",""
"null","sound/msl/frog.wav","null","audio-keyboard-response","208","120858","0.0-1.0-207.0","",""
"null","sound/msl/boing.wav","null","audio-keyboard-response","209","121368","0.0-1.0-208.0","",""
"null","sound/msl/cat.wav","null","audio-keyboard-response","210","121878","0.0-1.0-209.0","",""
"null","sound/msl/organ.wav","null","audio-keyboard-response","211","122388","0.0-1.0-210.0","",""
"null","sound/msl/dog.wav","null","audio-keyboard-response","212","122899","0.0-1.0-211.0","",""
"null","sound/msl/duck.wav","null","audio-keyboard-response","213","123418","0.0-1.0-212.0","",""
"null","sound/msl/door.wav","null","audio-keyboard-response","214","123928","0.0-1.0-213.0","",""
"null","sound/msl/cow.wav","null","audio-keyboard-response","215","124449","0.0-1.0-214.0","",""
"null","sound/msl/clock.wav","null","audio-keyboard-response","216","125003","0.0-1.0-215.0","",""
"null","sound/msl/slide_whistle.wav","null","audio-keyboard-response","217","125524","0.0-1.0-216.0","",""
"null","sound/msl/goat.wav","null","audio-keyboard-response","218","126074","0.0-1.0-217.0","",""
"null","sound/msl/door_bell.wav","null","audio-keyboard-response","219","126584","0.0-1.0-218.0","",""
"null","sound/msl/ding.wav","null","audio-keyboard-response","220","127094","0.0-1.0-219.0","",""
"null","sound/msl/Water.wav","null","audio-keyboard-response","221","127614","0.0-1.0-220.0","",""
"null","sound/msl/bird.wav","null","audio-keyboard-response","222","128134","0.0-1.0-221.0","",""
"null","sound/msl/frog.wav","null","audio-keyboard-response","223","128654","0.0-1.0-222.0","",""
"null","sound/msl/boing.wav","null","audio-keyboard-response","224","129164","0.0-1.0-223.0","",""
"null","sound/msl/cat.wav","null","audio-keyboard-response","225","129675","0.0-1.0-224.0","",""
"null","sound/msl/slide_whistle.wav","null","audio-keyboard-response","226","130185","0.0-1.0-225.0","",""
"null","sound/msl/goat.wav","null","audio-keyboard-response","227","130735","0.0-1.0-226.0","",""
"null","sound/msl/door_bell.wav","null","audio-keyboard-response","228","131255","0.0-1.0-227.0","",""
"null","sound/msl/door.wav","null","audio-keyboard-response","229","131765","0.0-1.0-228.0","",""
"null","sound/msl/cow.wav","null","audio-keyboard-response","230","132284","0.0-1.0-229.0","",""
"null","sound/msl/clock.wav","null","audio-keyboard-response","231","132845","0.0-1.0-230.0","",""
"null","sound/msl/slide_whistle.wav","null","audio-keyboard-response","232","133365","0.0-1.0-231.0","",""
"null","sound/msl/goat.wav","null","audio-keyboard-response","233","133915","0.0-1.0-232.0","",""
"null","sound/msl/door_bell.wav","null","audio-keyboard-response","234","134425","0.0-1.0-233.0","",""
"null","sound/msl/frog.wav","null","audio-keyboard-response","235","134935","0.0-1.0-234.0","",""
"null","sound/msl/boing.wav","null","audio-keyboard-response","236","135445","0.0-1.0-235.0","",""
"null","sound/msl/cat.wav","null","audio-keyboard-response","237","135955","0.0-1.0-236.0","",""
"null","sound/msl/ding.wav","null","audio-keyboard-response","238","136465","0.0-1.0-237.0","",""
"null","sound/msl/Water.wav","null","audio-keyboard-response","239","136985","0.0-1.0-238.0","",""
"null","sound/msl/bird.wav","null","audio-keyboard-response","240","137496","0.0-1.0-239.0","",""
"null","sound/msl/organ.wav","null","audio-keyboard-response","241","138006","0.0-1.0-240.0","",""
"null","sound/msl/dog.wav","null","audio-keyboard-response","242","138525","0.0-1.0-241.0","",""
"null","sound/msl/duck.wav","null","audio-keyboard-response","243","139046","0.0-1.0-242.0","",""
"null","sound/msl/door.wav","null","audio-keyboard-response","244","139555","0.0-1.0-243.0","",""
"null","sound/msl/cow.wav","null","audio-keyboard-response","245","140065","0.0-1.0-244.0","",""
"null","sound/msl/clock.wav","null","audio-keyboard-response","246","140626","0.0-1.0-245.0","",""
"null","sound/msl/frog.wav","null","audio-keyboard-response","247","141135","0.0-1.0-246.0","",""
"null","sound/msl/boing.wav","null","audio-keyboard-response","248","141646","0.0-1.0-247.0","",""
"null","sound/msl/cat.wav","null","audio-keyboard-response","249","142155","0.0-1.0-248.0","",""
"null","sound/msl/ding.wav","null","audio-keyboard-response","250","142666","0.0-1.0-249.0","",""
"null","sound/msl/Water.wav","null","audio-keyboard-response","251","143186","0.0-1.0-250.0","",""
"null","sound/msl/bird.wav","null","audio-keyboard-response","252","143696","0.0-1.0-251.0","",""
"null","sound/msl/organ.wav","null","audio-keyboard-response","253","144206","0.0-1.0-252.0","",""
"null","sound/msl/dog.wav","null","audio-keyboard-response","254","144726","0.0-1.0-253.0","",""
"null","sound/msl/duck.wav","null","audio-keyboard-response","255","145246","0.0-1.0-254.0","",""
"null","sound/msl/slide_whistle.wav","null","audio-keyboard-response","256","145766","0.0-1.0-255.0","",""
"null","sound/msl/goat.wav","null","audio-keyboard-response","257","146317","0.0-1.0-256.0","",""
"null","sound/msl/door_bell.wav","null","audio-keyboard-response","258","146827","0.0-1.0-257.0","",""
"null","sound/msl/door.wav","null","audio-keyboard-response","259","147337","0.0-1.0-258.0","",""
"null","sound/msl/cow.wav","null","audio-keyboard-response","260","147856","0.0-1.0-259.0","",""
"null","sound/msl/clock.wav","null","audio-keyboard-response","261","148417","0.0-1.0-260.0","",""
"null","sound/msl/organ.wav","null","audio-keyboard-response","262","148927","0.0-1.0-261.0","",""
"null","sound/msl/dog.wav","null","audio-keyboard-response","263","149446","0.0-1.0-262.0","",""
"null","sound/msl/duck.wav","null","audio-keyboard-response","264","149967","0.0-1.0-263.0","",""
"null","sound/msl/ding.wav","null","audio-keyboard-response","265","150487","0.0-1.0-264.0","",""
"null","sound/msl/Water.wav","null","audio-keyboard-response","266","151007","0.0-1.0-265.0","",""
"null","sound/msl/bird.wav","null","audio-keyboard-response","267","151527","0.0-1.0-266.0","",""
"null","sound/msl/slide_whistle.wav","null","audio-keyboard-response","268","152047","0.0-1.0-267.0","",""
"null","sound/msl/goat.wav","null","audio-keyboard-response","269","152597","0.0-1.0-268.0","",""
"null","sound/msl/door_bell.wav","null","audio-keyboard-response","270","153107","0.0-1.0-269.0","",""
"null","sound/msl/frog.wav","null","audio-keyboard-response","271","153618","0.0-1.0-270.0","",""
"null","sound/msl/boing.wav","null","audio-keyboard-response","272","154128","0.0-1.0-271.0","",""
"null","sound/msl/cat.wav","null","audio-keyboard-response","273","154638","0.0-1.0-272.0","",""
"null","sound/msl/door.wav","null","audio-keyboard-response","274","155148","0.0-1.0-273.0","",""
"null","sound/msl/cow.wav","null","audio-keyboard-response","275","155657","0.0-1.0-274.0","",""
"null","sound/msl/clock.wav","null","audio-keyboard-response","276","156217","0.0-1.0-275.0","",""
"null","sound/msl/organ.wav","null","audio-keyboard-response","277","156728","0.0-1.0-276.0","",""
"null","sound/msl/dog.wav","null","audio-keyboard-response","278","157248","0.0-1.0-277.0","",""
"null","sound/msl/duck.wav","null","audio-keyboard-response","279","157768","0.0-1.0-278.0","",""
"null","sound/msl/ding.wav","null","audio-keyboard-response","280","158288","0.0-1.0-279.0","",""
"null","sound/msl/Water.wav","null","audio-keyboard-response","281","158808","0.0-1.0-280.0","",""
"null","sound/msl/bird.wav","null","audio-keyboard-response","282","159328","0.0-1.0-281.0","",""
"null","sound/msl/frog.wav","null","audio-keyboard-response","283","159848","0.0-1.0-282.0","",""
"null","sound/msl/boing.wav","null","audio-keyboard-response","284","160358","0.0-1.0-283.0","",""
"null","sound/msl/cat.wav","null","audio-keyboard-response","285","160868","0.0-1.0-284.0","",""
"null","sound/msl/slide_whistle.wav","null","audio-keyboard-response","286","161378","0.0-1.0-285.0","",""
"null","sound/msl/goat.wav","null","audio-keyboard-response","287","161928","0.0-1.0-286.0","",""
"null","sound/msl/door_bell.wav","null","audio-keyboard-response","288","162448","0.0-1.0-287.0","",""
"null","sound/msl/door.wav","null","audio-keyboard-response","289","162959","0.0-1.0-288.0","",""
"null","sound/msl/cow.wav","null","audio-keyboard-response","290","163468","0.0-1.0-289.0","",""
"null","sound/msl/clock.wav","null","audio-keyboard-response","291","164029","0.0-1.0-290.0","",""
"null","sound/msl/ding.wav","null","audio-keyboard-response","292","164539","0.0-1.0-291.0","",""
"null","sound/msl/Water.wav","null","audio-keyboard-response","293","165058","0.0-1.0-292.0","",""
"null","sound/msl/bird.wav","null","audio-keyboard-response","294","165574","0.0-1.0-293.0","",""
"null","sound/msl/organ.wav","null","audio-keyboard-response","295","166084","0.0-1.0-294.0","",""
"null","sound/msl/dog.wav","null","audio-keyboard-response","296","166604","0.0-1.0-295.0","",""
"null","sound/msl/duck.wav","null","audio-keyboard-response","297","167124","0.0-1.0-296.0","",""
"null","sound/msl/door.wav","null","audio-keyboard-response","298","167634","0.0-1.0-297.0","",""
"null","sound/msl/cow.wav","null","audio-keyboard-response","299","168144","0.0-1.0-298.0","",""
"null","sound/msl/clock.wav","null","audio-keyboard-response","300","168705","0.0-1.0-299.0","",""
"null","sound/msl/frog.wav","null","audio-keyboard-response","301","169214","0.0-1.0-300.0","",""
"null","sound/msl/boing.wav","null","audio-keyboard-response","302","169725","0.0-1.0-301.0","",""
"null","sound/msl/cat.wav","null","audio-keyboard-response","303","170235","0.0-1.0-302.0","",""
"null","sound/msl/ding.wav","null","audio-keyboard-response","304","170744","0.0-1.0-303.0","",""
"null","sound/msl/Water.wav","null","audio-keyboard-response","305","171264","0.0-1.0-304.0","",""
"null","sound/msl/bird.wav","null","audio-keyboard-response","306","171774","0.0-1.0-305.0","",""
"null","sound/msl/slide_whistle.wav","null","audio-keyboard-response","307","172295","0.0-1.0-306.0","",""
"null","sound/msl/goat.wav","null","audio-keyboard-response","308","172845","0.0-1.0-307.0","",""
"null","sound/msl/door_bell.wav","null","audio-keyboard-response","309","173365","0.0-1.0-308.0","",""
"null","sound/msl/organ.wav","null","audio-keyboard-response","310","173875","0.0-1.0-309.0","",""
"null","sound/msl/dog.wav","null","audio-keyboard-response","311","174385","0.0-1.0-310.0","",""
"null","sound/msl/duck.wav","null","audio-keyboard-response","312","174895","0.0-1.0-311.0","",""
"null","sound/msl/door.wav","null","audio-keyboard-response","313","175405","0.0-1.0-312.0","",""
"null","sound/msl/cow.wav","null","audio-keyboard-response","314","175925","0.0-1.0-313.0","",""
"null","sound/msl/clock.wav","null","audio-keyboard-response","315","176485","0.0-1.0-314.0","",""
"null","sound/msl/frog.wav","null","audio-keyboard-response","316","177005","0.0-1.0-315.0","",""
"null","sound/msl/boing.wav","null","audio-keyboard-response","317","177516","0.0-1.0-316.0","",""
"null","sound/msl/cat.wav","null","audio-keyboard-response","318","178026","0.0-1.0-317.0","",""
"null","sound/msl/ding.wav","null","audio-keyboard-response","319","178536","0.0-1.0-318.0","",""
"null","sound/msl/Water.wav","null","audio-keyboard-response","320","179055","0.0-1.0-319.0","",""
"null","sound/msl/bird.wav","null","audio-keyboard-response","321","179576","0.0-1.0-320.0","",""
"null","sound/msl/organ.wav","null","audio-keyboard-response","322","180085","0.0-1.0-321.0","",""
"null","sound/msl/dog.wav","null","audio-keyboard-response","323","180606","0.0-1.0-322.0","",""
"null","sound/msl/duck.wav","null","audio-keyboard-response","324","181125","0.0-1.0-323.0","",""
"null","sound/msl/frog.wav","null","audio-keyboard-response","325","181646","0.0-1.0-324.0","",""
"null","sound/msl/boing.wav","null","audio-keyboard-response","326","182156","0.0-1.0-325.0","",""
"null","sound/msl/cat.wav","null","audio-keyboard-response","327","182666","0.0-1.0-326.0","",""
"null","sound/msl/slide_whistle.wav","null","audio-keyboard-response","328","183176","0.0-1.0-327.0","",""
"null","sound/msl/goat.wav","null","audio-keyboard-response","329","183726","0.0-1.0-328.0","",""
"null","sound/msl/door_bell.wav","null","audio-keyboard-response","330","184246","0.0-1.0-329.0","",""
"null","sound/msl/door.wav","null","audio-keyboard-response","331","184756","0.0-1.0-330.0","",""
"null","sound/msl/cow.wav","null","audio-keyboard-response","332","185266","0.0-1.0-331.0","",""
"null","sound/msl/clock.wav","null","audio-keyboard-response","333","185826","0.0-1.0-332.0","",""
"null","sound/msl/ding.wav","null","audio-keyboard-response","334","186336","0.0-1.0-333.0","",""
"null","sound/msl/Water.wav","null","audio-keyboard-response","335","186857","0.0-1.0-334.0","",""
"null","sound/msl/bird.wav","null","audio-keyboard-response","336","187376","0.0-1.0-335.0","",""
"null","sound/msl/slide_whistle.wav","null","audio-keyboard-response","337","187896","0.0-1.0-336.0","",""
"null","sound/msl/goat.wav","null","audio-keyboard-response","338","188447","0.0-1.0-337.0","",""
"null","sound/msl/door_bell.wav","null","audio-keyboard-response","339","188967","0.0-1.0-338.0","",""
"null","sound/msl/organ.wav","null","audio-keyboard-response","340","189477","0.0-1.0-339.0","",""
"null","sound/msl/dog.wav","null","audio-keyboard-response","341","189987","0.0-1.0-340.0","",""
"null","sound/msl/duck.wav","null","audio-keyboard-response","342","190497","0.0-1.0-341.0","",""
"null","sound/msl/ding.wav","null","audio-keyboard-response","343","191017","0.0-1.0-342.0","",""
"null","sound/msl/Water.wav","null","audio-keyboard-response","344","191537","0.0-1.0-343.0","",""
"null","sound/msl/bird.wav","null","audio-keyboard-response","345","192057","0.0-1.0-344.0","",""
"null","sound/msl/organ.wav","null","audio-keyboard-response","346","192568","0.0-1.0-345.0","",""
"null","sound/msl/dog.wav","null","audio-keyboard-response","347","193088","0.0-1.0-346.0","",""
"null","sound/msl/duck.wav","null","audio-keyboard-response","348","193607","0.0-1.0-347.0","",""
"null","sound/msl/slide_whistle.wav","null","audio-keyboard-response","349","194128","0.0-1.0-348.0","",""
"null","sound/msl/goat.wav","null","audio-keyboard-response","350","194678","0.0-1.0-349.0","",""
"null","sound/msl/door_bell.wav","null","audio-keyboard-response","351","195188","0.0-1.0-350.0","",""
"null","sound/msl/door.wav","null","audio-keyboard-response","352","195698","0.0-1.0-351.0","",""
"null","sound/msl/cow.wav","null","audio-keyboard-response","353","196218","0.0-1.0-352.0","",""
"null","sound/msl/clock.wav","null","audio-keyboard-response","354","196778","0.0-1.0-353.0","",""
"null","sound/msl/ding.wav","null","audio-keyboard-response","355","197299","0.0-1.0-354.0","",""
"null","sound/msl/Water.wav","null","audio-keyboard-response","356","197819","0.0-1.0-355.0","",""
"null","sound/msl/bird.wav","null","audio-keyboard-response","357","198338","0.0-1.0-356.0","",""
"null","sound/msl/organ.wav","null","audio-keyboard-response","358","198848","0.0-1.0-357.0","",""
"null","sound/msl/dog.wav","null","audio-keyboard-response","359","199368","0.0-1.0-358.0","",""
"null","sound/msl/duck.wav","null","audio-keyboard-response","360","199889","0.0-1.0-359.0","",""
"16106","Instructions2-eng.png","49","image-keyboard-response","361","215996","0.0-2.0","",""
"null","sound/msl/door.wav","null","audio-keyboard-response","362","216506","0.0-3.0-0.0","",""
"null","sound/msl/dog.wav","null","audio-keyboard-response","363","217016","0.0-3.0-1.0","",""
"null","sound/msl/cat.wav","null","audio-keyboard-response","364","217525","0.0-3.0-2.0","",""
"null","sound/asl/silence.wav","null","audio-keyboard-response","365","218027","0.0-3.0-3.0","",""
"null","sound/msl/frog.wav","null","audio-keyboard-response","366","218536","0.0-3.0-4.0","",""
"null","sound/msl/boing.wav","null","audio-keyboard-response","367","219046","0.0-3.0-5.0","",""
"null","sound/msl/cat.wav","null","audio-keyboard-response","368","219555","0.0-3.0-6.0","",""
"11032","sound/asl/silence.wav","49","audio-keyboard-response","369","230597","0.0-3.0-7.0","false",""
"null","sound/msl/slide_whistle.wav","null","audio-keyboard-response","370","231107","0.0-4.0-0.0","",""
"null","sound/msl/goat.wav","null","audio-keyboard-response","371","231657","0.0-4.0-1.0","",""
"null","sound/msl/door_bell.wav","null","audio-keyboard-response","372","232178","0.0-4.0-2.0","",""
"null","sound/asl/silence.wav","null","audio-keyboard-response","373","232678","0.0-4.0-3.0","",""
"null","sound/msl/organ.wav","null","audio-keyboard-response","374","233188","0.0-4.0-4.0","",""
"null","sound/msl/boing.wav","null","audio-keyboard-response","375","233697","0.0-4.0-5.0","",""
"null","sound/msl/door_bell.wav","null","audio-keyboard-response","376","234218","0.0-4.0-6.0","",""
"8480","sound/asl/silence.wav","50","audio-keyboard-response","377","242708","0.0-4.0-7.0","false",""
"null","sound/msl/slide_whistle.wav","null","audio-keyboard-response","378","243219","0.0-5.0-0.0","",""
"null","sound/msl/Water.wav","null","audio-keyboard-response","379","243738","0.0-5.0-1.0","",""
"null","sound/msl/clock.wav","null","audio-keyboard-response","380","244299","0.0-5.0-2.0","",""
"null","sound/asl/silence.wav","null","audio-keyboard-response","381","244799","0.0-5.0-3.0","",""
"null","sound/msl/organ.wav","null","audio-keyboard-response","382","245309","0.0-5.0-4.0","",""
"null","sound/msl/dog.wav","null","audio-keyboard-response","383","245819","0.0-5.0-5.0","",""
"null","sound/msl/duck.wav","null","audio-keyboard-response","384","246334","0.0-5.0-6.0","",""
"2859","sound/asl/silence.wav","49","audio-keyboard-response","385","249198","0.0-5.0-7.0","false",""
"null","sound/msl/organ.wav","null","audio-keyboard-response","386","249705","0.0-6.0-0.0","",""
"null","sound/msl/boing.wav","null","audio-keyboard-response","387","250214","0.0-6.0-1.0","",""
"null","sound/msl/door_bell.wav","null","audio-keyboard-response","388","250735","0.0-6.0-2.0","",""
"null","sound/asl/silence.wav","null","audio-keyboard-response","389","251236","0.0-6.0-3.0","",""
"null","sound/msl/door.wav","null","audio-keyboard-response","390","251745","0.0-6.0-4.0","",""
"null","sound/msl/cow.wav","null","audio-keyboard-response","391","252255","0.0-6.0-5.0","",""
"null","sound/msl/clock.wav","null","audio-keyboard-response","392","252815","0.0-6.0-6.0","",""
"4440","sound/asl/silence.wav","50","audio-keyboard-response","393","257256","0.0-6.0-7.0","true",""
"null","sound/msl/frog.wav","null","audio-keyboard-response","394","257777","0.0-7.0-0.0","",""
"null","sound/msl/goat.wav","null","audio-keyboard-response","395","258326","0.0-7.0-1.0","",""
"null","sound/msl/bird.wav","null","audio-keyboard-response","396","258846","0.0-7.0-2.0","",""
"null","sound/asl/silence.wav","null","audio-keyboard-response","397","259347","0.0-7.0-3.0","",""
"null","sound/msl/ding.wav","null","audio-keyboard-response","398","259856","0.0-7.0-4.0","",""
"null","sound/msl/Water.wav","null","audio-keyboard-response","399","260376","0.0-7.0-5.0","",""
"null","sound/msl/bird.wav","null","audio-keyboard-response","400","260897","0.0-7.0-6.0","",""
"2040","sound/asl/silence.wav","50","audio-keyboard-response","401","262940","0.0-7.0-7.0","true",""
"null","sound/msl/door.wav","null","audio-keyboard-response","402","263446","0.0-8.0-0.0","",""
"null","sound/msl/cow.wav","null","audio-keyboard-response","403","263966","0.0-8.0-1.0","",""
"null","sound/msl/clock.wav","null","audio-keyboard-response","404","264527","0.0-8.0-2.0","",""
"null","sound/asl/silence.wav","null","audio-keyboard-response","405","265028","0.0-8.0-3.0","",""
"null","sound/msl/door.wav","null","audio-keyboard-response","406","265536","0.0-8.0-4.0","",""
"null","sound/msl/dog.wav","null","audio-keyboard-response","407","266057","0.0-8.0-5.0","",""
"null","sound/msl/cat.wav","null","audio-keyboard-response","408","266567","0.0-8.0-6.0","",""
"3829","sound/asl/silence.wav","49","audio-keyboard-response","409","270400","0.0-8.0-7.0","true",""
"null","sound/msl/ding.wav","null","audio-keyboard-response","410","270907","0.0-9.0-0.0","",""
"null","sound/msl/Water.wav","null","audio-keyboard-response","411","271427","0.0-9.0-1.0","",""
"null","sound/msl/bird.wav","null","audio-keyboard-response","412","271938","0.0-9.0-2.0","",""
"null","sound/asl/silence.wav","null","audio-keyboard-response","413","272439","0.0-9.0-3.0","",""
"null","sound/msl/door.wav","null","audio-keyboard-response","414","272948","0.0-9.0-4.0","",""
"null","sound/msl/dog.wav","null","audio-keyboard-response","415","273458","0.0-9.0-5.0","",""
"null","sound/msl/cat.wav","null","audio-keyboard-response","416","273968","0.0-9.0-6.0","",""
"3021","sound/asl/silence.wav","49","audio-keyboard-response","417","276993","0.0-9.0-7.0","true",""
"null","sound/msl/organ.wav","null","audio-keyboard-response","418","277498","0.0-10.0-0.0","",""
"null","sound/msl/boing.wav","null","audio-keyboard-response","419","278008","0.0-10.0-1.0","",""
"null","sound/msl/door_bell.wav","null","audio-keyboard-response","420","278528","0.0-10.0-2.0","",""
"null","sound/asl/silence.wav","null","audio-keyboard-response","421","279029","0.0-10.0-3.0","",""
"null","sound/msl/organ.wav","null","audio-keyboard-response","422","279539","0.0-10.0-4.0","",""
"null","sound/msl/dog.wav","null","audio-keyboard-response","423","280059","0.0-10.0-5.0","",""
"null","sound/msl/duck.wav","null","audio-keyboard-response","424","280578","0.0-10.0-6.0","",""
"1389","sound/asl/silence.wav","50","audio-keyboard-response","425","281977","0.0-10.0-7.0","true",""
"null","sound/msl/frog.wav","null","audio-keyboard-response","426","282489","0.0-11.0-0.0","",""
"null","sound/msl/boing.wav","null","audio-keyboard-response","427","283000","0.0-11.0-1.0","",""
"null","sound/msl/cat.wav","null","audio-keyboard-response","428","283509","0.0-11.0-2.0","",""
"null","sound/asl/silence.wav","null","audio-keyboard-response","429","284010","0.0-11.0-3.0","",""
"null","sound/msl/organ.wav","null","audio-keyboard-response","430","284519","0.0-11.0-4.0","",""
"null","sound/msl/boing.wav","null","audio-keyboard-response","431","285029","0.0-11.0-5.0","",""
"null","sound/msl/door_bell.wav","null","audio-keyboard-response","432","285539","0.0-11.0-6.0","",""
"4251","sound/asl/silence.wav","49","audio-keyboard-response","433","289790","0.0-11.0-7.0","true",""
"null","sound/msl/ding.wav","null","audio-keyboard-response","434","290295","0.0-12.0-0.0","",""
"null","sound/msl/cow.wav","null","audio-keyboard-response","435","290814","0.0-12.0-1.0","",""
"null","sound/msl/duck.wav","null","audio-keyboard-response","436","291335","0.0-12.0-2.0","",""
"null","sound/asl/silence.wav","null","audio-keyboard-response","437","291836","0.0-12.0-3.0","",""
"null","sound/msl/frog.wav","null","audio-keyboard-response","438","292345","0.0-12.0-4.0","",""
"null","sound/msl/boing.wav","null","audio-keyboard-response","439","292856","0.0-12.0-5.0","",""
"null","sound/msl/cat.wav","null","audio-keyboard-response","440","293366","0.0-12.0-6.0","",""
"4909","sound/asl/silence.wav","50","audio-keyboard-response","441","298277","0.0-12.0-7.0","true",""
"null","sound/msl/frog.wav","null","audio-keyboard-response","442","298786","0.0-13.0-0.0","",""
"null","sound/msl/goat.wav","null","audio-keyboard-response","443","299336","0.0-13.0-1.0","",""
"null","sound/msl/bird.wav","null","audio-keyboard-response","444","299856","0.0-13.0-2.0","",""
"null","sound/asl/silence.wav","null","audio-keyboard-response","445","300356","0.0-13.0-3.0","",""
"null","sound/msl/slide_whistle.wav","null","audio-keyboard-response","446","300866","0.0-13.0-4.0","",""
"null","sound/msl/goat.wav","null","audio-keyboard-response","447","301417","0.0-13.0-5.0","",""
"null","sound/msl/door_bell.wav","null","audio-keyboard-response","448","301937","0.0-13.0-6.0","",""
"840","sound/asl/silence.wav","49","audio-keyboard-response","449","302786","0.0-13.0-7.0","false",""
"null","sound/msl/frog.wav","null","audio-keyboard-response","450","303297","0.0-14.0-0.0","",""
"null","sound/msl/boing.wav","null","audio-keyboard-response","451","303806","0.0-14.0-1.0","",""
"null","sound/msl/cat.wav","null","audio-keyboard-response","452","304317","0.0-14.0-2.0","",""
"null","sound/asl/silence.wav","null","audio-keyboard-response","453","304818","0.0-14.0-3.0","",""
"null","sound/msl/frog.wav","null","audio-keyboard-response","454","305337","0.0-14.0-4.0","",""
"null","sound/msl/goat.wav","null","audio-keyboard-response","455","305887","0.0-14.0-5.0","",""
"null","sound/msl/bird.wav","null","audio-keyboard-response","456","306407","0.0-14.0-6.0","",""
"6371","sound/asl/silence.wav","50","audio-keyboard-response","457","312787","0.0-14.0-7.0","false",""
"null","sound/msl/frog.wav","null","audio-keyboard-response","458","313298","0.0-15.0-0.0","",""
"null","sound/msl/boing.wav","null","audio-keyboard-response","459","313808","0.0-15.0-1.0","",""
"null","sound/msl/cat.wav","null","audio-keyboard-response","460","314318","0.0-15.0-2.0","",""
"null","sound/asl/silence.wav","null","audio-keyboard-response","461","314818","0.0-15.0-3.0","",""
"null","sound/msl/slide_whistle.wav","null","audio-keyboard-response","462","315338","0.0-15.0-4.0","",""
"null","sound/msl/Water.wav","null","audio-keyboard-response","463","315858","0.0-15.0-5.0","",""
"null","sound/msl/clock.wav","null","audio-keyboard-response","464","316418","0.0-15.0-6.0","",""
"1299","sound/asl/silence.wav","50","audio-keyboard-response","465","317726","0.0-15.0-7.0","false",""
"null","sound/msl/ding.wav","null","audio-keyboard-response","466","318229","0.0-16.0-0.0","",""
"null","sound/msl/Water.wav","null","audio-keyboard-response","467","318749","0.0-16.0-1.0","",""
"null","sound/msl/bird.wav","null","audio-keyboard-response","468","319258","0.0-16.0-2.0","",""
"null","sound/asl/silence.wav","null","audio-keyboard-response","469","319759","0.0-16.0-3.0","",""
"null","sound/msl/ding.wav","null","audio-keyboard-response","470","320268","0.0-16.0-4.0","",""
"null","sound/msl/cow.wav","null","audio-keyboard-response","471","320779","0.0-16.0-5.0","",""
"null","sound/msl/duck.wav","null","audio-keyboard-response","472","321299","0.0-16.0-6.0","",""
"2269","sound/asl/silence.wav","50","audio-keyboard-response","473","323578","0.0-16.0-7.0","false",""
"null","sound/msl/organ.wav","null","audio-keyboard-response","474","324089","0.0-17.0-0.0","",""
"null","sound/msl/boing.wav","null","audio-keyboard-response","475","324599","0.0-17.0-1.0","",""
"null","sound/msl/door_bell.wav","null","audio-keyboard-response","476","325110","0.0-17.0-2.0","",""
"null","sound/asl/silence.wav","null","audio-keyboard-response","477","325610","0.0-17.0-3.0","",""
"null","sound/msl/ding.wav","null","audio-keyboard-response","478","326130","0.0-17.0-4.0","",""
"null","sound/msl/Water.wav","null","audio-keyboard-response","479","326650","0.0-17.0-5.0","",""
"null","sound/msl/bird.wav","null","audio-keyboard-response","480","327164","0.0-17.0-6.0","",""
"7920","sound/asl/silence.wav","50","audio-keyboard-response","481","335091","0.0-17.0-7.0","true",""
"null","sound/msl/ding.wav","null","audio-keyboard-response","482","335605","0.0-18.0-0.0","",""
"null","sound/msl/cow.wav","null","audio-keyboard-response","483","336126","0.0-18.0-1.0","",""
"null","sound/msl/duck.wav","null","audio-keyboard-response","484","336645","0.0-18.0-2.0","",""
"null","sound/asl/silence.wav","null","audio-keyboard-response","485","337146","0.0-18.0-3.0","",""
"null","sound/msl/slide_whistle.wav","null","audio-keyboard-response","486","337656","0.0-18.0-4.0","",""
"null","sound/msl/goat.wav","null","audio-keyboard-response","487","338206","0.0-18.0-5.0","",""
"null","sound/msl/door_bell.wav","null","audio-keyboard-response","488","338726","0.0-18.0-6.0","",""
"549","sound/asl/silence.wav","49","audio-keyboard-response","489","339277","0.0-18.0-7.0","false",""
"null","sound/msl/slide_whistle.wav","null","audio-keyboard-response","490","339786","0.0-19.0-0.0","",""
"null","sound/msl/Water.wav","null","audio-keyboard-response","491","340306","0.0-19.0-1.0","",""
"null","sound/msl/clock.wav","null","audio-keyboard-response","492","340866","0.0-19.0-2.0","",""
"null","sound/asl/silence.wav","null","audio-keyboard-response","493","341367","0.0-19.0-3.0","",""
"null","sound/msl/slide_whistle.wav","null","audio-keyboard-response","494","341886","0.0-19.0-4.0","",""
"null","sound/msl/goat.wav","null","audio-keyboard-response","495","342437","0.0-19.0-5.0","",""
"null","sound/msl/door_bell.wav","null","audio-keyboard-response","496","342947","0.0-19.0-6.0","",""
"720","sound/asl/silence.wav","49","audio-keyboard-response","497","343669","0.0-19.0-7.0","false",""
"null","sound/msl/organ.wav","null","audio-keyboard-response","498","344176","0.0-20.0-0.0","",""
"null","sound/msl/dog.wav","null","audio-keyboard-response","499","344697","0.0-20.0-1.0","",""
"null","sound/msl/duck.wav","null","audio-keyboard-response","500","345217","0.0-20.0-2.0","",""
"null","sound/asl/silence.wav","null","audio-keyboard-response","501","345717","0.0-20.0-3.0","",""
"null","sound/msl/ding.wav","null","audio-keyboard-response","502","346227","0.0-20.0-4.0","",""
"null","sound/msl/cow.wav","null","audio-keyboard-response","503","346737","0.0-20.0-5.0","",""
"null","sound/msl/duck.wav","null","audio-keyboard-response","504","347257","0.0-20.0-6.0","",""
"709","sound/asl/silence.wav","49","audio-keyboard-response","505","347968","0.0-20.0-7.0","true",""
"null","sound/msl/slide_whistle.wav","null","audio-keyboard-response","506","348487","0.0-21.0-0.0","",""
"null","sound/msl/Water.wav","null","audio-keyboard-response","507","349008","0.0-21.0-1.0","",""
"null","sound/msl/clock.wav","null","audio-keyboard-response","508","349568","0.0-21.0-2.0","",""
"null","sound/asl/silence.wav","null","audio-keyboard-response","509","350068","0.0-21.0-3.0","",""
"null","sound/msl/door.wav","null","audio-keyboard-response","510","350578","0.0-21.0-4.0","",""
"null","sound/msl/cow.wav","null","audio-keyboard-response","511","351097","0.0-21.0-5.0","",""
"null","sound/msl/clock.wav","null","audio-keyboard-response","512","351658","0.0-21.0-6.0","",""
"691","sound/asl/silence.wav","50","audio-keyboard-response","513","352358","0.0-21.0-7.0","true",""
"null","sound/msl/organ.wav","null","audio-keyboard-response","514","352868","0.0-22.0-0.0","",""
"null","sound/msl/dog.wav","null","audio-keyboard-response","515","353378","0.0-22.0-1.0","",""
"null","sound/msl/duck.wav","null","audio-keyboard-response","516","353898","0.0-22.0-2.0","",""
"null","sound/asl/silence.wav","null","audio-keyboard-response","517","354399","0.0-22.0-3.0","",""
"null","sound/msl/door.wav","null","audio-keyboard-response","518","354908","0.0-22.0-4.0","",""
"null","sound/msl/dog.wav","null","audio-keyboard-response","519","355419","0.0-22.0-5.0","",""
"null","sound/msl/cat.wav","null","audio-keyboard-response","520","355929","0.0-22.0-6.0","",""
"981","sound/asl/silence.wav","49","audio-keyboard-response","521","356917","0.0-22.0-7.0","true",""
"null","sound/msl/door.wav","null","audio-keyboard-response","522","357419","0.0-23.0-0.0","",""
"null","sound/msl/cow.wav","null","audio-keyboard-response","523","357938","0.0-23.0-1.0","",""
"null","sound/msl/clock.wav","null","audio-keyboard-response","524","358499","0.0-23.0-2.0","",""
"null","sound/asl/silence.wav","null","audio-keyboard-response","525","358999","0.0-23.0-3.0","",""
"null","sound/msl/ding.wav","null","audio-keyboard-response","526","359509","0.0-23.0-4.0","",""
"null","sound/msl/cow.wav","null","audio-keyboard-response","527","360019","0.0-23.0-5.0","",""
"null","sound/msl/duck.wav","null","audio-keyboard-response","528","360539","0.0-23.0-6.0","",""
"1549","sound/asl/silence.wav","49","audio-keyboard-response","529","362092","0.0-23.0-7.0","true",""
"null","sound/msl/frog.wav","null","audio-keyboard-response","530","362610","0.0-24.0-0.0","",""
"null","sound/msl/goat.wav","null","audio-keyboard-response","531","363159","0.0-24.0-1.0","",""
"null","sound/msl/bird.wav","null","audio-keyboard-response","532","363669","0.0-24.0-2.0","",""
"null","sound/asl/silence.wav","null","audio-keyboard-response","533","364170","0.0-24.0-3.0","",""
"null","sound/msl/organ.wav","null","audio-keyboard-response","534","364680","0.0-24.0-4.0","",""
"null","sound/msl/dog.wav","null","audio-keyboard-response","535","365189","0.0-24.0-5.0","",""
"null","sound/msl/duck.wav","null","audio-keyboard-response","536","365699","0.0-24.0-6.0","",""
"9549","sound/asl/silence.wav","49","audio-keyboard-response","537","375247","0.0-24.0-7.0","false",""
"null","sound/msl/slide_whistle.wav","null","audio-keyboard-response","538","375766","0.0-25.0-0.0","",""
"null","sound/msl/Water.wav","null","audio-keyboard-response","539","376286","0.0-25.0-1.0","",""
"null","sound/msl/clock.wav","null","audio-keyboard-response","540","376846","0.0-25.0-2.0","",""
"null","sound/asl/silence.wav","null","audio-keyboard-response","541","377347","0.0-25.0-3.0","",""
"null","sound/msl/ding.wav","null","audio-keyboard-response","542","377856","0.0-25.0-4.0","",""
"null","sound/msl/Water.wav","null","audio-keyboard-response","543","378376","0.0-25.0-5.0","",""
"null","sound/msl/bird.wav","null","audio-keyboard-response","544","378896","0.0-25.0-6.0","",""
"4960","sound/asl/silence.wav","49","audio-keyboard-response","545","383865","0.0-25.0-7.0","false",""
"null","sound/msl/slide_whistle.wav","null","audio-keyboard-response","546","384378","0.0-26.0-0.0","",""
"null","sound/msl/goat.wav","null","audio-keyboard-response","547","384927","0.0-26.0-1.0","",""
"null","sound/msl/door_bell.wav","null","audio-keyboard-response","548","385448","0.0-26.0-2.0","",""
"null","sound/asl/silence.wav","null","audio-keyboard-response","549","385948","0.0-26.0-3.0","",""
"null","sound/msl/door.wav","null","audio-keyboard-response","550","386457","0.0-26.0-4.0","",""
"null","sound/msl/dog.wav","null","audio-keyboard-response","551","386977","0.0-26.0-5.0","",""
"null","sound/msl/cat.wav","null","audio-keyboard-response","552","387487","0.0-26.0-6.0","",""
"2029","sound/asl/silence.wav","49","audio-keyboard-response","553","389527","0.0-26.0-7.0","true",""
"null","sound/msl/door.wav","null","audio-keyboard-response","554","390028","0.0-27.0-0.0","",""
"null","sound/msl/cow.wav","null","audio-keyboard-response","555","390537","0.0-27.0-1.0","",""
"null","sound/msl/clock.wav","null","audio-keyboard-response","556","391098","0.0-27.0-2.0","",""
"null","sound/asl/silence.wav","null","audio-keyboard-response","557","391598","0.0-27.0-3.0","",""
"null","sound/msl/frog.wav","null","audio-keyboard-response","558","392108","0.0-27.0-4.0","",""
"null","sound/msl/goat.wav","null","audio-keyboard-response","559","392658","0.0-27.0-5.0","",""
"null","sound/msl/bird.wav","null","audio-keyboard-response","560","393178","0.0-27.0-6.0","",""
"11760","sound/asl/silence.wav","50","audio-keyboard-response","561","404947","0.0-27.0-7.0","false",""
"3214","","","instructions","562","408161","0.0-28.0","","[{""page_index"":0,""viewing_time"":3214}]"
