"rt","stimulus","key_press","trial_type","trial_index","time_elapsed","internal_node_id","correct","view_history"
"8298","alien.jpg","49","image-keyboard-response","0","8302","0.0-0.0","",""
"null","sound/msl/door.wav","null","audio-keyboard-response","1","8800","0.0-1.0-0.0","",""
"null","sound/msl/organ.wav","null","audio-keyboard-response","2","9300","0.0-1.0-1.0","",""
"null","sound/msl/bird.wav","null","audio-keyboard-response","3","9810","0.0-1.0-2.0","",""
"null","sound/msl/cat.wav","null","audio-keyboard-response","4","10314","0.0-1.0-3.0","",""
"null","sound/msl/cow.wav","null","audio-keyboard-response","5","10821","0.0-1.0-4.0","",""
"null","sound/msl/clock.wav","null","audio-keyboard-response","6","11370","0.0-1.0-5.0","",""
"null","sound/msl/goat.wav","null","audio-keyboard-response","7","11910","0.0-1.0-6.0","",""
"null","sound/msl/boing.wav","null","audio-keyboard-response","8","12410","0.0-1.0-7.0","",""
"null","sound/msl/ding.wav","null","audio-keyboard-response","9","12910","0.0-1.0-8.0","",""
"null","sound/msl/dog.wav","null","audio-keyboard-response","10","13420","0.0-1.0-9.0","",""
"null","sound/msl/frog.wav","null","audio-keyboard-response","11","13930","0.0-1.0-10.0","",""
"null","sound/msl/door_bell.wav","null","audio-keyboard-response","12","14430","0.0-1.0-11.0","",""
"null","sound/msl/cat.wav","null","audio-keyboard-response","13","14930","0.0-1.0-12.0","",""
"null","sound/msl/cow.wav","null","audio-keyboard-response","14","15430","0.0-1.0-13.0","",""
"null","sound/msl/clock.wav","null","audio-keyboard-response","15","15980","0.0-1.0-14.0","",""
"null","sound/msl/door.wav","null","audio-keyboard-response","16","16480","0.0-1.0-15.0","",""
"null","sound/msl/organ.wav","null","audio-keyboard-response","17","16981","0.0-1.0-16.0","",""
"null","sound/msl/bird.wav","null","audio-keyboard-response","18","17491","0.0-1.0-17.0","",""
"null","sound/msl/slide_whistle.wav","null","audio-keyboard-response","19","17991","0.0-1.0-18.0","",""
"null","sound/msl/duck.wav","null","audio-keyboard-response","20","18501","0.0-1.0-19.0","",""
"null","sound/msl/Water.wav","null","audio-keyboard-response","21","19010","0.0-1.0-20.0","",""
"null","sound/msl/dog.wav","null","audio-keyboard-response","22","19511","0.0-1.0-21.0","",""
"null","sound/msl/frog.wav","null","audio-keyboard-response","23","20021","0.0-1.0-22.0","",""
"null","sound/msl/door_bell.wav","null","audio-keyboard-response","24","20531","0.0-1.0-23.0","",""
"null","sound/msl/goat.wav","null","audio-keyboard-response","25","21072","0.0-1.0-24.0","",""
"null","sound/msl/boing.wav","null","audio-keyboard-response","26","21571","0.0-1.0-25.0","",""
"null","sound/msl/ding.wav","null","audio-keyboard-response","27","22071","0.0-1.0-26.0","",""
"null","sound/msl/door.wav","null","audio-keyboard-response","28","22572","0.0-1.0-27.0","",""
"null","sound/msl/organ.wav","null","audio-keyboard-response","29","23071","0.0-1.0-28.0","",""
"null","sound/msl/bird.wav","null","audio-keyboard-response","30","23581","0.0-1.0-29.0","",""
"null","sound/msl/cat.wav","null","audio-keyboard-response","31","24082","0.0-1.0-30.0","",""
"null","sound/msl/cow.wav","null","audio-keyboard-response","32","24582","0.0-1.0-31.0","",""
"null","sound/msl/clock.wav","null","audio-keyboard-response","33","25132","0.0-1.0-32.0","",""
"null","sound/msl/slide_whistle.wav","null","audio-keyboard-response","34","25632","0.0-1.0-33.0","",""
"null","sound/msl/duck.wav","null","audio-keyboard-response","35","26142","0.0-1.0-34.0","",""
"null","sound/msl/Water.wav","null","audio-keyboard-response","36","26652","0.0-1.0-35.0","",""
"null","sound/msl/goat.wav","null","audio-keyboard-response","37","27191","0.0-1.0-36.0","",""
"null","sound/msl/boing.wav","null","audio-keyboard-response","38","27692","0.0-1.0-37.0","",""
"null","sound/msl/ding.wav","null","audio-keyboard-response","39","28193","0.0-1.0-38.0","",""
"null","sound/msl/dog.wav","null","audio-keyboard-response","40","28702","0.0-1.0-39.0","",""
"null","sound/msl/frog.wav","null","audio-keyboard-response","41","29212","0.0-1.0-40.0","",""
"null","sound/msl/door_bell.wav","null","audio-keyboard-response","42","29708","0.0-1.0-41.0","",""
"null","sound/msl/slide_whistle.wav","null","audio-keyboard-response","43","30207","0.0-1.0-42.0","",""
"null","sound/msl/duck.wav","null","audio-keyboard-response","44","30707","0.0-1.0-43.0","",""
"null","sound/msl/Water.wav","null","audio-keyboard-response","45","31217","0.0-1.0-44.0","",""
"null","sound/msl/cat.wav","null","audio-keyboard-response","46","31717","0.0-1.0-45.0","",""
"null","sound/msl/cow.wav","null","audio-keyboard-response","47","32218","0.0-1.0-46.0","",""
"null","sound/msl/clock.wav","null","audio-keyboard-response","48","32768","0.0-1.0-47.0","",""
"null","sound/msl/goat.wav","null","audio-keyboard-response","49","33308","0.0-1.0-48.0","",""
"null","sound/msl/boing.wav","null","audio-keyboard-response","50","33807","0.0-1.0-49.0","",""
"null","sound/msl/ding.wav","null","audio-keyboard-response","51","34308","0.0-1.0-50.0","",""
"null","sound/msl/door.wav","null","audio-keyboard-response","52","34808","0.0-1.0-51.0","",""
"null","sound/msl/organ.wav","null","audio-keyboard-response","53","35308","0.0-1.0-52.0","",""
"null","sound/msl/bird.wav","null","audio-keyboard-response","54","35819","0.0-1.0-53.0","",""
"null","sound/msl/cat.wav","null","audio-keyboard-response","55","36318","0.0-1.0-54.0","",""
"null","sound/msl/cow.wav","null","audio-keyboard-response","56","36819","0.0-1.0-55.0","",""
"null","sound/msl/clock.wav","null","audio-keyboard-response","57","37368","0.0-1.0-56.0","",""
"null","sound/msl/goat.wav","null","audio-keyboard-response","58","37909","0.0-1.0-57.0","",""
"null","sound/msl/boing.wav","null","audio-keyboard-response","59","38408","0.0-1.0-58.0","",""
"null","sound/msl/ding.wav","null","audio-keyboard-response","60","38909","0.0-1.0-59.0","",""
"null","sound/msl/dog.wav","null","audio-keyboard-response","61","39419","0.0-1.0-60.0","",""
"null","sound/msl/frog.wav","null","audio-keyboard-response","62","39929","0.0-1.0-61.0","",""
"null","sound/msl/door_bell.wav","null","audio-keyboard-response","63","40428","0.0-1.0-62.0","",""
"null","sound/msl/slide_whistle.wav","null","audio-keyboard-response","64","40929","0.0-1.0-63.0","",""
"null","sound/msl/duck.wav","null","audio-keyboard-response","65","41428","0.0-1.0-64.0","",""
"null","sound/msl/Water.wav","null","audio-keyboard-response","66","41939","0.0-1.0-65.0","",""
"null","sound/msl/cat.wav","null","audio-keyboard-response","67","42439","0.0-1.0-66.0","",""
"null","sound/msl/cow.wav","null","audio-keyboard-response","68","42939","0.0-1.0-67.0","",""
"null","sound/msl/clock.wav","null","audio-keyboard-response","69","43490","0.0-1.0-68.0","",""
"null","sound/msl/door.wav","null","audio-keyboard-response","70","43989","0.0-1.0-69.0","",""
"null","sound/msl/organ.wav","null","audio-keyboard-response","71","44489","0.0-1.0-70.0","",""
"null","sound/msl/bird.wav","null","audio-keyboard-response","72","44990","0.0-1.0-71.0","",""
"null","sound/msl/goat.wav","null","audio-keyboard-response","73","45530","0.0-1.0-72.0","",""
"null","sound/msl/boing.wav","null","audio-keyboard-response","74","46029","0.0-1.0-73.0","",""
"null","sound/msl/ding.wav","null","audio-keyboard-response","75","46539","0.0-1.0-74.0","",""
"null","sound/msl/dog.wav","null","audio-keyboard-response","76","47050","0.0-1.0-75.0","",""
"null","sound/msl/frog.wav","null","audio-keyboard-response","77","47550","0.0-1.0-76.0","",""
"null","sound/msl/door_bell.wav","null","audio-keyboard-response","78","48060","0.0-1.0-77.0","",""
"null","sound/msl/goat.wav","null","audio-keyboard-response","79","48600","0.0-1.0-78.0","",""
"null","sound/msl/boing.wav","null","audio-keyboard-response","80","49100","0.0-1.0-79.0","",""
"null","sound/msl/ding.wav","null","audio-keyboard-response","81","49610","0.0-1.0-80.0","",""
"null","sound/msl/slide_whistle.wav","null","audio-keyboard-response","82","50110","0.0-1.0-81.0","",""
"null","sound/msl/duck.wav","null","audio-keyboard-response","83","50620","0.0-1.0-82.0","",""
"null","sound/msl/Water.wav","null","audio-keyboard-response","84","51130","0.0-1.0-83.0","",""
"null","sound/msl/door.wav","null","audio-keyboard-response","85","51630","0.0-1.0-84.0","",""
"null","sound/msl/organ.wav","null","audio-keyboard-response","86","52130","0.0-1.0-85.0","",""
"null","sound/msl/bird.wav","null","audio-keyboard-response","87","52630","0.0-1.0-86.0","",""
"null","sound/msl/cat.wav","null","audio-keyboard-response","88","53131","0.0-1.0-87.0","",""
"null","sound/msl/cow.wav","null","audio-keyboard-response","89","53631","0.0-1.0-88.0","",""
"null","sound/msl/clock.wav","null","audio-keyboard-response","90","54181","0.0-1.0-89.0","",""
"null","sound/msl/slide_whistle.wav","null","audio-keyboard-response","91","54681","0.0-1.0-90.0","",""
"null","sound/msl/duck.wav","null","audio-keyboard-response","92","55181","0.0-1.0-91.0","",""
"null","sound/msl/Water.wav","null","audio-keyboard-response","93","55690","0.0-1.0-92.0","",""
"null","sound/msl/dog.wav","null","audio-keyboard-response","94","56191","0.0-1.0-93.0","",""
"null","sound/msl/frog.wav","null","audio-keyboard-response","95","56701","0.0-1.0-94.0","",""
"null","sound/msl/door_bell.wav","null","audio-keyboard-response","96","57211","0.0-1.0-95.0","",""
"null","sound/msl/goat.wav","null","audio-keyboard-response","97","57752","0.0-1.0-96.0","",""
"null","sound/msl/boing.wav","null","audio-keyboard-response","98","58252","0.0-1.0-97.0","",""
"null","sound/msl/ding.wav","null","audio-keyboard-response","99","58751","0.0-1.0-98.0","",""
"null","sound/msl/cat.wav","null","audio-keyboard-response","100","59251","0.0-1.0-99.0","",""
"null","sound/msl/cow.wav","null","audio-keyboard-response","101","59751","0.0-1.0-100.0","",""
"null","sound/msl/clock.wav","null","audio-keyboard-response","102","60301","0.0-1.0-101.0","",""
"null","sound/msl/slide_whistle.wav","null","audio-keyboard-response","103","60801","0.0-1.0-102.0","",""
"null","sound/msl/duck.wav","null","audio-keyboard-response","104","61301","0.0-1.0-103.0","",""
"null","sound/msl/Water.wav","null","audio-keyboard-response","105","61812","0.0-1.0-104.0","",""
"null","sound/msl/door.wav","null","audio-keyboard-response","106","62312","0.0-1.0-105.0","",""
"null","sound/msl/organ.wav","null","audio-keyboard-response","107","62812","0.0-1.0-106.0","",""
"null","sound/msl/bird.wav","null","audio-keyboard-response","108","63312","0.0-1.0-107.0","",""
"null","sound/msl/cat.wav","null","audio-keyboard-response","109","63811","0.0-1.0-108.0","",""
"null","sound/msl/cow.wav","null","audio-keyboard-response","110","64312","0.0-1.0-109.0","",""
"null","sound/msl/clock.wav","null","audio-keyboard-response","111","64862","0.0-1.0-110.0","",""
"null","sound/msl/dog.wav","null","audio-keyboard-response","112","65372","0.0-1.0-111.0","",""
"null","sound/msl/frog.wav","null","audio-keyboard-response","113","65872","0.0-1.0-112.0","",""
"null","sound/msl/door_bell.wav","null","audio-keyboard-response","114","66382","0.0-1.0-113.0","",""
"null","sound/msl/slide_whistle.wav","null","audio-keyboard-response","115","66882","0.0-1.0-114.0","",""
"null","sound/msl/duck.wav","null","audio-keyboard-response","116","67383","0.0-1.0-115.0","",""
"null","sound/msl/Water.wav","null","audio-keyboard-response","117","67892","0.0-1.0-116.0","",""
"null","sound/msl/goat.wav","null","audio-keyboard-response","118","68432","0.0-1.0-117.0","",""
"null","sound/msl/boing.wav","null","audio-keyboard-response","119","68933","0.0-1.0-118.0","",""
"null","sound/msl/ding.wav","null","audio-keyboard-response","120","69433","0.0-1.0-119.0","",""
"null","sound/msl/door.wav","null","audio-keyboard-response","121","69932","0.0-1.0-120.0","",""
"null","sound/msl/organ.wav","null","audio-keyboard-response","122","70428","0.0-1.0-121.0","",""
"null","sound/msl/bird.wav","null","audio-keyboard-response","123","70938","0.0-1.0-122.0","",""
"null","sound/msl/cat.wav","null","audio-keyboard-response","124","71438","0.0-1.0-123.0","",""
"null","sound/msl/cow.wav","null","audio-keyboard-response","125","71938","0.0-1.0-124.0","",""
"null","sound/msl/clock.wav","null","audio-keyboard-response","126","72488","0.0-1.0-125.0","",""
"null","sound/msl/slide_whistle.wav","null","audio-keyboard-response","127","72988","0.0-1.0-126.0","",""
"null","sound/msl/duck.wav","null","audio-keyboard-response","128","73498","0.0-1.0-127.0","",""
"null","sound/msl/Water.wav","null","audio-keyboard-response","129","74009","0.0-1.0-128.0","",""
"null","sound/msl/dog.wav","null","audio-keyboard-response","130","74508","0.0-1.0-129.0","",""
"null","sound/msl/frog.wav","null","audio-keyboard-response","131","75019","0.0-1.0-130.0","",""
"null","sound/msl/door_bell.wav","null","audio-keyboard-response","132","75529","0.0-1.0-131.0","",""
"null","sound/msl/cat.wav","null","audio-keyboard-response","133","76028","0.0-1.0-132.0","",""
"null","sound/msl/cow.wav","null","audio-keyboard-response","134","76538","0.0-1.0-133.0","",""
"null","sound/msl/clock.wav","null","audio-keyboard-response","135","77089","0.0-1.0-134.0","",""
"null","sound/msl/goat.wav","null","audio-keyboard-response","136","77628","0.0-1.0-135.0","",""
"null","sound/msl/boing.wav","null","audio-keyboard-response","137","78129","0.0-1.0-136.0","",""
"null","sound/msl/ding.wav","null","audio-keyboard-response","138","78628","0.0-1.0-137.0","",""
"null","sound/msl/dog.wav","null","audio-keyboard-response","139","79139","0.0-1.0-138.0","",""
"null","sound/msl/frog.wav","null","audio-keyboard-response","140","79649","0.0-1.0-139.0","",""
"null","sound/msl/door_bell.wav","null","audio-keyboard-response","141","80149","0.0-1.0-140.0","",""
"null","sound/msl/door.wav","null","audio-keyboard-response","142","80648","0.0-1.0-141.0","",""
"null","sound/msl/organ.wav","null","audio-keyboard-response","143","81149","0.0-1.0-142.0","",""
"null","sound/msl/bird.wav","null","audio-keyboard-response","144","81659","0.0-1.0-143.0","",""
"null","sound/msl/slide_whistle.wav","null","audio-keyboard-response","145","82160","0.0-1.0-144.0","",""
"null","sound/msl/duck.wav","null","audio-keyboard-response","146","82659","0.0-1.0-145.0","",""
"null","sound/msl/Water.wav","null","audio-keyboard-response","147","83170","0.0-1.0-146.0","",""
"null","sound/msl/goat.wav","null","audio-keyboard-response","148","83709","0.0-1.0-147.0","",""
"null","sound/msl/boing.wav","null","audio-keyboard-response","149","84210","0.0-1.0-148.0","",""
"null","sound/msl/ding.wav","null","audio-keyboard-response","150","84710","0.0-1.0-149.0","",""
"null","sound/msl/door.wav","null","audio-keyboard-response","151","85210","0.0-1.0-150.0","",""
"null","sound/msl/organ.wav","null","audio-keyboard-response","152","85710","0.0-1.0-151.0","",""
"null","sound/msl/bird.wav","null","audio-keyboard-response","153","86220","0.0-1.0-152.0","",""
"null","sound/msl/cat.wav","null","audio-keyboard-response","154","86720","0.0-1.0-153.0","",""
"null","sound/msl/cow.wav","null","audio-keyboard-response","155","87220","0.0-1.0-154.0","",""
"null","sound/msl/clock.wav","null","audio-keyboard-response","156","87770","0.0-1.0-155.0","",""
"null","sound/msl/dog.wav","null","audio-keyboard-response","157","88270","0.0-1.0-156.0","",""
"null","sound/msl/frog.wav","null","audio-keyboard-response","158","88780","0.0-1.0-157.0","",""
"null","sound/msl/door_bell.wav","null","audio-keyboard-response","159","89291","0.0-1.0-158.0","",""
"null","sound/msl/slide_whistle.wav","null","audio-keyboard-response","160","89790","0.0-1.0-159.0","",""
"null","sound/msl/duck.wav","null","audio-keyboard-response","161","90301","0.0-1.0-160.0","",""
"null","sound/msl/Water.wav","null","audio-keyboard-response","162","90810","0.0-1.0-161.0","",""
"null","sound/msl/cat.wav","null","audio-keyboard-response","163","91310","0.0-1.0-162.0","",""
"null","sound/msl/cow.wav","null","audio-keyboard-response","164","91820","0.0-1.0-163.0","",""
"null","sound/msl/clock.wav","null","audio-keyboard-response","165","92370","0.0-1.0-164.0","",""
"null","sound/msl/dog.wav","null","audio-keyboard-response","166","92871","0.0-1.0-165.0","",""
"null","sound/msl/frog.wav","null","audio-keyboard-response","167","93381","0.0-1.0-166.0","",""
"null","sound/msl/door_bell.wav","null","audio-keyboard-response","168","93891","0.0-1.0-167.0","",""
"null","sound/msl/door.wav","null","audio-keyboard-response","169","94391","0.0-1.0-168.0","",""
"null","sound/msl/organ.wav","null","audio-keyboard-response","170","94891","0.0-1.0-169.0","",""
"null","sound/msl/bird.wav","null","audio-keyboard-response","171","95391","0.0-1.0-170.0","",""
"null","sound/msl/goat.wav","null","audio-keyboard-response","172","95931","0.0-1.0-171.0","",""
"null","sound/msl/boing.wav","null","audio-keyboard-response","173","96432","0.0-1.0-172.0","",""
"null","sound/msl/ding.wav","null","audio-keyboard-response","174","96941","0.0-1.0-173.0","",""
"null","sound/msl/slide_whistle.wav","null","audio-keyboard-response","175","97441","0.0-1.0-174.0","",""
"null","sound/msl/duck.wav","null","audio-keyboard-response","176","97941","0.0-1.0-175.0","",""
"null","sound/msl/Water.wav","null","audio-keyboard-response","177","98451","0.0-1.0-176.0","",""
"null","sound/msl/cat.wav","null","audio-keyboard-response","178","98952","0.0-1.0-177.0","",""
"null","sound/msl/cow.wav","null","audio-keyboard-response","179","99461","0.0-1.0-178.0","",""
"null","sound/msl/clock.wav","null","audio-keyboard-response","180","100012","0.0-1.0-179.0","",""
"null","sound/msl/goat.wav","null","audio-keyboard-response","181","100551","0.0-1.0-180.0","",""
"null","sound/msl/boing.wav","null","audio-keyboard-response","182","101051","0.0-1.0-181.0","",""
"null","sound/msl/ding.wav","null","audio-keyboard-response","183","101552","0.0-1.0-182.0","",""
"null","sound/msl/dog.wav","null","audio-keyboard-response","184","102062","0.0-1.0-183.0","",""
"null","sound/msl/frog.wav","null","audio-keyboard-response","185","102572","0.0-1.0-184.0","",""
"null","sound/msl/door_bell.wav","null","audio-keyboard-response","186","103072","0.0-1.0-185.0","",""
"null","sound/msl/door.wav","null","audio-keyboard-response","187","103573","0.0-1.0-186.0","",""
"null","sound/msl/organ.wav","null","audio-keyboard-response","188","104072","0.0-1.0-187.0","",""
"null","sound/msl/bird.wav","null","audio-keyboard-response","189","104582","0.0-1.0-188.0","",""
"null","sound/msl/slide_whistle.wav","null","audio-keyboard-response","190","105083","0.0-1.0-189.0","",""
"null","sound/msl/duck.wav","null","audio-keyboard-response","191","105582","0.0-1.0-190.0","",""
"null","sound/msl/Water.wav","null","audio-keyboard-response","192","106092","0.0-1.0-191.0","",""
"null","sound/msl/cat.wav","null","audio-keyboard-response","193","106593","0.0-1.0-192.0","",""
"null","sound/msl/cow.wav","null","audio-keyboard-response","194","107102","0.0-1.0-193.0","",""
"null","sound/msl/clock.wav","null","audio-keyboard-response","195","107653","0.0-1.0-194.0","",""
"null","sound/msl/goat.wav","null","audio-keyboard-response","196","108193","0.0-1.0-195.0","",""
"null","sound/msl/boing.wav","null","audio-keyboard-response","197","108692","0.0-1.0-196.0","",""
"null","sound/msl/ding.wav","null","audio-keyboard-response","198","109193","0.0-1.0-197.0","",""
"null","sound/msl/door.wav","null","audio-keyboard-response","199","109693","0.0-1.0-198.0","",""
"null","sound/msl/organ.wav","null","audio-keyboard-response","200","110193","0.0-1.0-199.0","",""
"null","sound/msl/bird.wav","null","audio-keyboard-response","201","110703","0.0-1.0-200.0","",""
"null","sound/msl/dog.wav","null","audio-keyboard-response","202","111208","0.0-1.0-201.0","",""
"null","sound/msl/frog.wav","null","audio-keyboard-response","203","111709","0.0-1.0-202.0","",""
"null","sound/msl/door_bell.wav","null","audio-keyboard-response","204","112219","0.0-1.0-203.0","",""
"null","sound/msl/slide_whistle.wav","null","audio-keyboard-response","205","112719","0.0-1.0-204.0","",""
"null","sound/msl/duck.wav","null","audio-keyboard-response","206","113219","0.0-1.0-205.0","",""
"null","sound/msl/Water.wav","null","audio-keyboard-response","207","113728","0.0-1.0-206.0","",""
"null","sound/msl/cat.wav","null","audio-keyboard-response","208","114229","0.0-1.0-207.0","",""
"null","sound/msl/cow.wav","null","audio-keyboard-response","209","114739","0.0-1.0-208.0","",""
"null","sound/msl/clock.wav","null","audio-keyboard-response","210","115289","0.0-1.0-209.0","",""
"null","sound/msl/door.wav","null","audio-keyboard-response","211","115789","0.0-1.0-210.0","",""
"null","sound/msl/organ.wav","null","audio-keyboard-response","212","116289","0.0-1.0-211.0","",""
"null","sound/msl/bird.wav","null","audio-keyboard-response","213","116789","0.0-1.0-212.0","",""
"null","sound/msl/slide_whistle.wav","null","audio-keyboard-response","214","117289","0.0-1.0-213.0","",""
"null","sound/msl/duck.wav","null","audio-keyboard-response","215","117789","0.0-1.0-214.0","",""
"null","sound/msl/Water.wav","null","audio-keyboard-response","216","118299","0.0-1.0-215.0","",""
"null","sound/msl/goat.wav","null","audio-keyboard-response","217","118839","0.0-1.0-216.0","",""
"null","sound/msl/boing.wav","null","audio-keyboard-response","218","119340","0.0-1.0-217.0","",""
"null","sound/msl/ding.wav","null","audio-keyboard-response","219","119849","0.0-1.0-218.0","",""
"null","sound/msl/dog.wav","null","audio-keyboard-response","220","120349","0.0-1.0-219.0","",""
"null","sound/msl/frog.wav","null","audio-keyboard-response","221","120859","0.0-1.0-220.0","",""
"null","sound/msl/door_bell.wav","null","audio-keyboard-response","222","121369","0.0-1.0-221.0","",""
"null","sound/msl/cat.wav","null","audio-keyboard-response","223","121869","0.0-1.0-222.0","",""
"null","sound/msl/cow.wav","null","audio-keyboard-response","224","122379","0.0-1.0-223.0","",""
"null","sound/msl/clock.wav","null","audio-keyboard-response","225","122930","0.0-1.0-224.0","",""
"null","sound/msl/goat.wav","null","audio-keyboard-response","226","123469","0.0-1.0-225.0","",""
"null","sound/msl/boing.wav","null","audio-keyboard-response","227","123969","0.0-1.0-226.0","",""
"null","sound/msl/ding.wav","null","audio-keyboard-response","228","124470","0.0-1.0-227.0","",""
"null","sound/msl/slide_whistle.wav","null","audio-keyboard-response","229","124970","0.0-1.0-228.0","",""
"null","sound/msl/duck.wav","null","audio-keyboard-response","230","125470","0.0-1.0-229.0","",""
"null","sound/msl/Water.wav","null","audio-keyboard-response","231","125980","0.0-1.0-230.0","",""
"null","sound/msl/goat.wav","null","audio-keyboard-response","232","126520","0.0-1.0-231.0","",""
"null","sound/msl/boing.wav","null","audio-keyboard-response","233","127020","0.0-1.0-232.0","",""
"null","sound/msl/ding.wav","null","audio-keyboard-response","234","127530","0.0-1.0-233.0","",""
"null","sound/msl/cat.wav","null","audio-keyboard-response","235","128030","0.0-1.0-234.0","",""
"null","sound/msl/cow.wav","null","audio-keyboard-response","236","128540","0.0-1.0-235.0","",""
"null","sound/msl/clock.wav","null","audio-keyboard-response","237","129090","0.0-1.0-236.0","",""
"null","sound/msl/dog.wav","null","audio-keyboard-response","238","129590","0.0-1.0-237.0","",""
"null","sound/msl/frog.wav","null","audio-keyboard-response","239","130101","0.0-1.0-238.0","",""
"null","sound/msl/door_bell.wav","null","audio-keyboard-response","240","130610","0.0-1.0-239.0","",""
"null","sound/msl/door.wav","null","audio-keyboard-response","241","131110","0.0-1.0-240.0","",""
"null","sound/msl/organ.wav","null","audio-keyboard-response","242","131610","0.0-1.0-241.0","",""
"null","sound/msl/bird.wav","null","audio-keyboard-response","243","132111","0.0-1.0-242.0","",""
"null","sound/msl/slide_whistle.wav","null","audio-keyboard-response","244","132611","0.0-1.0-243.0","",""
"null","sound/msl/duck.wav","null","audio-keyboard-response","245","133111","0.0-1.0-244.0","",""
"null","sound/msl/Water.wav","null","audio-keyboard-response","246","133621","0.0-1.0-245.0","",""
"null","sound/msl/cat.wav","null","audio-keyboard-response","247","134121","0.0-1.0-246.0","",""
"null","sound/msl/cow.wav","null","audio-keyboard-response","248","134621","0.0-1.0-247.0","",""
"null","sound/msl/clock.wav","null","audio-keyboard-response","249","135171","0.0-1.0-248.0","",""
"null","sound/msl/dog.wav","null","audio-keyboard-response","250","135672","0.0-1.0-249.0","",""
"null","sound/msl/frog.wav","null","audio-keyboard-response","251","136183","0.0-1.0-250.0","",""
"null","sound/msl/door_bell.wav","null","audio-keyboard-response","252","136692","0.0-1.0-251.0","",""
"null","sound/msl/door.wav","null","audio-keyboard-response","253","137191","0.0-1.0-252.0","",""
"null","sound/msl/organ.wav","null","audio-keyboard-response","254","137691","0.0-1.0-253.0","",""
"null","sound/msl/bird.wav","null","audio-keyboard-response","255","138192","0.0-1.0-254.0","",""
"null","sound/msl/goat.wav","null","audio-keyboard-response","256","138731","0.0-1.0-255.0","",""
"null","sound/msl/boing.wav","null","audio-keyboard-response","257","139231","0.0-1.0-256.0","",""
"null","sound/msl/ding.wav","null","audio-keyboard-response","258","139741","0.0-1.0-257.0","",""
"null","sound/msl/slide_whistle.wav","null","audio-keyboard-response","259","140241","0.0-1.0-258.0","",""
"null","sound/msl/duck.wav","null","audio-keyboard-response","260","140742","0.0-1.0-259.0","",""
"null","sound/msl/Water.wav","null","audio-keyboard-response","261","141252","0.0-1.0-260.0","",""
"null","sound/msl/door.wav","null","audio-keyboard-response","262","141752","0.0-1.0-261.0","",""
"null","sound/msl/organ.wav","null","audio-keyboard-response","263","142251","0.0-1.0-262.0","",""
"null","sound/msl/bird.wav","null","audio-keyboard-response","264","142752","0.0-1.0-263.0","",""
"null","sound/msl/dog.wav","null","audio-keyboard-response","265","143262","0.0-1.0-264.0","",""
"null","sound/msl/frog.wav","null","audio-keyboard-response","266","143772","0.0-1.0-265.0","",""
"null","sound/msl/door_bell.wav","null","audio-keyboard-response","267","144272","0.0-1.0-266.0","",""
"null","sound/msl/goat.wav","null","audio-keyboard-response","268","144812","0.0-1.0-267.0","",""
"null","sound/msl/boing.wav","null","audio-keyboard-response","269","145312","0.0-1.0-268.0","",""
"null","sound/msl/ding.wav","null","audio-keyboard-response","270","145823","0.0-1.0-269.0","",""
"null","sound/msl/cat.wav","null","audio-keyboard-response","271","146323","0.0-1.0-270.0","",""
"null","sound/msl/cow.wav","null","audio-keyboard-response","272","146823","0.0-1.0-271.0","",""
"null","sound/msl/clock.wav","null","audio-keyboard-response","273","147373","0.0-1.0-272.0","",""
"null","sound/msl/slide_whistle.wav","null","audio-keyboard-response","274","147872","0.0-1.0-273.0","",""
"null","sound/msl/duck.wav","null","audio-keyboard-response","275","148383","0.0-1.0-274.0","",""
"null","sound/msl/Water.wav","null","audio-keyboard-response","276","148893","0.0-1.0-275.0","",""
"null","sound/msl/door.wav","null","audio-keyboard-response","277","149394","0.0-1.0-276.0","",""
"null","sound/msl/organ.wav","null","audio-keyboard-response","278","149893","0.0-1.0-277.0","",""
"null","sound/msl/bird.wav","null","audio-keyboard-response","279","150393","0.0-1.0-278.0","",""
"null","sound/msl/dog.wav","null","audio-keyboard-response","280","150903","0.0-1.0-279.0","",""
"null","sound/msl/frog.wav","null","audio-keyboard-response","281","151413","0.0-1.0-280.0","",""
"null","sound/msl/door_bell.wav","null","audio-keyboard-response","282","151908","0.0-1.0-281.0","",""
"null","sound/msl/cat.wav","null","audio-keyboard-response","283","152409","0.0-1.0-282.0","",""
"null","sound/msl/cow.wav","null","audio-keyboard-response","284","152908","0.0-1.0-283.0","",""
"null","sound/msl/clock.wav","null","audio-keyboard-response","285","153458","0.0-1.0-284.0","",""
"null","sound/msl/goat.wav","null","audio-keyboard-response","286","153998","0.0-1.0-285.0","",""
"null","sound/msl/boing.wav","null","audio-keyboard-response","287","154498","0.0-1.0-286.0","",""
"null","sound/msl/ding.wav","null","audio-keyboard-response","288","155008","0.0-1.0-287.0","",""
"null","sound/msl/slide_whistle.wav","null","audio-keyboard-response","289","155508","0.0-1.0-288.0","",""
"null","sound/msl/duck.wav","null","audio-keyboard-response","290","156018","0.0-1.0-289.0","",""
"null","sound/msl/Water.wav","null","audio-keyboard-response","291","156528","0.0-1.0-290.0","",""
"null","sound/msl/dog.wav","null","audio-keyboard-response","292","157029","0.0-1.0-291.0","",""
"null","sound/msl/frog.wav","null","audio-keyboard-response","293","157539","0.0-1.0-292.0","",""
"null","sound/msl/door_bell.wav","null","audio-keyboard-response","294","158049","0.0-1.0-293.0","",""
"null","sound/msl/door.wav","null","audio-keyboard-response","295","158549","0.0-1.0-294.0","",""
"null","sound/msl/organ.wav","null","audio-keyboard-response","296","159049","0.0-1.0-295.0","",""
"null","sound/msl/bird.wav","null","audio-keyboard-response","297","159549","0.0-1.0-296.0","",""
"null","sound/msl/slide_whistle.wav","null","audio-keyboard-response","298","160049","0.0-1.0-297.0","",""
"null","sound/msl/duck.wav","null","audio-keyboard-response","299","160550","0.0-1.0-298.0","",""
"null","sound/msl/Water.wav","null","audio-keyboard-response","300","161059","0.0-1.0-299.0","",""
"null","sound/msl/cat.wav","null","audio-keyboard-response","301","161560","0.0-1.0-300.0","",""
"null","sound/msl/cow.wav","null","audio-keyboard-response","302","162060","0.0-1.0-301.0","",""
"null","sound/msl/clock.wav","null","audio-keyboard-response","303","162610","0.0-1.0-302.0","",""
"null","sound/msl/dog.wav","null","audio-keyboard-response","304","163110","0.0-1.0-303.0","",""
"null","sound/msl/frog.wav","null","audio-keyboard-response","305","163619","0.0-1.0-304.0","",""
"null","sound/msl/door_bell.wav","null","audio-keyboard-response","306","164131","0.0-1.0-305.0","",""
"null","sound/msl/goat.wav","null","audio-keyboard-response","307","164670","0.0-1.0-306.0","",""
"null","sound/msl/boing.wav","null","audio-keyboard-response","308","165170","0.0-1.0-307.0","",""
"null","sound/msl/ding.wav","null","audio-keyboard-response","309","165670","0.0-1.0-308.0","",""
"null","sound/msl/door.wav","null","audio-keyboard-response","310","166170","0.0-1.0-309.0","",""
"null","sound/msl/organ.wav","null","audio-keyboard-response","311","166670","0.0-1.0-310.0","",""
"null","sound/msl/bird.wav","null","audio-keyboard-response","312","167180","0.0-1.0-311.0","",""
"null","sound/msl/slide_whistle.wav","null","audio-keyboard-response","313","167680","0.0-1.0-312.0","",""
"null","sound/msl/duck.wav","null","audio-keyboard-response","314","168180","0.0-1.0-313.0","",""
"null","sound/msl/Water.wav","null","audio-keyboard-response","315","168690","0.0-1.0-314.0","",""
"null","sound/msl/cat.wav","null","audio-keyboard-response","316","169190","0.0-1.0-315.0","",""
"null","sound/msl/cow.wav","null","audio-keyboard-response","317","169700","0.0-1.0-316.0","",""
"null","sound/msl/clock.wav","null","audio-keyboard-response","318","170251","0.0-1.0-317.0","",""
"null","sound/msl/dog.wav","null","audio-keyboard-response","319","170751","0.0-1.0-318.0","",""
"null","sound/msl/frog.wav","null","audio-keyboard-response","320","171261","0.0-1.0-319.0","",""
"null","sound/msl/door_bell.wav","null","audio-keyboard-response","321","171771","0.0-1.0-320.0","",""
"null","sound/msl/door.wav","null","audio-keyboard-response","322","172271","0.0-1.0-321.0","",""
"null","sound/msl/organ.wav","null","audio-keyboard-response","323","172771","0.0-1.0-322.0","",""
"null","sound/msl/bird.wav","null","audio-keyboard-response","324","173271","0.0-1.0-323.0","",""
"null","sound/msl/cat.wav","null","audio-keyboard-response","325","173771","0.0-1.0-324.0","",""
"null","sound/msl/cow.wav","null","audio-keyboard-response","326","174271","0.0-1.0-325.0","",""
"null","sound/msl/clock.wav","null","audio-keyboard-response","327","174822","0.0-1.0-326.0","",""
"null","sound/msl/goat.wav","null","audio-keyboard-response","328","175362","0.0-1.0-327.0","",""
"null","sound/msl/boing.wav","null","audio-keyboard-response","329","175861","0.0-1.0-328.0","",""
"null","sound/msl/ding.wav","null","audio-keyboard-response","330","176372","0.0-1.0-329.0","",""
"null","sound/msl/slide_whistle.wav","null","audio-keyboard-response","331","176871","0.0-1.0-330.0","",""
"null","sound/msl/duck.wav","null","audio-keyboard-response","332","177381","0.0-1.0-331.0","",""
"null","sound/msl/Water.wav","null","audio-keyboard-response","333","177892","0.0-1.0-332.0","",""
"null","sound/msl/dog.wav","null","audio-keyboard-response","334","178392","0.0-1.0-333.0","",""
"null","sound/msl/frog.wav","null","audio-keyboard-response","335","178902","0.0-1.0-334.0","",""
"null","sound/msl/door_bell.wav","null","audio-keyboard-response","336","179412","0.0-1.0-335.0","",""
"null","sound/msl/goat.wav","null","audio-keyboard-response","337","179952","0.0-1.0-336.0","",""
"null","sound/msl/boing.wav","null","audio-keyboard-response","338","180452","0.0-1.0-337.0","",""
"null","sound/msl/ding.wav","null","audio-keyboard-response","339","180952","0.0-1.0-338.0","",""
"null","sound/msl/door.wav","null","audio-keyboard-response","340","181453","0.0-1.0-339.0","",""
"null","sound/msl/organ.wav","null","audio-keyboard-response","341","181953","0.0-1.0-340.0","",""
"null","sound/msl/bird.wav","null","audio-keyboard-response","342","182463","0.0-1.0-341.0","",""
"null","sound/msl/dog.wav","null","audio-keyboard-response","343","182973","0.0-1.0-342.0","",""
"null","sound/msl/frog.wav","null","audio-keyboard-response","344","183473","0.0-1.0-343.0","",""
"null","sound/msl/door_bell.wav","null","audio-keyboard-response","345","183983","0.0-1.0-344.0","",""
"null","sound/msl/door.wav","null","audio-keyboard-response","346","184483","0.0-1.0-345.0","",""
"null","sound/msl/organ.wav","null","audio-keyboard-response","347","184983","0.0-1.0-346.0","",""
"null","sound/msl/bird.wav","null","audio-keyboard-response","348","185493","0.0-1.0-347.0","",""
"null","sound/msl/goat.wav","null","audio-keyboard-response","349","186033","0.0-1.0-348.0","",""
"null","sound/msl/boing.wav","null","audio-keyboard-response","350","186534","0.0-1.0-349.0","",""
"null","sound/msl/ding.wav","null","audio-keyboard-response","351","187033","0.0-1.0-350.0","",""
"null","sound/msl/slide_whistle.wav","null","audio-keyboard-response","352","187533","0.0-1.0-351.0","",""
"null","sound/msl/duck.wav","null","audio-keyboard-response","353","188033","0.0-1.0-352.0","",""
"null","sound/msl/Water.wav","null","audio-keyboard-response","354","188544","0.0-1.0-353.0","",""
"null","sound/msl/dog.wav","null","audio-keyboard-response","355","189054","0.0-1.0-354.0","",""
"null","sound/msl/frog.wav","null","audio-keyboard-response","356","189554","0.0-1.0-355.0","",""
"null","sound/msl/door_bell.wav","null","audio-keyboard-response","357","190064","0.0-1.0-356.0","",""
"null","sound/msl/door.wav","null","audio-keyboard-response","358","190563","0.0-1.0-357.0","",""
"null","sound/msl/organ.wav","null","audio-keyboard-response","359","191063","0.0-1.0-358.0","",""
"null","sound/msl/bird.wav","null","audio-keyboard-response","360","191574","0.0-1.0-359.0","",""
"31415","Instructions2-eng.png","49","image-keyboard-response","361","222991","0.0-2.0","",""
"null","sound/msl/slide_whistle.wav","null","audio-keyboard-response","362","223476","0.0-3.0-0.0","",""
"null","sound/msl/organ.wav","null","audio-keyboard-response","363","223976","0.0-3.0-1.0","",""
"null","sound/msl/clock.wav","null","audio-keyboard-response","364","224526","0.0-3.0-2.0","",""
"null","sound/asl/silence.wav","null","audio-keyboard-response","365","225029","0.0-3.0-3.0","",""
"null","sound/msl/cat.wav","null","audio-keyboard-response","366","225522","0.0-3.0-4.0","",""
"null","sound/msl/cow.wav","null","audio-keyboard-response","367","226031","0.0-3.0-5.0","",""
"null","sound/msl/clock.wav","null","audio-keyboard-response","368","226582","0.0-3.0-6.0","",""
"3120","sound/asl/silence.wav","49","audio-keyboard-response","369","229706","0.0-3.0-7.0","false",""
"null","sound/msl/dog.wav","null","audio-keyboard-response","370","230202","0.0-4.0-0.0","",""
"null","sound/msl/frog.wav","null","audio-keyboard-response","371","230712","0.0-4.0-1.0","",""
"null","sound/msl/door_bell.wav","null","audio-keyboard-response","372","231213","0.0-4.0-2.0","",""
"null","sound/asl/silence.wav","null","audio-keyboard-response","373","231715","0.0-4.0-3.0","",""
"null","sound/msl/dog.wav","null","audio-keyboard-response","374","232212","0.0-4.0-4.0","",""
"null","sound/msl/duck.wav","null","audio-keyboard-response","375","232722","0.0-4.0-5.0","",""
"null","sound/msl/bird.wav","null","audio-keyboard-response","376","233232","0.0-4.0-6.0","",""
"2200","sound/asl/silence.wav","49","audio-keyboard-response","377","235436","0.0-4.0-7.0","true",""
"null","sound/msl/door.wav","null","audio-keyboard-response","378","235933","0.0-5.0-0.0","",""
"null","sound/msl/cow.wav","null","audio-keyboard-response","379","236443","0.0-5.0-1.0","",""
"null","sound/msl/ding.wav","null","audio-keyboard-response","380","236953","0.0-5.0-2.0","",""
"null","sound/asl/silence.wav","null","audio-keyboard-response","381","237455","0.0-5.0-3.0","",""
"null","sound/msl/door.wav","null","audio-keyboard-response","382","237953","0.0-5.0-4.0","",""
"null","sound/msl/organ.wav","null","audio-keyboard-response","383","238453","0.0-5.0-5.0","",""
"null","sound/msl/bird.wav","null","audio-keyboard-response","384","238963","0.0-5.0-6.0","",""
"371","sound/asl/silence.wav","50","audio-keyboard-response","385","239336","0.0-5.0-7.0","true",""
"null","sound/msl/dog.wav","null","audio-keyboard-response","386","239843","0.0-6.0-0.0","",""
"null","sound/msl/duck.wav","null","audio-keyboard-response","387","240354","0.0-6.0-1.0","",""
"null","sound/msl/bird.wav","null","audio-keyboard-response","388","240854","0.0-6.0-2.0","",""
"null","sound/asl/silence.wav","null","audio-keyboard-response","389","241356","0.0-6.0-3.0","",""
"null","sound/msl/goat.wav","null","audio-keyboard-response","390","241894","0.0-6.0-4.0","",""
"null","sound/msl/boing.wav","null","audio-keyboard-response","391","242394","0.0-6.0-5.0","",""
"null","sound/msl/ding.wav","null","audio-keyboard-response","392","242894","0.0-6.0-6.0","",""
"600","sound/asl/silence.wav","50","audio-keyboard-response","393","243497","0.0-6.0-7.0","true",""
"null","sound/msl/cat.wav","null","audio-keyboard-response","394","243994","0.0-7.0-0.0","",""
"null","sound/msl/boing.wav","null","audio-keyboard-response","395","244494","0.0-7.0-1.0","",""
"null","sound/msl/door_bell.wav","null","audio-keyboard-response","396","245003","0.0-7.0-2.0","",""
"null","sound/asl/silence.wav","null","audio-keyboard-response","397","245506","0.0-7.0-3.0","",""
"null","sound/msl/dog.wav","null","audio-keyboard-response","398","246004","0.0-7.0-4.0","",""
"null","sound/msl/frog.wav","null","audio-keyboard-response","399","246514","0.0-7.0-5.0","",""
"null","sound/msl/door_bell.wav","null","audio-keyboard-response","400","247014","0.0-7.0-6.0","",""
"829","sound/asl/silence.wav","50","audio-keyboard-response","401","247847","0.0-7.0-7.0","true",""
"null","sound/msl/door.wav","null","audio-keyboard-response","402","248344","0.0-8.0-0.0","",""
"null","sound/msl/organ.wav","null","audio-keyboard-response","403","248844","0.0-8.0-1.0","",""
"null","sound/msl/bird.wav","null","audio-keyboard-response","404","249355","0.0-8.0-2.0","",""
"null","sound/asl/silence.wav","null","audio-keyboard-response","405","249856","0.0-8.0-3.0","",""
"null","sound/msl/slide_whistle.wav","null","audio-keyboard-response","406","250355","0.0-8.0-4.0","",""
"null","sound/msl/organ.wav","null","audio-keyboard-response","407","250855","0.0-8.0-5.0","",""
"null","sound/msl/clock.wav","null","audio-keyboard-response","408","251404","0.0-8.0-6.0","",""
"339","sound/asl/silence.wav","49","audio-keyboard-response","409","251750","0.0-8.0-7.0","true",""
"null","sound/msl/cat.wav","null","audio-keyboard-response","410","252244","0.0-9.0-0.0","",""
"null","sound/msl/boing.wav","null","audio-keyboard-response","411","252744","0.0-9.0-1.0","",""
"null","sound/msl/door_bell.wav","null","audio-keyboard-response","412","253245","0.0-9.0-2.0","",""
"null","sound/asl/silence.wav","null","audio-keyboard-response","413","253749","0.0-9.0-3.0","",""
"null","sound/msl/goat.wav","null","audio-keyboard-response","414","254286","0.0-9.0-4.0","",""
"null","sound/msl/boing.wav","null","audio-keyboard-response","415","254785","0.0-9.0-5.0","",""
"null","sound/msl/ding.wav","null","audio-keyboard-response","416","255286","0.0-9.0-6.0","",""
"499","sound/asl/silence.wav","50","audio-keyboard-response","417","255795","0.0-9.0-7.0","true",""
"null","sound/msl/goat.wav","null","audio-keyboard-response","418","256336","0.0-10.0-0.0","",""
"null","sound/msl/boing.wav","null","audio-keyboard-response","419","256835","0.0-10.0-1.0","",""
"null","sound/msl/ding.wav","null","audio-keyboard-response","420","257336","0.0-10.0-2.0","",""
"null","sound/asl/silence.wav","null","audio-keyboard-response","421","257837","0.0-10.0-3.0","",""
"null","sound/msl/door.wav","null","audio-keyboard-response","422","258336","0.0-10.0-4.0","",""
"null","sound/msl/cow.wav","null","audio-keyboard-response","423","258846","0.0-10.0-5.0","",""
"null","sound/msl/ding.wav","null","audio-keyboard-response","424","259356","0.0-10.0-6.0","",""
"421","sound/asl/silence.wav","49","audio-keyboard-response","425","259778","0.0-10.0-7.0","true",""
"null","sound/msl/dog.wav","null","audio-keyboard-response","426","260286","0.0-11.0-0.0","",""
"null","sound/msl/frog.wav","null","audio-keyboard-response","427","260796","0.0-11.0-1.0","",""
"null","sound/msl/door_bell.wav","null","audio-keyboard-response","428","261296","0.0-11.0-2.0","",""
"null","sound/asl/silence.wav","null","audio-keyboard-response","429","261797","0.0-11.0-3.0","",""
"null","sound/msl/slide_whistle.wav","null","audio-keyboard-response","430","262296","0.0-11.0-4.0","",""
"null","sound/msl/organ.wav","null","audio-keyboard-response","431","262796","0.0-11.0-5.0","",""
"null","sound/msl/clock.wav","null","audio-keyboard-response","432","263346","0.0-11.0-6.0","",""
"2411","sound/asl/silence.wav","50","audio-keyboard-response","433","265755","0.0-11.0-7.0","false",""
"null","sound/msl/dog.wav","null","audio-keyboard-response","434","266252","0.0-12.0-0.0","",""
"null","sound/msl/duck.wav","null","audio-keyboard-response","435","266761","0.0-12.0-1.0","",""
"null","sound/msl/bird.wav","null","audio-keyboard-response","436","267271","0.0-12.0-2.0","",""
"null","sound/asl/silence.wav","null","audio-keyboard-response","437","267773","0.0-12.0-3.0","",""
"null","sound/msl/cat.wav","null","audio-keyboard-response","438","268271","0.0-12.0-4.0","",""
"null","sound/msl/cow.wav","null","audio-keyboard-response","439","268772","0.0-12.0-5.0","",""
"null","sound/msl/clock.wav","null","audio-keyboard-response","440","269322","0.0-12.0-6.0","",""
"1611","sound/asl/silence.wav","50","audio-keyboard-response","441","270936","0.0-12.0-7.0","true",""
"null","sound/msl/goat.wav","null","audio-keyboard-response","442","271473","0.0-13.0-0.0","",""
"null","sound/msl/frog.wav","null","audio-keyboard-response","443","271972","0.0-13.0-1.0","",""
"null","sound/msl/Water.wav","null","audio-keyboard-response","444","272483","0.0-13.0-2.0","",""
"null","sound/asl/silence.wav","null","audio-keyboard-response","445","272983","0.0-13.0-3.0","",""
"null","sound/msl/slide_whistle.wav","null","audio-keyboard-response","446","273483","0.0-13.0-4.0","",""
"null","sound/msl/duck.wav","null","audio-keyboard-response","447","273992","0.0-13.0-5.0","",""
"null","sound/msl/Water.wav","null","audio-keyboard-response","448","274503","0.0-13.0-6.0","",""
"1501","sound/asl/silence.wav","50","audio-keyboard-response","449","276012","0.0-13.0-7.0","true",""
"null","sound/msl/cat.wav","null","audio-keyboard-response","450","276513","0.0-14.0-0.0","",""
"null","sound/msl/cow.wav","null","audio-keyboard-response","451","277013","0.0-14.0-1.0","",""
"null","sound/msl/clock.wav","null","audio-keyboard-response","452","277564","0.0-14.0-2.0","",""
"null","sound/asl/silence.wav","null","audio-keyboard-response","453","278065","0.0-14.0-3.0","",""
"null","sound/msl/goat.wav","null","audio-keyboard-response","454","278603","0.0-14.0-4.0","",""
"null","sound/msl/frog.wav","null","audio-keyboard-response","455","279114","0.0-14.0-5.0","",""
"null","sound/msl/Water.wav","null","audio-keyboard-response","456","279623","0.0-14.0-6.0","",""
"392","sound/asl/silence.wav","49","audio-keyboard-response","457","280019","0.0-14.0-7.0","true",""
"null","sound/msl/door.wav","null","audio-keyboard-response","458","280514","0.0-15.0-0.0","",""
"null","sound/msl/cow.wav","null","audio-keyboard-response","459","281013","0.0-15.0-1.0","",""
"null","sound/msl/ding.wav","null","audio-keyboard-response","460","281524","0.0-15.0-2.0","",""
"null","sound/asl/silence.wav","null","audio-keyboard-response","461","282025","0.0-15.0-3.0","",""
"null","sound/msl/slide_whistle.wav","null","audio-keyboard-response","462","282523","0.0-15.0-4.0","",""
"null","sound/msl/duck.wav","null","audio-keyboard-response","463","283034","0.0-15.0-5.0","",""
"null","sound/msl/Water.wav","null","audio-keyboard-response","464","283544","0.0-15.0-6.0","",""
"832","sound/asl/silence.wav","50","audio-keyboard-response","465","284378","0.0-15.0-7.0","true",""
"null","sound/msl/door.wav","null","audio-keyboard-response","466","284874","0.0-16.0-0.0","",""
"null","sound/msl/organ.wav","null","audio-keyboard-response","467","285374","0.0-16.0-1.0","",""
"null","sound/msl/bird.wav","null","audio-keyboard-response","468","285885","0.0-16.0-2.0","",""
"null","sound/asl/silence.wav","null","audio-keyboard-response","469","286386","0.0-16.0-3.0","",""
"null","sound/msl/dog.wav","null","audio-keyboard-response","470","286885","0.0-16.0-4.0","",""
"null","sound/msl/duck.wav","null","audio-keyboard-response","471","287394","0.0-16.0-5.0","",""
"null","sound/msl/bird.wav","null","audio-keyboard-response","472","287894","0.0-16.0-6.0","",""
"539","sound/asl/silence.wav","49","audio-keyboard-response","473","288439","0.0-16.0-7.0","true",""
"null","sound/msl/goat.wav","null","audio-keyboard-response","474","288974","0.0-17.0-0.0","",""
"null","sound/msl/frog.wav","null","audio-keyboard-response","475","289485","0.0-17.0-1.0","",""
"null","sound/msl/Water.wav","null","audio-keyboard-response","476","289995","0.0-17.0-2.0","",""
"null","sound/asl/silence.wav","null","audio-keyboard-response","477","290496","0.0-17.0-3.0","",""
"null","sound/msl/goat.wav","null","audio-keyboard-response","478","291035","0.0-17.0-4.0","",""
"null","sound/msl/boing.wav","null","audio-keyboard-response","479","291536","0.0-17.0-5.0","",""
"null","sound/msl/ding.wav","null","audio-keyboard-response","480","292045","0.0-17.0-6.0","",""
"139","sound/asl/silence.wav","49","audio-keyboard-response","481","292187","0.0-17.0-7.0","false",""
"null","sound/msl/cat.wav","null","audio-keyboard-response","482","292685","0.0-18.0-0.0","",""
"null","sound/msl/boing.wav","null","audio-keyboard-response","483","293185","0.0-18.0-1.0","",""
"null","sound/msl/door_bell.wav","null","audio-keyboard-response","484","293686","0.0-18.0-2.0","",""
"null","sound/asl/silence.wav","null","audio-keyboard-response","485","294187","0.0-18.0-3.0","",""
"null","sound/msl/door.wav","null","audio-keyboard-response","486","294685","0.0-18.0-4.0","",""
"null","sound/msl/organ.wav","null","audio-keyboard-response","487","295185","0.0-18.0-5.0","",""
"null","sound/msl/bird.wav","null","audio-keyboard-response","488","295686","0.0-18.0-6.0","",""
"331","sound/asl/silence.wav","50","audio-keyboard-response","489","296017","0.0-18.0-7.0","true",""
"null","sound/msl/slide_whistle.wav","null","audio-keyboard-response","490","296516","0.0-19.0-0.0","",""
"null","sound/msl/duck.wav","null","audio-keyboard-response","491","297016","0.0-19.0-1.0","",""
"null","sound/msl/Water.wav","null","audio-keyboard-response","492","297525","0.0-19.0-2.0","",""
"null","sound/asl/silence.wav","null","audio-keyboard-response","493","298026","0.0-19.0-3.0","",""
"null","sound/msl/cat.wav","null","audio-keyboard-response","494","298526","0.0-19.0-4.0","",""
"null","sound/msl/boing.wav","null","audio-keyboard-response","495","299026","0.0-19.0-5.0","",""
"null","sound/msl/door_bell.wav","null","audio-keyboard-response","496","299526","0.0-19.0-6.0","",""
"480","sound/asl/silence.wav","49","audio-keyboard-response","497","300013","0.0-19.0-7.0","true",""
"null","sound/msl/goat.wav","null","audio-keyboard-response","498","300547","0.0-20.0-0.0","",""
"null","sound/msl/frog.wav","null","audio-keyboard-response","499","301046","0.0-20.0-1.0","",""
"null","sound/msl/Water.wav","null","audio-keyboard-response","500","301556","0.0-20.0-2.0","",""
"null","sound/asl/silence.wav","null","audio-keyboard-response","501","302058","0.0-20.0-3.0","",""
"null","sound/msl/door.wav","null","audio-keyboard-response","502","302556","0.0-20.0-4.0","",""
"null","sound/msl/organ.wav","null","audio-keyboard-response","503","303057","0.0-20.0-5.0","",""
"null","sound/msl/bird.wav","null","audio-keyboard-response","504","303566","0.0-20.0-6.0","",""
"1760","sound/asl/silence.wav","49","audio-keyboard-response","505","305335","0.0-20.0-7.0","false",""
"null","sound/msl/cat.wav","null","audio-keyboard-response","506","305826","0.0-21.0-0.0","",""
"null","sound/msl/cow.wav","null","audio-keyboard-response","507","306327","0.0-21.0-1.0","",""
"null","sound/msl/clock.wav","null","audio-keyboard-response","508","306872","0.0-21.0-2.0","",""
"null","sound/asl/silence.wav","null","audio-keyboard-response","509","307375","0.0-21.0-3.0","",""
"null","sound/msl/door.wav","null","audio-keyboard-response","510","307872","0.0-21.0-4.0","",""
"null","sound/msl/cow.wav","null","audio-keyboard-response","511","308372","0.0-21.0-5.0","",""
"null","sound/msl/ding.wav","null","audio-keyboard-response","512","308883","0.0-21.0-6.0","",""
"1411","sound/asl/silence.wav","50","audio-keyboard-response","513","310300","0.0-21.0-7.0","false",""
"null","sound/msl/goat.wav","null","audio-keyboard-response","514","310832","0.0-22.0-0.0","",""
"null","sound/msl/frog.wav","null","audio-keyboard-response","515","311332","0.0-22.0-1.0","",""
"null","sound/msl/Water.wav","null","audio-keyboard-response","516","311843","0.0-22.0-2.0","",""
"null","sound/asl/silence.wav","null","audio-keyboard-response","517","312345","0.0-22.0-3.0","",""
"null","sound/msl/dog.wav","null","audio-keyboard-response","518","312842","0.0-22.0-4.0","",""
"null","sound/msl/frog.wav","null","audio-keyboard-response","519","313352","0.0-22.0-5.0","",""
"null","sound/msl/door_bell.wav","null","audio-keyboard-response","520","313853","0.0-22.0-6.0","",""
"3840","sound/asl/silence.wav","50","audio-keyboard-response","521","317699","0.0-22.0-7.0","true",""
"null","sound/msl/slide_whistle.wav","null","audio-keyboard-response","522","318193","0.0-23.0-0.0","",""
"null","sound/msl/duck.wav","null","audio-keyboard-response","523","318694","0.0-23.0-1.0","",""
"null","sound/msl/Water.wav","null","audio-keyboard-response","524","319204","0.0-23.0-2.0","",""
"null","sound/asl/silence.wav","null","audio-keyboard-response","525","319705","0.0-23.0-3.0","",""
"null","sound/msl/dog.wav","null","audio-keyboard-response","526","320204","0.0-23.0-4.0","",""
"null","sound/msl/duck.wav","null","audio-keyboard-response","527","320714","0.0-23.0-5.0","",""
"null","sound/msl/bird.wav","null","audio-keyboard-response","528","321214","0.0-23.0-6.0","",""
"1269","sound/asl/silence.wav","49","audio-keyboard-response","529","322491","0.0-23.0-7.0","true",""
"null","sound/msl/slide_whistle.wav","null","audio-keyboard-response","530","322984","0.0-24.0-0.0","",""
"null","sound/msl/duck.wav","null","audio-keyboard-response","531","323484","0.0-24.0-1.0","",""
"null","sound/msl/Water.wav","null","audio-keyboard-response","532","323995","0.0-24.0-2.0","",""
"null","sound/asl/silence.wav","null","audio-keyboard-response","533","324496","0.0-24.0-3.0","",""
"null","sound/msl/slide_whistle.wav","null","audio-keyboard-response","534","324995","0.0-24.0-4.0","",""
"null","sound/msl/organ.wav","null","audio-keyboard-response","535","325494","0.0-24.0-5.0","",""
"null","sound/msl/clock.wav","null","audio-keyboard-response","536","326045","0.0-24.0-6.0","",""
"1989","sound/asl/silence.wav","50","audio-keyboard-response","537","328044","0.0-24.0-7.0","false",""
"null","sound/msl/goat.wav","null","audio-keyboard-response","538","328585","0.0-25.0-0.0","",""
"null","sound/msl/boing.wav","null","audio-keyboard-response","539","329084","0.0-25.0-1.0","",""
"null","sound/msl/ding.wav","null","audio-keyboard-response","540","329595","0.0-25.0-2.0","",""
"null","sound/asl/silence.wav","null","audio-keyboard-response","541","330096","0.0-25.0-3.0","",""
"null","sound/msl/slide_whistle.wav","null","audio-keyboard-response","542","330595","0.0-25.0-4.0","",""
"null","sound/msl/organ.wav","null","audio-keyboard-response","543","331095","0.0-25.0-5.0","",""
"null","sound/msl/clock.wav","null","audio-keyboard-response","544","331645","0.0-25.0-6.0","",""
"1400","sound/asl/silence.wav","50","audio-keyboard-response","545","333055","0.0-25.0-7.0","false",""
"null","sound/msl/cat.wav","null","audio-keyboard-response","546","333556","0.0-26.0-0.0","",""
"null","sound/msl/cow.wav","null","audio-keyboard-response","547","334055","0.0-26.0-1.0","",""
"null","sound/msl/clock.wav","null","audio-keyboard-response","548","334606","0.0-26.0-2.0","",""
"null","sound/asl/silence.wav","null","audio-keyboard-response","549","335108","0.0-26.0-3.0","",""
"null","sound/msl/cat.wav","null","audio-keyboard-response","550","335606","0.0-26.0-4.0","",""
"null","sound/msl/boing.wav","null","audio-keyboard-response","551","336106","0.0-26.0-5.0","",""
"null","sound/msl/door_bell.wav","null","audio-keyboard-response","552","336606","0.0-26.0-6.0","",""
"1379","sound/asl/silence.wav","49","audio-keyboard-response","553","337992","0.0-26.0-7.0","true",""
"null","sound/msl/door.wav","null","audio-keyboard-response","554","338486","0.0-27.0-0.0","",""
"null","sound/msl/cow.wav","null","audio-keyboard-response","555","338996","0.0-27.0-1.0","",""
"null","sound/msl/ding.wav","null","audio-keyboard-response","556","339496","0.0-27.0-2.0","",""
"null","sound/asl/silence.wav","null","audio-keyboard-response","557","339997","0.0-27.0-3.0","",""
"null","sound/msl/dog.wav","null","audio-keyboard-response","558","340498","0.0-27.0-4.0","",""
"null","sound/msl/frog.wav","null","audio-keyboard-response","559","341006","0.0-27.0-5.0","",""
"null","sound/msl/door_bell.wav","null","audio-keyboard-response","560","341517","0.0-27.0-6.0","",""
"589","sound/asl/silence.wav","49","audio-keyboard-response","561","342107","0.0-27.0-7.0","false",""
"3122","","","instructions","562","345230","0.0-28.0","","[{""page_index"":0,""viewing_time"":3122}]"
