"rt","stimulus","key_press","trial_type","trial_index","time_elapsed","internal_node_id","correct","view_history"
"76100","alien.jpg","49","image-keyboard-response","0","76103","0.0-0.0","",""
"null","sound/msl/duck.wav","null","audio-keyboard-response","1","77010","0.0-1.0-0.0","",""
"null","sound/msl/ding.wav","null","audio-keyboard-response","2","77510","0.0-1.0-1.0","",""
"null","sound/msl/boing.wav","null","audio-keyboard-response","3","78009","0.0-1.0-2.0","",""
"null","sound/msl/cat.wav","null","audio-keyboard-response","4","78509","0.0-1.0-3.0","",""
"null","sound/msl/door_bell.wav","null","audio-keyboard-response","5","79019","0.0-1.0-4.0","",""
"null","sound/msl/clock.wav","null","audio-keyboard-response","6","79569","0.0-1.0-5.0","",""
"null","sound/msl/Water.wav","null","audio-keyboard-response","7","80078","0.0-1.0-6.0","",""
"null","sound/msl/cow.wav","null","audio-keyboard-response","8","80579","0.0-1.0-7.0","",""
"null","sound/msl/bird.wav","null","audio-keyboard-response","9","81089","0.0-1.0-8.0","",""
"null","sound/msl/organ.wav","null","audio-keyboard-response","10","81590","0.0-1.0-9.0","",""
"null","sound/msl/door.wav","null","audio-keyboard-response","11","82090","0.0-1.0-10.0","",""
"null","sound/msl/frog.wav","null","audio-keyboard-response","12","82589","0.0-1.0-11.0","",""
"null","sound/msl/cat.wav","null","audio-keyboard-response","13","83089","0.0-1.0-12.0","",""
"null","sound/msl/door_bell.wav","null","audio-keyboard-response","14","83589","0.0-1.0-13.0","",""
"null","sound/msl/clock.wav","null","audio-keyboard-response","15","84140","0.0-1.0-14.0","",""
"null","sound/msl/duck.wav","null","audio-keyboard-response","16","84649","0.0-1.0-15.0","",""
"null","sound/msl/ding.wav","null","audio-keyboard-response","17","85150","0.0-1.0-16.0","",""
"null","sound/msl/boing.wav","null","audio-keyboard-response","18","85649","0.0-1.0-17.0","",""
"null","sound/msl/slide_whistle.wav","null","audio-keyboard-response","19","86149","0.0-1.0-18.0","",""
"null","sound/msl/goat.wav","null","audio-keyboard-response","20","86689","0.0-1.0-19.0","",""
"null","sound/msl/dog.wav","null","audio-keyboard-response","21","87189","0.0-1.0-20.0","",""
"null","sound/msl/organ.wav","null","audio-keyboard-response","22","87689","0.0-1.0-21.0","",""
"null","sound/msl/door.wav","null","audio-keyboard-response","23","88190","0.0-1.0-22.0","",""
"null","sound/msl/frog.wav","null","audio-keyboard-response","24","88699","0.0-1.0-23.0","",""
"null","sound/msl/Water.wav","null","audio-keyboard-response","25","89209","0.0-1.0-24.0","",""
"null","sound/msl/cow.wav","null","audio-keyboard-response","26","89708","0.0-1.0-25.0","",""
"null","sound/msl/bird.wav","null","audio-keyboard-response","27","90219","0.0-1.0-26.0","",""
"null","sound/msl/duck.wav","null","audio-keyboard-response","28","90729","0.0-1.0-27.0","",""
"null","sound/msl/ding.wav","null","audio-keyboard-response","29","91229","0.0-1.0-28.0","",""
"null","sound/msl/boing.wav","null","audio-keyboard-response","30","91730","0.0-1.0-29.0","",""
"null","sound/msl/cat.wav","null","audio-keyboard-response","31","92229","0.0-1.0-30.0","",""
"null","sound/msl/door_bell.wav","null","audio-keyboard-response","32","92740","0.0-1.0-31.0","",""
"null","sound/msl/clock.wav","null","audio-keyboard-response","33","93290","0.0-1.0-32.0","",""
"null","sound/msl/slide_whistle.wav","null","audio-keyboard-response","34","93789","0.0-1.0-33.0","",""
"null","sound/msl/goat.wav","null","audio-keyboard-response","35","94330","0.0-1.0-34.0","",""
"null","sound/msl/dog.wav","null","audio-keyboard-response","36","94829","0.0-1.0-35.0","",""
"null","sound/msl/Water.wav","null","audio-keyboard-response","37","95339","0.0-1.0-36.0","",""
"null","sound/msl/cow.wav","null","audio-keyboard-response","38","95849","0.0-1.0-37.0","",""
"null","sound/msl/bird.wav","null","audio-keyboard-response","39","96349","0.0-1.0-38.0","",""
"null","sound/msl/organ.wav","null","audio-keyboard-response","40","96849","0.0-1.0-39.0","",""
"null","sound/msl/door.wav","null","audio-keyboard-response","41","97349","0.0-1.0-40.0","",""
"null","sound/msl/frog.wav","null","audio-keyboard-response","42","97859","0.0-1.0-41.0","",""
"null","sound/msl/slide_whistle.wav","null","audio-keyboard-response","43","98359","0.0-1.0-42.0","",""
"null","sound/msl/goat.wav","null","audio-keyboard-response","44","98900","0.0-1.0-43.0","",""
"null","sound/msl/dog.wav","null","audio-keyboard-response","45","99409","0.0-1.0-44.0","",""
"null","sound/msl/cat.wav","null","audio-keyboard-response","46","99909","0.0-1.0-45.0","",""
"null","sound/msl/door_bell.wav","null","audio-keyboard-response","47","100420","0.0-1.0-46.0","",""
"null","sound/msl/clock.wav","null","audio-keyboard-response","48","100970","0.0-1.0-47.0","",""
"null","sound/msl/Water.wav","null","audio-keyboard-response","49","101479","0.0-1.0-48.0","",""
"null","sound/msl/cow.wav","null","audio-keyboard-response","50","101979","0.0-1.0-49.0","",""
"null","sound/msl/bird.wav","null","audio-keyboard-response","51","102489","0.0-1.0-50.0","",""
"null","sound/msl/duck.wav","null","audio-keyboard-response","52","102989","0.0-1.0-51.0","",""
"null","sound/msl/ding.wav","null","audio-keyboard-response","53","103499","0.0-1.0-52.0","",""
"null","sound/msl/boing.wav","null","audio-keyboard-response","54","103999","0.0-1.0-53.0","",""
"null","sound/msl/cat.wav","null","audio-keyboard-response","55","104499","0.0-1.0-54.0","",""
"null","sound/msl/door_bell.wav","null","audio-keyboard-response","56","105009","0.0-1.0-55.0","",""
"null","sound/msl/clock.wav","null","audio-keyboard-response","57","105560","0.0-1.0-56.0","",""
"null","sound/msl/Water.wav","null","audio-keyboard-response","58","106070","0.0-1.0-57.0","",""
"null","sound/msl/cow.wav","null","audio-keyboard-response","59","106579","0.0-1.0-58.0","",""
"null","sound/msl/bird.wav","null","audio-keyboard-response","60","107089","0.0-1.0-59.0","",""
"null","sound/msl/organ.wav","null","audio-keyboard-response","61","107590","0.0-1.0-60.0","",""
"null","sound/msl/door.wav","null","audio-keyboard-response","62","108089","0.0-1.0-61.0","",""
"null","sound/msl/frog.wav","null","audio-keyboard-response","63","108590","0.0-1.0-62.0","",""
"null","sound/msl/slide_whistle.wav","null","audio-keyboard-response","64","109089","0.0-1.0-63.0","",""
"null","sound/msl/goat.wav","null","audio-keyboard-response","65","109630","0.0-1.0-64.0","",""
"null","sound/msl/dog.wav","null","audio-keyboard-response","66","110140","0.0-1.0-65.0","",""
"null","sound/msl/cat.wav","null","audio-keyboard-response","67","110639","0.0-1.0-66.0","",""
"null","sound/msl/door_bell.wav","null","audio-keyboard-response","68","111139","0.0-1.0-67.0","",""
"null","sound/msl/clock.wav","null","audio-keyboard-response","69","111690","0.0-1.0-68.0","",""
"null","sound/msl/duck.wav","null","audio-keyboard-response","70","112189","0.0-1.0-69.0","",""
"null","sound/msl/ding.wav","null","audio-keyboard-response","71","112700","0.0-1.0-70.0","",""
"null","sound/msl/boing.wav","null","audio-keyboard-response","72","113200","0.0-1.0-71.0","",""
"null","sound/msl/Water.wav","null","audio-keyboard-response","73","113710","0.0-1.0-72.0","",""
"null","sound/msl/cow.wav","null","audio-keyboard-response","74","114220","0.0-1.0-73.0","",""
"null","sound/msl/bird.wav","null","audio-keyboard-response","75","114729","0.0-1.0-74.0","",""
"null","sound/msl/organ.wav","null","audio-keyboard-response","76","115230","0.0-1.0-75.0","",""
"null","sound/msl/door.wav","null","audio-keyboard-response","77","115730","0.0-1.0-76.0","",""
"null","sound/msl/frog.wav","null","audio-keyboard-response","78","116230","0.0-1.0-77.0","",""
"null","sound/msl/Water.wav","null","audio-keyboard-response","79","116740","0.0-1.0-78.0","",""
"null","sound/msl/cow.wav","null","audio-keyboard-response","80","117250","0.0-1.0-79.0","",""
"null","sound/msl/bird.wav","null","audio-keyboard-response","81","117750","0.0-1.0-80.0","",""
"null","sound/msl/slide_whistle.wav","null","audio-keyboard-response","82","118249","0.0-1.0-81.0","",""
"null","sound/msl/goat.wav","null","audio-keyboard-response","83","118790","0.0-1.0-82.0","",""
"null","sound/msl/dog.wav","null","audio-keyboard-response","84","119299","0.0-1.0-83.0","",""
"null","sound/msl/duck.wav","null","audio-keyboard-response","85","119809","0.0-1.0-84.0","",""
"null","sound/msl/ding.wav","null","audio-keyboard-response","86","120309","0.0-1.0-85.0","",""
"null","sound/msl/boing.wav","null","audio-keyboard-response","87","120810","0.0-1.0-86.0","",""
"null","sound/msl/cat.wav","null","audio-keyboard-response","88","121309","0.0-1.0-87.0","",""
"null","sound/msl/door_bell.wav","null","audio-keyboard-response","89","121819","0.0-1.0-88.0","",""
"null","sound/msl/clock.wav","null","audio-keyboard-response","90","122370","0.0-1.0-89.0","",""
"null","sound/msl/slide_whistle.wav","null","audio-keyboard-response","91","122870","0.0-1.0-90.0","",""
"null","sound/msl/goat.wav","null","audio-keyboard-response","92","123409","0.0-1.0-91.0","",""
"null","sound/msl/dog.wav","null","audio-keyboard-response","93","123909","0.0-1.0-92.0","",""
"null","sound/msl/organ.wav","null","audio-keyboard-response","94","124409","0.0-1.0-93.0","",""
"null","sound/msl/door.wav","null","audio-keyboard-response","95","124909","0.0-1.0-94.0","",""
"null","sound/msl/frog.wav","null","audio-keyboard-response","96","125419","0.0-1.0-95.0","",""
"null","sound/msl/Water.wav","null","audio-keyboard-response","97","125929","0.0-1.0-96.0","",""
"null","sound/msl/cow.wav","null","audio-keyboard-response","98","126429","0.0-1.0-97.0","",""
"null","sound/msl/bird.wav","null","audio-keyboard-response","99","126939","0.0-1.0-98.0","",""
"null","sound/msl/cat.wav","null","audio-keyboard-response","100","127439","0.0-1.0-99.0","",""
"null","sound/msl/door_bell.wav","null","audio-keyboard-response","101","127940","0.0-1.0-100.0","",""
"null","sound/msl/clock.wav","null","audio-keyboard-response","102","128490","0.0-1.0-101.0","",""
"null","sound/msl/slide_whistle.wav","null","audio-keyboard-response","103","128990","0.0-1.0-102.0","",""
"null","sound/msl/goat.wav","null","audio-keyboard-response","104","129530","0.0-1.0-103.0","",""
"null","sound/msl/dog.wav","null","audio-keyboard-response","105","130029","0.0-1.0-104.0","",""
"null","sound/msl/duck.wav","null","audio-keyboard-response","106","130539","0.0-1.0-105.0","",""
"null","sound/msl/ding.wav","null","audio-keyboard-response","107","131050","0.0-1.0-106.0","",""
"null","sound/msl/boing.wav","null","audio-keyboard-response","108","131550","0.0-1.0-107.0","",""
"null","sound/msl/cat.wav","null","audio-keyboard-response","109","132049","0.0-1.0-108.0","",""
"null","sound/msl/door_bell.wav","null","audio-keyboard-response","110","132549","0.0-1.0-109.0","",""
"null","sound/msl/clock.wav","null","audio-keyboard-response","111","133099","0.0-1.0-110.0","",""
"null","sound/msl/organ.wav","null","audio-keyboard-response","112","133600","0.0-1.0-111.0","",""
"null","sound/msl/door.wav","null","audio-keyboard-response","113","134099","0.0-1.0-112.0","",""
"null","sound/msl/frog.wav","null","audio-keyboard-response","114","134609","0.0-1.0-113.0","",""
"null","sound/msl/slide_whistle.wav","null","audio-keyboard-response","115","135110","0.0-1.0-114.0","",""
"null","sound/msl/goat.wav","null","audio-keyboard-response","116","135649","0.0-1.0-115.0","",""
"null","sound/msl/dog.wav","null","audio-keyboard-response","117","136149","0.0-1.0-116.0","",""
"null","sound/msl/Water.wav","null","audio-keyboard-response","118","136660","0.0-1.0-117.0","",""
"null","sound/msl/cow.wav","null","audio-keyboard-response","119","137169","0.0-1.0-118.0","",""
"null","sound/msl/bird.wav","null","audio-keyboard-response","120","137669","0.0-1.0-119.0","",""
"null","sound/msl/duck.wav","null","audio-keyboard-response","121","138180","0.0-1.0-120.0","",""
"null","sound/msl/ding.wav","null","audio-keyboard-response","122","138690","0.0-1.0-121.0","",""
"null","sound/msl/boing.wav","null","audio-keyboard-response","123","139190","0.0-1.0-122.0","",""
"null","sound/msl/cat.wav","null","audio-keyboard-response","124","139689","0.0-1.0-123.0","",""
"null","sound/msl/door_bell.wav","null","audio-keyboard-response","125","140190","0.0-1.0-124.0","",""
"null","sound/msl/clock.wav","null","audio-keyboard-response","126","140740","0.0-1.0-125.0","",""
"null","sound/msl/slide_whistle.wav","null","audio-keyboard-response","127","141239","0.0-1.0-126.0","",""
"null","sound/msl/goat.wav","null","audio-keyboard-response","128","141779","0.0-1.0-127.0","",""
"null","sound/msl/dog.wav","null","audio-keyboard-response","129","142289","0.0-1.0-128.0","",""
"null","sound/msl/organ.wav","null","audio-keyboard-response","130","142789","0.0-1.0-129.0","",""
"null","sound/msl/door.wav","null","audio-keyboard-response","131","143290","0.0-1.0-130.0","",""
"null","sound/msl/frog.wav","null","audio-keyboard-response","132","143790","0.0-1.0-131.0","",""
"null","sound/msl/cat.wav","null","audio-keyboard-response","133","144290","0.0-1.0-132.0","",""
"null","sound/msl/door_bell.wav","null","audio-keyboard-response","134","144789","0.0-1.0-133.0","",""
"null","sound/msl/clock.wav","null","audio-keyboard-response","135","145340","0.0-1.0-134.0","",""
"null","sound/msl/Water.wav","null","audio-keyboard-response","136","145849","0.0-1.0-135.0","",""
"null","sound/msl/cow.wav","null","audio-keyboard-response","137","146350","0.0-1.0-136.0","",""
"null","sound/msl/bird.wav","null","audio-keyboard-response","138","146859","0.0-1.0-137.0","",""
"null","sound/msl/organ.wav","null","audio-keyboard-response","139","147360","0.0-1.0-138.0","",""
"null","sound/msl/door.wav","null","audio-keyboard-response","140","147860","0.0-1.0-139.0","",""
"null","sound/msl/frog.wav","null","audio-keyboard-response","141","148369","0.0-1.0-140.0","",""
"null","sound/msl/duck.wav","null","audio-keyboard-response","142","148869","0.0-1.0-141.0","",""
"null","sound/msl/ding.wav","null","audio-keyboard-response","143","149378","0.0-1.0-142.0","",""
"null","sound/msl/boing.wav","null","audio-keyboard-response","144","149878","0.0-1.0-143.0","",""
"null","sound/msl/slide_whistle.wav","null","audio-keyboard-response","145","150379","0.0-1.0-144.0","",""
"null","sound/msl/goat.wav","null","audio-keyboard-response","146","150918","0.0-1.0-145.0","",""
"null","sound/msl/dog.wav","null","audio-keyboard-response","147","151419","0.0-1.0-146.0","",""
"null","sound/msl/Water.wav","null","audio-keyboard-response","148","151929","0.0-1.0-147.0","",""
"null","sound/msl/cow.wav","null","audio-keyboard-response","149","152429","0.0-1.0-148.0","",""
"null","sound/msl/bird.wav","null","audio-keyboard-response","150","152939","0.0-1.0-149.0","",""
"null","sound/msl/duck.wav","null","audio-keyboard-response","151","153449","0.0-1.0-150.0","",""
"null","sound/msl/ding.wav","null","audio-keyboard-response","152","153948","0.0-1.0-151.0","",""
"null","sound/msl/boing.wav","null","audio-keyboard-response","153","154449","0.0-1.0-152.0","",""
"null","sound/msl/cat.wav","null","audio-keyboard-response","154","154949","0.0-1.0-153.0","",""
"null","sound/msl/door_bell.wav","null","audio-keyboard-response","155","155459","0.0-1.0-154.0","",""
"null","sound/msl/clock.wav","null","audio-keyboard-response","156","156010","0.0-1.0-155.0","",""
"null","sound/msl/organ.wav","null","audio-keyboard-response","157","156510","0.0-1.0-156.0","",""
"null","sound/msl/door.wav","null","audio-keyboard-response","158","157009","0.0-1.0-157.0","",""
"null","sound/msl/frog.wav","null","audio-keyboard-response","159","157509","0.0-1.0-158.0","",""
"null","sound/msl/slide_whistle.wav","null","audio-keyboard-response","160","158010","0.0-1.0-159.0","",""
"null","sound/msl/goat.wav","null","audio-keyboard-response","161","158549","0.0-1.0-160.0","",""
"null","sound/msl/dog.wav","null","audio-keyboard-response","162","159059","0.0-1.0-161.0","",""
"null","sound/msl/cat.wav","null","audio-keyboard-response","163","159559","0.0-1.0-162.0","",""
"null","sound/msl/door_bell.wav","null","audio-keyboard-response","164","160059","0.0-1.0-163.0","",""
"null","sound/msl/clock.wav","null","audio-keyboard-response","165","160609","0.0-1.0-164.0","",""
"null","sound/msl/organ.wav","null","audio-keyboard-response","166","161109","0.0-1.0-165.0","",""
"null","sound/msl/door.wav","null","audio-keyboard-response","167","161610","0.0-1.0-166.0","",""
"null","sound/msl/frog.wav","null","audio-keyboard-response","168","162108","0.0-1.0-167.0","",""
"null","sound/msl/duck.wav","null","audio-keyboard-response","169","162619","0.0-1.0-168.0","",""
"null","sound/msl/ding.wav","null","audio-keyboard-response","170","163128","0.0-1.0-169.0","",""
"null","sound/msl/boing.wav","null","audio-keyboard-response","171","163629","0.0-1.0-170.0","",""
"null","sound/msl/Water.wav","null","audio-keyboard-response","172","164139","0.0-1.0-171.0","",""
"null","sound/msl/cow.wav","null","audio-keyboard-response","173","164649","0.0-1.0-172.0","",""
"null","sound/msl/bird.wav","null","audio-keyboard-response","174","165149","0.0-1.0-173.0","",""
"null","sound/msl/slide_whistle.wav","null","audio-keyboard-response","175","165648","0.0-1.0-174.0","",""
"null","sound/msl/goat.wav","null","audio-keyboard-response","176","166189","0.0-1.0-175.0","",""
"null","sound/msl/dog.wav","null","audio-keyboard-response","177","166699","0.0-1.0-176.0","",""
"null","sound/msl/cat.wav","null","audio-keyboard-response","178","167199","0.0-1.0-177.0","",""
"null","sound/msl/door_bell.wav","null","audio-keyboard-response","179","167699","0.0-1.0-178.0","",""
"null","sound/msl/clock.wav","null","audio-keyboard-response","180","168248","0.0-1.0-179.0","",""
"null","sound/msl/Water.wav","null","audio-keyboard-response","181","168759","0.0-1.0-180.0","",""
"null","sound/msl/cow.wav","null","audio-keyboard-response","182","169259","0.0-1.0-181.0","",""
"null","sound/msl/bird.wav","null","audio-keyboard-response","183","169770","0.0-1.0-182.0","",""
"null","sound/msl/organ.wav","null","audio-keyboard-response","184","170269","0.0-1.0-183.0","",""
"null","sound/msl/door.wav","null","audio-keyboard-response","185","170769","0.0-1.0-184.0","",""
"null","sound/msl/frog.wav","null","audio-keyboard-response","186","171269","0.0-1.0-185.0","",""
"null","sound/msl/duck.wav","null","audio-keyboard-response","187","171778","0.0-1.0-186.0","",""
"null","sound/msl/ding.wav","null","audio-keyboard-response","188","172290","0.0-1.0-187.0","",""
"null","sound/msl/boing.wav","null","audio-keyboard-response","189","172789","0.0-1.0-188.0","",""
"null","sound/msl/slide_whistle.wav","null","audio-keyboard-response","190","173289","0.0-1.0-189.0","",""
"null","sound/msl/goat.wav","null","audio-keyboard-response","191","173829","0.0-1.0-190.0","",""
"null","sound/msl/dog.wav","null","audio-keyboard-response","192","174339","0.0-1.0-191.0","",""
"null","sound/msl/cat.wav","null","audio-keyboard-response","193","174838","0.0-1.0-192.0","",""
"null","sound/msl/door_bell.wav","null","audio-keyboard-response","194","175339","0.0-1.0-193.0","",""
"null","sound/msl/clock.wav","null","audio-keyboard-response","195","175889","0.0-1.0-194.0","",""
"null","sound/msl/Water.wav","null","audio-keyboard-response","196","176398","0.0-1.0-195.0","",""
"null","sound/msl/cow.wav","null","audio-keyboard-response","197","176900","0.0-1.0-196.0","",""
"null","sound/msl/bird.wav","null","audio-keyboard-response","198","177410","0.0-1.0-197.0","",""
"null","sound/msl/duck.wav","null","audio-keyboard-response","199","177909","0.0-1.0-198.0","",""
"null","sound/msl/ding.wav","null","audio-keyboard-response","200","178419","0.0-1.0-199.0","",""
"null","sound/msl/boing.wav","null","audio-keyboard-response","201","178918","0.0-1.0-200.0","",""
"null","sound/msl/organ.wav","null","audio-keyboard-response","202","179419","0.0-1.0-201.0","",""
"null","sound/msl/door.wav","null","audio-keyboard-response","203","179918","0.0-1.0-202.0","",""
"null","sound/msl/frog.wav","null","audio-keyboard-response","204","180419","0.0-1.0-203.0","",""
"null","sound/msl/slide_whistle.wav","null","audio-keyboard-response","205","180919","0.0-1.0-204.0","",""
"null","sound/msl/goat.wav","null","audio-keyboard-response","206","181458","0.0-1.0-205.0","",""
"null","sound/msl/dog.wav","null","audio-keyboard-response","207","181968","0.0-1.0-206.0","",""
"null","sound/msl/cat.wav","null","audio-keyboard-response","208","182469","0.0-1.0-207.0","",""
"null","sound/msl/door_bell.wav","null","audio-keyboard-response","209","182978","0.0-1.0-208.0","",""
"null","sound/msl/clock.wav","null","audio-keyboard-response","210","183529","0.0-1.0-209.0","",""
"null","sound/msl/duck.wav","null","audio-keyboard-response","211","184029","0.0-1.0-210.0","",""
"null","sound/msl/ding.wav","null","audio-keyboard-response","212","184539","0.0-1.0-211.0","",""
"null","sound/msl/boing.wav","null","audio-keyboard-response","213","185039","0.0-1.0-212.0","",""
"null","sound/msl/slide_whistle.wav","null","audio-keyboard-response","214","185539","0.0-1.0-213.0","",""
"null","sound/msl/goat.wav","null","audio-keyboard-response","215","186080","0.0-1.0-214.0","",""
"null","sound/msl/dog.wav","null","audio-keyboard-response","216","186579","0.0-1.0-215.0","",""
"null","sound/msl/Water.wav","null","audio-keyboard-response","217","187088","0.0-1.0-216.0","",""
"null","sound/msl/cow.wav","null","audio-keyboard-response","218","187589","0.0-1.0-217.0","",""
"null","sound/msl/bird.wav","null","audio-keyboard-response","219","188100","0.0-1.0-218.0","",""
"null","sound/msl/organ.wav","null","audio-keyboard-response","220","188599","0.0-1.0-219.0","",""
"null","sound/msl/door.wav","null","audio-keyboard-response","221","189098","0.0-1.0-220.0","",""
"null","sound/msl/frog.wav","null","audio-keyboard-response","222","189609","0.0-1.0-221.0","",""
"null","sound/msl/cat.wav","null","audio-keyboard-response","223","190108","0.0-1.0-222.0","",""
"null","sound/msl/door_bell.wav","null","audio-keyboard-response","224","190619","0.0-1.0-223.0","",""
"null","sound/msl/clock.wav","null","audio-keyboard-response","225","191169","0.0-1.0-224.0","",""
"null","sound/msl/Water.wav","null","audio-keyboard-response","226","191678","0.0-1.0-225.0","",""
"null","sound/msl/cow.wav","null","audio-keyboard-response","227","192178","0.0-1.0-226.0","",""
"null","sound/msl/bird.wav","null","audio-keyboard-response","228","192689","0.0-1.0-227.0","",""
"null","sound/msl/slide_whistle.wav","null","audio-keyboard-response","229","193188","0.0-1.0-228.0","",""
"null","sound/msl/goat.wav","null","audio-keyboard-response","230","193729","0.0-1.0-229.0","",""
"null","sound/msl/dog.wav","null","audio-keyboard-response","231","194228","0.0-1.0-230.0","",""
"null","sound/msl/Water.wav","null","audio-keyboard-response","232","194739","0.0-1.0-231.0","",""
"null","sound/msl/cow.wav","null","audio-keyboard-response","233","195249","0.0-1.0-232.0","",""
"null","sound/msl/bird.wav","null","audio-keyboard-response","234","195749","0.0-1.0-233.0","",""
"null","sound/msl/cat.wav","null","audio-keyboard-response","235","196249","0.0-1.0-234.0","",""
"null","sound/msl/door_bell.wav","null","audio-keyboard-response","236","196749","0.0-1.0-235.0","",""
"null","sound/msl/clock.wav","null","audio-keyboard-response","237","197299","0.0-1.0-236.0","",""
"null","sound/msl/organ.wav","null","audio-keyboard-response","238","197799","0.0-1.0-237.0","",""
"null","sound/msl/door.wav","null","audio-keyboard-response","239","198299","0.0-1.0-238.0","",""
"null","sound/msl/frog.wav","null","audio-keyboard-response","240","198809","0.0-1.0-239.0","",""
"null","sound/msl/duck.wav","null","audio-keyboard-response","241","199309","0.0-1.0-240.0","",""
"null","sound/msl/ding.wav","null","audio-keyboard-response","242","199819","0.0-1.0-241.0","",""
"null","sound/msl/boing.wav","null","audio-keyboard-response","243","200319","0.0-1.0-242.0","",""
"null","sound/msl/slide_whistle.wav","null","audio-keyboard-response","244","200818","0.0-1.0-243.0","",""
"null","sound/msl/goat.wav","null","audio-keyboard-response","245","201357","0.0-1.0-244.0","",""
"null","sound/msl/dog.wav","null","audio-keyboard-response","246","201858","0.0-1.0-245.0","",""
"null","sound/msl/cat.wav","null","audio-keyboard-response","247","202359","0.0-1.0-246.0","",""
"null","sound/msl/door_bell.wav","null","audio-keyboard-response","248","202858","0.0-1.0-247.0","",""
"null","sound/msl/clock.wav","null","audio-keyboard-response","249","203409","0.0-1.0-248.0","",""
"null","sound/msl/organ.wav","null","audio-keyboard-response","250","203909","0.0-1.0-249.0","",""
"null","sound/msl/door.wav","null","audio-keyboard-response","251","204409","0.0-1.0-250.0","",""
"null","sound/msl/frog.wav","null","audio-keyboard-response","252","204909","0.0-1.0-251.0","",""
"null","sound/msl/duck.wav","null","audio-keyboard-response","253","205419","0.0-1.0-252.0","",""
"null","sound/msl/ding.wav","null","audio-keyboard-response","254","205929","0.0-1.0-253.0","",""
"null","sound/msl/boing.wav","null","audio-keyboard-response","255","206428","0.0-1.0-254.0","",""
"null","sound/msl/Water.wav","null","audio-keyboard-response","256","206939","0.0-1.0-255.0","",""
"null","sound/msl/cow.wav","null","audio-keyboard-response","257","207449","0.0-1.0-256.0","",""
"null","sound/msl/bird.wav","null","audio-keyboard-response","258","207949","0.0-1.0-257.0","",""
"null","sound/msl/slide_whistle.wav","null","audio-keyboard-response","259","208449","0.0-1.0-258.0","",""
"null","sound/msl/goat.wav","null","audio-keyboard-response","260","208989","0.0-1.0-259.0","",""
"null","sound/msl/dog.wav","null","audio-keyboard-response","261","209500","0.0-1.0-260.0","",""
"null","sound/msl/duck.wav","null","audio-keyboard-response","262","210008","0.0-1.0-261.0","",""
"null","sound/msl/ding.wav","null","audio-keyboard-response","263","210509","0.0-1.0-262.0","",""
"null","sound/msl/boing.wav","null","audio-keyboard-response","264","211010","0.0-1.0-263.0","",""
"null","sound/msl/organ.wav","null","audio-keyboard-response","265","211510","0.0-1.0-264.0","",""
"null","sound/msl/door.wav","null","audio-keyboard-response","266","212010","0.0-1.0-265.0","",""
"null","sound/msl/frog.wav","null","audio-keyboard-response","267","212510","0.0-1.0-266.0","",""
"null","sound/msl/Water.wav","null","audio-keyboard-response","268","213020","0.0-1.0-267.0","",""
"null","sound/msl/cow.wav","null","audio-keyboard-response","269","213529","0.0-1.0-268.0","",""
"null","sound/msl/bird.wav","null","audio-keyboard-response","270","214028","0.0-1.0-269.0","",""
"null","sound/msl/cat.wav","null","audio-keyboard-response","271","214529","0.0-1.0-270.0","",""
"null","sound/msl/door_bell.wav","null","audio-keyboard-response","272","215030","0.0-1.0-271.0","",""
"null","sound/msl/clock.wav","null","audio-keyboard-response","273","215579","0.0-1.0-272.0","",""
"null","sound/msl/slide_whistle.wav","null","audio-keyboard-response","274","216079","0.0-1.0-273.0","",""
"null","sound/msl/goat.wav","null","audio-keyboard-response","275","216620","0.0-1.0-274.0","",""
"null","sound/msl/dog.wav","null","audio-keyboard-response","276","217130","0.0-1.0-275.0","",""
"null","sound/msl/duck.wav","null","audio-keyboard-response","277","217629","0.0-1.0-276.0","",""
"null","sound/msl/ding.wav","null","audio-keyboard-response","278","218139","0.0-1.0-277.0","",""
"null","sound/msl/boing.wav","null","audio-keyboard-response","279","218639","0.0-1.0-278.0","",""
"null","sound/msl/organ.wav","null","audio-keyboard-response","280","219140","0.0-1.0-279.0","",""
"null","sound/msl/door.wav","null","audio-keyboard-response","281","219639","0.0-1.0-280.0","",""
"null","sound/msl/frog.wav","null","audio-keyboard-response","282","220139","0.0-1.0-281.0","",""
"null","sound/msl/cat.wav","null","audio-keyboard-response","283","220639","0.0-1.0-282.0","",""
"null","sound/msl/door_bell.wav","null","audio-keyboard-response","284","221139","0.0-1.0-283.0","",""
"null","sound/msl/clock.wav","null","audio-keyboard-response","285","221690","0.0-1.0-284.0","",""
"null","sound/msl/Water.wav","null","audio-keyboard-response","286","222200","0.0-1.0-285.0","",""
"null","sound/msl/cow.wav","null","audio-keyboard-response","287","222699","0.0-1.0-286.0","",""
"null","sound/msl/bird.wav","null","audio-keyboard-response","288","223210","0.0-1.0-287.0","",""
"null","sound/msl/slide_whistle.wav","null","audio-keyboard-response","289","223709","0.0-1.0-288.0","",""
"null","sound/msl/goat.wav","null","audio-keyboard-response","290","224250","0.0-1.0-289.0","",""
"null","sound/msl/dog.wav","null","audio-keyboard-response","291","224750","0.0-1.0-290.0","",""
"null","sound/msl/organ.wav","null","audio-keyboard-response","292","225249","0.0-1.0-291.0","",""
"null","sound/msl/door.wav","null","audio-keyboard-response","293","225749","0.0-1.0-292.0","",""
"null","sound/msl/frog.wav","null","audio-keyboard-response","294","226259","0.0-1.0-293.0","",""
"null","sound/msl/duck.wav","null","audio-keyboard-response","295","226769","0.0-1.0-294.0","",""
"null","sound/msl/ding.wav","null","audio-keyboard-response","296","227269","0.0-1.0-295.0","",""
"null","sound/msl/boing.wav","null","audio-keyboard-response","297","227770","0.0-1.0-296.0","",""
"null","sound/msl/slide_whistle.wav","null","audio-keyboard-response","298","228269","0.0-1.0-297.0","",""
"null","sound/msl/goat.wav","null","audio-keyboard-response","299","228809","0.0-1.0-298.0","",""
"null","sound/msl/dog.wav","null","audio-keyboard-response","300","229310","0.0-1.0-299.0","",""
"null","sound/msl/cat.wav","null","audio-keyboard-response","301","229810","0.0-1.0-300.0","",""
"null","sound/msl/door_bell.wav","null","audio-keyboard-response","302","230309","0.0-1.0-301.0","",""
"null","sound/msl/clock.wav","null","audio-keyboard-response","303","230859","0.0-1.0-302.0","",""
"null","sound/msl/organ.wav","null","audio-keyboard-response","304","231359","0.0-1.0-303.0","",""
"null","sound/msl/door.wav","null","audio-keyboard-response","305","231859","0.0-1.0-304.0","",""
"null","sound/msl/frog.wav","null","audio-keyboard-response","306","232368","0.0-1.0-305.0","",""
"null","sound/msl/Water.wav","null","audio-keyboard-response","307","232879","0.0-1.0-306.0","",""
"null","sound/msl/cow.wav","null","audio-keyboard-response","308","233380","0.0-1.0-307.0","",""
"null","sound/msl/bird.wav","null","audio-keyboard-response","309","233889","0.0-1.0-308.0","",""
"null","sound/msl/duck.wav","null","audio-keyboard-response","310","234390","0.0-1.0-309.0","",""
"null","sound/msl/ding.wav","null","audio-keyboard-response","311","234899","0.0-1.0-310.0","",""
"null","sound/msl/boing.wav","null","audio-keyboard-response","312","235399","0.0-1.0-311.0","",""
"null","sound/msl/slide_whistle.wav","null","audio-keyboard-response","313","235899","0.0-1.0-312.0","",""
"null","sound/msl/goat.wav","null","audio-keyboard-response","314","236439","0.0-1.0-313.0","",""
"null","sound/msl/dog.wav","null","audio-keyboard-response","315","236939","0.0-1.0-314.0","",""
"null","sound/msl/cat.wav","null","audio-keyboard-response","316","237439","0.0-1.0-315.0","",""
"null","sound/msl/door_bell.wav","null","audio-keyboard-response","317","237939","0.0-1.0-316.0","",""
"null","sound/msl/clock.wav","null","audio-keyboard-response","318","238490","0.0-1.0-317.0","",""
"null","sound/msl/organ.wav","null","audio-keyboard-response","319","238990","0.0-1.0-318.0","",""
"null","sound/msl/door.wav","null","audio-keyboard-response","320","239489","0.0-1.0-319.0","",""
"null","sound/msl/frog.wav","null","audio-keyboard-response","321","239989","0.0-1.0-320.0","",""
"null","sound/msl/duck.wav","null","audio-keyboard-response","322","240500","0.0-1.0-321.0","",""
"null","sound/msl/ding.wav","null","audio-keyboard-response","323","241009","0.0-1.0-322.0","",""
"null","sound/msl/boing.wav","null","audio-keyboard-response","324","241510","0.0-1.0-323.0","",""
"null","sound/msl/cat.wav","null","audio-keyboard-response","325","242009","0.0-1.0-324.0","",""
"null","sound/msl/door_bell.wav","null","audio-keyboard-response","326","242510","0.0-1.0-325.0","",""
"null","sound/msl/clock.wav","null","audio-keyboard-response","327","243059","0.0-1.0-326.0","",""
"null","sound/msl/Water.wav","null","audio-keyboard-response","328","243569","0.0-1.0-327.0","",""
"null","sound/msl/cow.wav","null","audio-keyboard-response","329","244069","0.0-1.0-328.0","",""
"null","sound/msl/bird.wav","null","audio-keyboard-response","330","244579","0.0-1.0-329.0","",""
"null","sound/msl/slide_whistle.wav","null","audio-keyboard-response","331","245079","0.0-1.0-330.0","",""
"null","sound/msl/goat.wav","null","audio-keyboard-response","332","245620","0.0-1.0-331.0","",""
"null","sound/msl/dog.wav","null","audio-keyboard-response","333","246130","0.0-1.0-332.0","",""
"null","sound/msl/organ.wav","null","audio-keyboard-response","334","246630","0.0-1.0-333.0","",""
"null","sound/msl/door.wav","null","audio-keyboard-response","335","247130","0.0-1.0-334.0","",""
"null","sound/msl/frog.wav","null","audio-keyboard-response","336","247630","0.0-1.0-335.0","",""
"null","sound/msl/Water.wav","null","audio-keyboard-response","337","248138","0.0-1.0-336.0","",""
"null","sound/msl/cow.wav","null","audio-keyboard-response","338","248649","0.0-1.0-337.0","",""
"null","sound/msl/bird.wav","null","audio-keyboard-response","339","249149","0.0-1.0-338.0","",""
"null","sound/msl/duck.wav","null","audio-keyboard-response","340","249659","0.0-1.0-339.0","",""
"null","sound/msl/ding.wav","null","audio-keyboard-response","341","250170","0.0-1.0-340.0","",""
"null","sound/msl/boing.wav","null","audio-keyboard-response","342","250670","0.0-1.0-341.0","",""
"null","sound/msl/organ.wav","null","audio-keyboard-response","343","251170","0.0-1.0-342.0","",""
"null","sound/msl/door.wav","null","audio-keyboard-response","344","251669","0.0-1.0-343.0","",""
"null","sound/msl/frog.wav","null","audio-keyboard-response","345","252179","0.0-1.0-344.0","",""
"null","sound/msl/duck.wav","null","audio-keyboard-response","346","252688","0.0-1.0-345.0","",""
"null","sound/msl/ding.wav","null","audio-keyboard-response","347","253189","0.0-1.0-346.0","",""
"null","sound/msl/boing.wav","null","audio-keyboard-response","348","253688","0.0-1.0-347.0","",""
"null","sound/msl/Water.wav","null","audio-keyboard-response","349","254200","0.0-1.0-348.0","",""
"null","sound/msl/cow.wav","null","audio-keyboard-response","350","254700","0.0-1.0-349.0","",""
"null","sound/msl/bird.wav","null","audio-keyboard-response","351","255209","0.0-1.0-350.0","",""
"null","sound/msl/slide_whistle.wav","null","audio-keyboard-response","352","255709","0.0-1.0-351.0","",""
"null","sound/msl/goat.wav","null","audio-keyboard-response","353","256250","0.0-1.0-352.0","",""
"null","sound/msl/dog.wav","null","audio-keyboard-response","354","256749","0.0-1.0-353.0","",""
"null","sound/msl/organ.wav","null","audio-keyboard-response","355","257249","0.0-1.0-354.0","",""
"null","sound/msl/door.wav","null","audio-keyboard-response","356","257750","0.0-1.0-355.0","",""
"null","sound/msl/frog.wav","null","audio-keyboard-response","357","258259","0.0-1.0-356.0","",""
"null","sound/msl/duck.wav","null","audio-keyboard-response","358","258769","0.0-1.0-357.0","",""
"null","sound/msl/ding.wav","null","audio-keyboard-response","359","259269","0.0-1.0-358.0","",""
"null","sound/msl/boing.wav","null","audio-keyboard-response","360","259770","0.0-1.0-359.0","",""
"18267","Instructions2-eng.png","49","image-keyboard-response","361","278038","0.0-2.0","",""
"null","sound/msl/organ.wav","null","audio-keyboard-response","362","278539","0.0-3.0-0.0","",""
"null","sound/msl/door.wav","null","audio-keyboard-response","363","279039","0.0-3.0-1.0","",""
"null","sound/msl/frog.wav","null","audio-keyboard-response","364","279539","0.0-3.0-2.0","",""
"null","sound/asl/silence.wav","null","audio-keyboard-response","365","280047","0.0-3.0-3.0","",""
"null","sound/msl/slide_whistle.wav","null","audio-keyboard-response","366","280538","0.0-3.0-4.0","",""
"null","sound/msl/ding.wav","null","audio-keyboard-response","367","281049","0.0-3.0-5.0","",""
"null","sound/msl/clock.wav","null","audio-keyboard-response","368","281600","0.0-3.0-6.0","",""
"1072","sound/asl/silence.wav","49","audio-keyboard-response","369","282671","0.0-3.0-7.0","true",""
"null","sound/msl/Water.wav","null","audio-keyboard-response","370","283179","0.0-4.0-0.0","",""
"null","sound/msl/door.wav","null","audio-keyboard-response","371","283679","0.0-4.0-1.0","",""
"null","sound/msl/dog.wav","null","audio-keyboard-response","372","284179","0.0-4.0-2.0","",""
"null","sound/asl/silence.wav","null","audio-keyboard-response","373","284683","0.0-4.0-3.0","",""
"null","sound/msl/Water.wav","null","audio-keyboard-response","374","285188","0.0-4.0-4.0","",""
"null","sound/msl/cow.wav","null","audio-keyboard-response","375","285699","0.0-4.0-5.0","",""
"null","sound/msl/bird.wav","null","audio-keyboard-response","376","286209","0.0-4.0-6.0","",""
"560","sound/asl/silence.wav","50","audio-keyboard-response","377","286777","0.0-4.0-7.0","true",""
"null","sound/msl/cat.wav","null","audio-keyboard-response","378","287280","0.0-5.0-0.0","",""
"null","sound/msl/cow.wav","null","audio-keyboard-response","379","287780","0.0-5.0-1.0","",""
"null","sound/msl/frog.wav","null","audio-keyboard-response","380","288289","0.0-5.0-2.0","",""
"null","sound/asl/silence.wav","null","audio-keyboard-response","381","288797","0.0-5.0-3.0","",""
"null","sound/msl/duck.wav","null","audio-keyboard-response","382","289299","0.0-5.0-4.0","",""
"null","sound/msl/ding.wav","null","audio-keyboard-response","383","289810","0.0-5.0-5.0","",""
"null","sound/msl/boing.wav","null","audio-keyboard-response","384","290309","0.0-5.0-6.0","",""
"488","sound/asl/silence.wav","50","audio-keyboard-response","385","290802","0.0-5.0-7.0","true",""
"null","sound/msl/Water.wav","null","audio-keyboard-response","386","291309","0.0-6.0-0.0","",""
"null","sound/msl/cow.wav","null","audio-keyboard-response","387","291819","0.0-6.0-1.0","",""
"null","sound/msl/bird.wav","null","audio-keyboard-response","388","292329","0.0-6.0-2.0","",""
"null","sound/asl/silence.wav","null","audio-keyboard-response","389","292837","0.0-6.0-3.0","",""
"null","sound/msl/duck.wav","null","audio-keyboard-response","390","293339","0.0-6.0-4.0","",""
"null","sound/msl/door_bell.wav","null","audio-keyboard-response","391","293849","0.0-6.0-5.0","",""
"null","sound/msl/bird.wav","null","audio-keyboard-response","392","294349","0.0-6.0-6.0","",""
"1069","sound/asl/silence.wav","49","audio-keyboard-response","393","295425","0.0-6.0-7.0","true",""
"null","sound/msl/cat.wav","null","audio-keyboard-response","394","295919","0.0-7.0-0.0","",""
"null","sound/msl/door_bell.wav","null","audio-keyboard-response","395","296419","0.0-7.0-1.0","",""
"null","sound/msl/clock.wav","null","audio-keyboard-response","396","296969","0.0-7.0-2.0","",""
"null","sound/asl/silence.wav","null","audio-keyboard-response","397","297477","0.0-7.0-3.0","",""
"null","sound/msl/duck.wav","null","audio-keyboard-response","398","297979","0.0-7.0-4.0","",""
"null","sound/msl/door_bell.wav","null","audio-keyboard-response","399","298489","0.0-7.0-5.0","",""
"null","sound/msl/bird.wav","null","audio-keyboard-response","400","298989","0.0-7.0-6.0","",""
"688","sound/asl/silence.wav","49","audio-keyboard-response","401","299687","0.0-7.0-7.0","true",""
"null","sound/msl/Water.wav","null","audio-keyboard-response","402","300189","0.0-8.0-0.0","",""
"null","sound/msl/door.wav","null","audio-keyboard-response","403","300689","0.0-8.0-1.0","",""
"null","sound/msl/dog.wav","null","audio-keyboard-response","404","301188","0.0-8.0-2.0","",""
"null","sound/asl/silence.wav","null","audio-keyboard-response","405","301697","0.0-8.0-3.0","",""
"null","sound/msl/organ.wav","null","audio-keyboard-response","406","302189","0.0-8.0-4.0","",""
"null","sound/msl/door.wav","null","audio-keyboard-response","407","302689","0.0-8.0-5.0","",""
"null","sound/msl/frog.wav","null","audio-keyboard-response","408","303189","0.0-8.0-6.0","",""
"429","sound/asl/silence.wav","50","audio-keyboard-response","409","303627","0.0-8.0-7.0","true",""
"null","sound/msl/slide_whistle.wav","null","audio-keyboard-response","410","304119","0.0-9.0-0.0","",""
"null","sound/msl/goat.wav","null","audio-keyboard-response","411","304659","0.0-9.0-1.0","",""
"null","sound/msl/dog.wav","null","audio-keyboard-response","412","305168","0.0-9.0-2.0","",""
"null","sound/asl/silence.wav","null","audio-keyboard-response","413","305687","0.0-9.0-3.0","",""
"null","sound/msl/cat.wav","null","audio-keyboard-response","414","306180","0.0-9.0-4.0","",""
"null","sound/msl/cow.wav","null","audio-keyboard-response","415","306689","0.0-9.0-5.0","",""
"null","sound/msl/frog.wav","null","audio-keyboard-response","416","307189","0.0-9.0-6.0","",""
"1109","sound/asl/silence.wav","50","audio-keyboard-response","417","308299","0.0-9.0-7.0","false",""
"null","sound/msl/organ.wav","null","audio-keyboard-response","418","308799","0.0-10.0-0.0","",""
"null","sound/msl/goat.wav","null","audio-keyboard-response","419","309339","0.0-10.0-1.0","",""
"null","sound/msl/boing.wav","null","audio-keyboard-response","420","309839","0.0-10.0-2.0","",""
"null","sound/asl/silence.wav","null","audio-keyboard-response","421","310347","0.0-10.0-3.0","",""
"null","sound/msl/cat.wav","null","audio-keyboard-response","422","310838","0.0-10.0-4.0","",""
"null","sound/msl/door_bell.wav","null","audio-keyboard-response","423","311339","0.0-10.0-5.0","",""
"null","sound/msl/clock.wav","null","audio-keyboard-response","424","311889","0.0-10.0-6.0","",""
"160","sound/asl/silence.wav","50","audio-keyboard-response","425","312050","0.0-10.0-7.0","true",""
"null","sound/msl/Water.wav","null","audio-keyboard-response","426","312559","0.0-11.0-0.0","",""
"null","sound/msl/cow.wav","null","audio-keyboard-response","427","313059","0.0-11.0-1.0","",""
"null","sound/msl/bird.wav","null","audio-keyboard-response","428","313569","0.0-11.0-2.0","",""
"null","sound/asl/silence.wav","null","audio-keyboard-response","429","314087","0.0-11.0-3.0","",""
"null","sound/msl/slide_whistle.wav","null","audio-keyboard-response","430","314579","0.0-11.0-4.0","",""
"null","sound/msl/ding.wav","null","audio-keyboard-response","431","315089","0.0-11.0-5.0","",""
"null","sound/msl/clock.wav","null","audio-keyboard-response","432","315639","0.0-11.0-6.0","",""
"301","sound/asl/silence.wav","50","audio-keyboard-response","433","315949","0.0-11.0-7.0","false",""
"null","sound/msl/cat.wav","null","audio-keyboard-response","434","316449","0.0-12.0-0.0","",""
"null","sound/msl/door_bell.wav","null","audio-keyboard-response","435","316950","0.0-12.0-1.0","",""
"null","sound/msl/clock.wav","null","audio-keyboard-response","436","317499","0.0-12.0-2.0","",""
"null","sound/asl/silence.wav","null","audio-keyboard-response","437","318007","0.0-12.0-3.0","",""
"null","sound/msl/Water.wav","null","audio-keyboard-response","438","318509","0.0-12.0-4.0","",""
"null","sound/msl/door.wav","null","audio-keyboard-response","439","319009","0.0-12.0-5.0","",""
"null","sound/msl/dog.wav","null","audio-keyboard-response","440","319509","0.0-12.0-6.0","",""
"379","sound/asl/silence.wav","50","audio-keyboard-response","441","319892","0.0-12.0-7.0","false",""
"null","sound/msl/Water.wav","null","audio-keyboard-response","442","320399","0.0-13.0-0.0","",""
"null","sound/msl/door.wav","null","audio-keyboard-response","443","320900","0.0-13.0-1.0","",""
"null","sound/msl/dog.wav","null","audio-keyboard-response","444","321410","0.0-13.0-2.0","",""
"null","sound/asl/silence.wav","null","audio-keyboard-response","445","321927","0.0-13.0-3.0","",""
"null","sound/msl/slide_whistle.wav","null","audio-keyboard-response","446","322420","0.0-13.0-4.0","",""
"null","sound/msl/goat.wav","null","audio-keyboard-response","447","322959","0.0-13.0-5.0","",""
"null","sound/msl/dog.wav","null","audio-keyboard-response","448","323459","0.0-13.0-6.0","",""
"339","sound/asl/silence.wav","49","audio-keyboard-response","449","323800","0.0-13.0-7.0","false",""
"null","sound/msl/cat.wav","null","audio-keyboard-response","450","324299","0.0-14.0-0.0","",""
"null","sound/msl/door_bell.wav","null","audio-keyboard-response","451","324808","0.0-14.0-1.0","",""
"null","sound/msl/clock.wav","null","audio-keyboard-response","452","325359","0.0-14.0-2.0","",""
"null","sound/asl/silence.wav","null","audio-keyboard-response","453","325867","0.0-14.0-3.0","",""
"null","sound/msl/cat.wav","null","audio-keyboard-response","454","326359","0.0-14.0-4.0","",""
"null","sound/msl/cow.wav","null","audio-keyboard-response","455","326858","0.0-14.0-5.0","",""
"null","sound/msl/frog.wav","null","audio-keyboard-response","456","327369","0.0-14.0-6.0","",""
"280","sound/asl/silence.wav","50","audio-keyboard-response","457","327655","0.0-14.0-7.0","false",""
"null","sound/msl/duck.wav","null","audio-keyboard-response","458","328149","0.0-15.0-0.0","",""
"null","sound/msl/door_bell.wav","null","audio-keyboard-response","459","328658","0.0-15.0-1.0","",""
"null","sound/msl/bird.wav","null","audio-keyboard-response","460","329168","0.0-15.0-2.0","",""
"null","sound/asl/silence.wav","null","audio-keyboard-response","461","329688","0.0-15.0-3.0","",""
"null","sound/msl/organ.wav","null","audio-keyboard-response","462","330179","0.0-15.0-4.0","",""
"null","sound/msl/door.wav","null","audio-keyboard-response","463","330679","0.0-15.0-5.0","",""
"null","sound/msl/frog.wav","null","audio-keyboard-response","464","331179","0.0-15.0-6.0","",""
"371","sound/asl/silence.wav","50","audio-keyboard-response","465","331558","0.0-15.0-7.0","true",""
"null","sound/msl/slide_whistle.wav","null","audio-keyboard-response","466","332059","0.0-16.0-0.0","",""
"null","sound/msl/goat.wav","null","audio-keyboard-response","467","332599","0.0-16.0-1.0","",""
"null","sound/msl/dog.wav","null","audio-keyboard-response","468","333099","0.0-16.0-2.0","",""
"null","sound/asl/silence.wav","null","audio-keyboard-response","469","333607","0.0-16.0-3.0","",""
"null","sound/msl/slide_whistle.wav","null","audio-keyboard-response","470","334099","0.0-16.0-4.0","",""
"null","sound/msl/ding.wav","null","audio-keyboard-response","471","334609","0.0-16.0-5.0","",""
"null","sound/msl/clock.wav","null","audio-keyboard-response","472","335158","0.0-16.0-6.0","",""
"381","sound/asl/silence.wav","49","audio-keyboard-response","473","335541","0.0-16.0-7.0","true",""
"null","sound/msl/cat.wav","null","audio-keyboard-response","474","336039","0.0-17.0-0.0","",""
"null","sound/msl/cow.wav","null","audio-keyboard-response","475","336539","0.0-17.0-1.0","",""
"null","sound/msl/frog.wav","null","audio-keyboard-response","476","337049","0.0-17.0-2.0","",""
"null","sound/asl/silence.wav","null","audio-keyboard-response","477","337567","0.0-17.0-3.0","",""
"null","sound/msl/Water.wav","null","audio-keyboard-response","478","338070","0.0-17.0-4.0","",""
"null","sound/msl/cow.wav","null","audio-keyboard-response","479","338579","0.0-17.0-5.0","",""
"null","sound/msl/bird.wav","null","audio-keyboard-response","480","339090","0.0-17.0-6.0","",""
"149","sound/asl/silence.wav","50","audio-keyboard-response","481","339247","0.0-17.0-7.0","true",""
"null","sound/msl/duck.wav","null","audio-keyboard-response","482","339739","0.0-18.0-0.0","",""
"null","sound/msl/ding.wav","null","audio-keyboard-response","483","340250","0.0-18.0-1.0","",""
"null","sound/msl/boing.wav","null","audio-keyboard-response","484","340749","0.0-18.0-2.0","",""
"null","sound/asl/silence.wav","null","audio-keyboard-response","485","341267","0.0-18.0-3.0","",""
"null","sound/msl/organ.wav","null","audio-keyboard-response","486","341759","0.0-18.0-4.0","",""
"null","sound/msl/goat.wav","null","audio-keyboard-response","487","342299","0.0-18.0-5.0","",""
"null","sound/msl/boing.wav","null","audio-keyboard-response","488","342800","0.0-18.0-6.0","",""
"232","sound/asl/silence.wav","49","audio-keyboard-response","489","343039","0.0-18.0-7.0","true",""
"null","sound/msl/duck.wav","null","audio-keyboard-response","490","343539","0.0-19.0-0.0","",""
"null","sound/msl/ding.wav","null","audio-keyboard-response","491","344050","0.0-19.0-1.0","",""
"null","sound/msl/boing.wav","null","audio-keyboard-response","492","344549","0.0-19.0-2.0","",""
"null","sound/asl/silence.wav","null","audio-keyboard-response","493","345057","0.0-19.0-3.0","",""
"null","sound/msl/slide_whistle.wav","null","audio-keyboard-response","494","345549","0.0-19.0-4.0","",""
"null","sound/msl/ding.wav","null","audio-keyboard-response","495","346060","0.0-19.0-5.0","",""
"null","sound/msl/clock.wav","null","audio-keyboard-response","496","346610","0.0-19.0-6.0","",""
"261","sound/asl/silence.wav","50","audio-keyboard-response","497","346879","0.0-19.0-7.0","false",""
"null","sound/msl/cat.wav","null","audio-keyboard-response","498","347380","0.0-20.0-0.0","",""
"null","sound/msl/cow.wav","null","audio-keyboard-response","499","347890","0.0-20.0-1.0","",""
"null","sound/msl/frog.wav","null","audio-keyboard-response","500","348390","0.0-20.0-2.0","",""
"null","sound/asl/silence.wav","null","audio-keyboard-response","501","348897","0.0-20.0-3.0","",""
"null","sound/msl/organ.wav","null","audio-keyboard-response","502","349389","0.0-20.0-4.0","",""
"null","sound/msl/door.wav","null","audio-keyboard-response","503","349890","0.0-20.0-5.0","",""
"null","sound/msl/frog.wav","null","audio-keyboard-response","504","350389","0.0-20.0-6.0","",""
"400","sound/asl/silence.wav","49","audio-keyboard-response","505","350794","0.0-20.0-7.0","false",""
"null","sound/msl/slide_whistle.wav","null","audio-keyboard-response","506","351289","0.0-21.0-0.0","",""
"null","sound/msl/goat.wav","null","audio-keyboard-response","507","351829","0.0-21.0-1.0","",""
"null","sound/msl/dog.wav","null","audio-keyboard-response","508","352339","0.0-21.0-2.0","",""
"null","sound/asl/silence.wav","null","audio-keyboard-response","509","352845","0.0-21.0-3.0","",""
"null","sound/msl/organ.wav","null","audio-keyboard-response","510","353339","0.0-21.0-4.0","",""
"null","sound/msl/goat.wav","null","audio-keyboard-response","511","353878","0.0-21.0-5.0","",""
"null","sound/msl/boing.wav","null","audio-keyboard-response","512","354380","0.0-21.0-6.0","",""
"349","sound/asl/silence.wav","49","audio-keyboard-response","513","354731","0.0-21.0-7.0","true",""
"null","sound/msl/slide_whistle.wav","null","audio-keyboard-response","514","355229","0.0-22.0-0.0","",""
"null","sound/msl/ding.wav","null","audio-keyboard-response","515","355740","0.0-22.0-1.0","",""
"null","sound/msl/clock.wav","null","audio-keyboard-response","516","356291","0.0-22.0-2.0","",""
"null","sound/asl/silence.wav","null","audio-keyboard-response","517","356797","0.0-22.0-3.0","",""
"null","sound/msl/cat.wav","null","audio-keyboard-response","518","357290","0.0-22.0-4.0","",""
"null","sound/msl/door_bell.wav","null","audio-keyboard-response","519","357790","0.0-22.0-5.0","",""
"null","sound/msl/clock.wav","null","audio-keyboard-response","520","358340","0.0-22.0-6.0","",""
"1520","sound/asl/silence.wav","50","audio-keyboard-response","521","359864","0.0-22.0-7.0","true",""
"null","sound/msl/duck.wav","null","audio-keyboard-response","522","360370","0.0-23.0-0.0","",""
"null","sound/msl/door_bell.wav","null","audio-keyboard-response","523","360870","0.0-23.0-1.0","",""
"null","sound/msl/bird.wav","null","audio-keyboard-response","524","361379","0.0-23.0-2.0","",""
"null","sound/asl/silence.wav","null","audio-keyboard-response","525","361887","0.0-23.0-3.0","",""
"null","sound/msl/duck.wav","null","audio-keyboard-response","526","362379","0.0-23.0-4.0","",""
"null","sound/msl/ding.wav","null","audio-keyboard-response","527","362889","0.0-23.0-5.0","",""
"null","sound/msl/boing.wav","null","audio-keyboard-response","528","363390","0.0-23.0-6.0","",""
"979","sound/asl/silence.wav","49","audio-keyboard-response","529","364372","0.0-23.0-7.0","false",""
"null","sound/msl/Water.wav","null","audio-keyboard-response","530","364879","0.0-24.0-0.0","",""
"null","sound/msl/door.wav","null","audio-keyboard-response","531","365380","0.0-24.0-1.0","",""
"null","sound/msl/dog.wav","null","audio-keyboard-response","532","365889","0.0-24.0-2.0","",""
"null","sound/asl/silence.wav","null","audio-keyboard-response","533","366408","0.0-24.0-3.0","",""
"null","sound/msl/duck.wav","null","audio-keyboard-response","534","366910","0.0-24.0-4.0","",""
"null","sound/msl/ding.wav","null","audio-keyboard-response","535","367420","0.0-24.0-5.0","",""
"null","sound/msl/boing.wav","null","audio-keyboard-response","536","367920","0.0-24.0-6.0","",""
"600","sound/asl/silence.wav","49","audio-keyboard-response","537","368524","0.0-24.0-7.0","false",""
"null","sound/msl/duck.wav","null","audio-keyboard-response","538","369020","0.0-25.0-0.0","",""
"null","sound/msl/door_bell.wav","null","audio-keyboard-response","539","369529","0.0-25.0-1.0","",""
"null","sound/msl/bird.wav","null","audio-keyboard-response","540","370029","0.0-25.0-2.0","",""
"null","sound/asl/silence.wav","null","audio-keyboard-response","541","370531","0.0-25.0-3.0","",""
"null","sound/msl/slide_whistle.wav","null","audio-keyboard-response","542","371030","0.0-25.0-4.0","",""
"null","sound/msl/goat.wav","null","audio-keyboard-response","543","371571","0.0-25.0-5.0","",""
"null","sound/msl/dog.wav","null","audio-keyboard-response","544","372069","0.0-25.0-6.0","",""
"379","sound/asl/silence.wav","50","audio-keyboard-response","545","372460","0.0-25.0-7.0","true",""
"null","sound/msl/organ.wav","null","audio-keyboard-response","546","372959","0.0-26.0-0.0","",""
"null","sound/msl/goat.wav","null","audio-keyboard-response","547","373500","0.0-26.0-1.0","",""
"null","sound/msl/boing.wav","null","audio-keyboard-response","548","373998","0.0-26.0-2.0","",""
"null","sound/asl/silence.wav","null","audio-keyboard-response","549","374506","0.0-26.0-3.0","",""
"null","sound/msl/Water.wav","null","audio-keyboard-response","550","375009","0.0-26.0-4.0","",""
"null","sound/msl/cow.wav","null","audio-keyboard-response","551","375510","0.0-26.0-5.0","",""
"null","sound/msl/bird.wav","null","audio-keyboard-response","552","376019","0.0-26.0-6.0","",""
"309","sound/asl/silence.wav","50","audio-keyboard-response","553","376333","0.0-26.0-7.0","true",""
"null","sound/msl/organ.wav","null","audio-keyboard-response","554","376829","0.0-27.0-0.0","",""
"null","sound/msl/door.wav","null","audio-keyboard-response","555","377329","0.0-27.0-1.0","",""
"null","sound/msl/frog.wav","null","audio-keyboard-response","556","377831","0.0-27.0-2.0","",""
"null","sound/asl/silence.wav","null","audio-keyboard-response","557","378348","0.0-27.0-3.0","",""
"null","sound/msl/organ.wav","null","audio-keyboard-response","558","378850","0.0-27.0-4.0","",""
"null","sound/msl/goat.wav","null","audio-keyboard-response","559","379388","0.0-27.0-5.0","",""
"null","sound/msl/boing.wav","null","audio-keyboard-response","560","379889","0.0-27.0-6.0","",""
"120","sound/asl/silence.wav","49","audio-keyboard-response","561","380009","0.0-27.0-7.0","true",""
"3025","","","instructions","562","383035","0.0-28.0","","[{""page_index"":0,""viewing_time"":3025}]"
