"rt","stimulus","key_press","trial_type","trial_index","time_elapsed","internal_node_id","correct","view_history"
"8006","alien.jpg","49","image-keyboard-response","0","8010","0.0-0.0","",""
"null","sound/msl/clock.wav","null","audio-keyboard-response","1","8571","0.0-1.0-0.0","",""
"null","sound/msl/cat.wav","null","audio-keyboard-response","2","9080","0.0-1.0-1.0","",""
"null","sound/msl/duck.wav","null","audio-keyboard-response","3","9601","0.0-1.0-2.0","",""
"null","sound/msl/bird.wav","null","audio-keyboard-response","4","10122","0.0-1.0-3.0","",""
"null","sound/msl/slide_whistle.wav","null","audio-keyboard-response","5","10641","0.0-1.0-4.0","",""
"null","sound/msl/frog.wav","null","audio-keyboard-response","6","11160","0.0-1.0-5.0","",""
"null","sound/msl/door.wav","null","audio-keyboard-response","7","11671","0.0-1.0-6.0","",""
"null","sound/msl/door_bell.wav","null","audio-keyboard-response","8","12191","0.0-1.0-7.0","",""
"null","sound/msl/cow.wav","null","audio-keyboard-response","9","12711","0.0-1.0-8.0","",""
"null","sound/msl/goat.wav","null","audio-keyboard-response","10","13262","0.0-1.0-9.0","",""
"null","sound/msl/ding.wav","null","audio-keyboard-response","11","13771","0.0-1.0-10.0","",""
"null","sound/msl/boing.wav","null","audio-keyboard-response","12","14281","0.0-1.0-11.0","",""
"null","sound/msl/bird.wav","null","audio-keyboard-response","13","14801","0.0-1.0-12.0","",""
"null","sound/msl/slide_whistle.wav","null","audio-keyboard-response","14","15323","0.0-1.0-13.0","",""
"null","sound/msl/frog.wav","null","audio-keyboard-response","15","15841","0.0-1.0-14.0","",""
"null","sound/msl/clock.wav","null","audio-keyboard-response","16","16401","0.0-1.0-15.0","",""
"null","sound/msl/cat.wav","null","audio-keyboard-response","17","16911","0.0-1.0-16.0","",""
"null","sound/msl/duck.wav","null","audio-keyboard-response","18","17432","0.0-1.0-17.0","",""
"null","sound/msl/dog.wav","null","audio-keyboard-response","19","17951","0.0-1.0-18.0","",""
"null","sound/msl/Water.wav","null","audio-keyboard-response","20","18472","0.0-1.0-19.0","",""
"null","sound/msl/organ.wav","null","audio-keyboard-response","21","18982","0.0-1.0-20.0","",""
"null","sound/msl/goat.wav","null","audio-keyboard-response","22","19532","0.0-1.0-21.0","",""
"null","sound/msl/ding.wav","null","audio-keyboard-response","23","20041","0.0-1.0-22.0","",""
"null","sound/msl/boing.wav","null","audio-keyboard-response","24","20552","0.0-1.0-23.0","",""
"null","sound/msl/door.wav","null","audio-keyboard-response","25","21062","0.0-1.0-24.0","",""
"null","sound/msl/door_bell.wav","null","audio-keyboard-response","26","21571","0.0-1.0-25.0","",""
"null","sound/msl/cow.wav","null","audio-keyboard-response","27","22082","0.0-1.0-26.0","",""
"null","sound/msl/clock.wav","null","audio-keyboard-response","28","22642","0.0-1.0-27.0","",""
"null","sound/msl/cat.wav","null","audio-keyboard-response","29","23152","0.0-1.0-28.0","",""
"null","sound/msl/duck.wav","null","audio-keyboard-response","30","23673","0.0-1.0-29.0","",""
"null","sound/msl/bird.wav","null","audio-keyboard-response","31","24193","0.0-1.0-30.0","",""
"null","sound/msl/slide_whistle.wav","null","audio-keyboard-response","32","24713","0.0-1.0-31.0","",""
"null","sound/msl/frog.wav","null","audio-keyboard-response","33","25233","0.0-1.0-32.0","",""
"null","sound/msl/dog.wav","null","audio-keyboard-response","34","25753","0.0-1.0-33.0","",""
"null","sound/msl/Water.wav","null","audio-keyboard-response","35","26273","0.0-1.0-34.0","",""
"null","sound/msl/organ.wav","null","audio-keyboard-response","36","26782","0.0-1.0-35.0","",""
"null","sound/msl/door.wav","null","audio-keyboard-response","37","27293","0.0-1.0-36.0","",""
"null","sound/msl/door_bell.wav","null","audio-keyboard-response","38","27803","0.0-1.0-37.0","",""
"null","sound/msl/cow.wav","null","audio-keyboard-response","39","28323","0.0-1.0-38.0","",""
"null","sound/msl/goat.wav","null","audio-keyboard-response","40","28873","0.0-1.0-39.0","",""
"null","sound/msl/ding.wav","null","audio-keyboard-response","41","29393","0.0-1.0-40.0","",""
"null","sound/msl/boing.wav","null","audio-keyboard-response","42","29903","0.0-1.0-41.0","",""
"null","sound/msl/dog.wav","null","audio-keyboard-response","43","30413","0.0-1.0-42.0","",""
"null","sound/msl/Water.wav","null","audio-keyboard-response","44","30933","0.0-1.0-43.0","",""
"null","sound/msl/organ.wav","null","audio-keyboard-response","45","31443","0.0-1.0-44.0","",""
"null","sound/msl/bird.wav","null","audio-keyboard-response","46","31963","0.0-1.0-45.0","",""
"null","sound/msl/slide_whistle.wav","null","audio-keyboard-response","47","32483","0.0-1.0-46.0","",""
"null","sound/msl/frog.wav","null","audio-keyboard-response","48","33003","0.0-1.0-47.0","",""
"null","sound/msl/door.wav","null","audio-keyboard-response","49","33509","0.0-1.0-48.0","",""
"null","sound/msl/door_bell.wav","null","audio-keyboard-response","50","34028","0.0-1.0-49.0","",""
"null","sound/msl/cow.wav","null","audio-keyboard-response","51","34549","0.0-1.0-50.0","",""
"null","sound/msl/clock.wav","null","audio-keyboard-response","52","35109","0.0-1.0-51.0","",""
"null","sound/msl/cat.wav","null","audio-keyboard-response","53","35619","0.0-1.0-52.0","",""
"null","sound/msl/duck.wav","null","audio-keyboard-response","54","36129","0.0-1.0-53.0","",""
"null","sound/msl/bird.wav","null","audio-keyboard-response","55","36639","0.0-1.0-54.0","",""
"null","sound/msl/slide_whistle.wav","null","audio-keyboard-response","56","37159","0.0-1.0-55.0","",""
"null","sound/msl/frog.wav","null","audio-keyboard-response","57","37679","0.0-1.0-56.0","",""
"null","sound/msl/door.wav","null","audio-keyboard-response","58","38188","0.0-1.0-57.0","",""
"null","sound/msl/door_bell.wav","null","audio-keyboard-response","59","38710","0.0-1.0-58.0","",""
"null","sound/msl/cow.wav","null","audio-keyboard-response","60","39229","0.0-1.0-59.0","",""
"null","sound/msl/goat.wav","null","audio-keyboard-response","61","39779","0.0-1.0-60.0","",""
"null","sound/msl/ding.wav","null","audio-keyboard-response","62","40290","0.0-1.0-61.0","",""
"null","sound/msl/boing.wav","null","audio-keyboard-response","63","40800","0.0-1.0-62.0","",""
"null","sound/msl/dog.wav","null","audio-keyboard-response","64","41320","0.0-1.0-63.0","",""
"null","sound/msl/Water.wav","null","audio-keyboard-response","65","41840","0.0-1.0-64.0","",""
"null","sound/msl/organ.wav","null","audio-keyboard-response","66","42350","0.0-1.0-65.0","",""
"null","sound/msl/bird.wav","null","audio-keyboard-response","67","42870","0.0-1.0-66.0","",""
"null","sound/msl/slide_whistle.wav","null","audio-keyboard-response","68","43390","0.0-1.0-67.0","",""
"null","sound/msl/frog.wav","null","audio-keyboard-response","69","43910","0.0-1.0-68.0","",""
"null","sound/msl/clock.wav","null","audio-keyboard-response","70","44470","0.0-1.0-69.0","",""
"null","sound/msl/cat.wav","null","audio-keyboard-response","71","44981","0.0-1.0-70.0","",""
"null","sound/msl/duck.wav","null","audio-keyboard-response","72","45490","0.0-1.0-71.0","",""
"null","sound/msl/door.wav","null","audio-keyboard-response","73","46001","0.0-1.0-72.0","",""
"null","sound/msl/door_bell.wav","null","audio-keyboard-response","74","46520","0.0-1.0-73.0","",""
"null","sound/msl/cow.wav","null","audio-keyboard-response","75","47040","0.0-1.0-74.0","",""
"null","sound/msl/goat.wav","null","audio-keyboard-response","76","47591","0.0-1.0-75.0","",""
"null","sound/msl/ding.wav","null","audio-keyboard-response","77","48110","0.0-1.0-76.0","",""
"null","sound/msl/boing.wav","null","audio-keyboard-response","78","48620","0.0-1.0-77.0","",""
"null","sound/msl/door.wav","null","audio-keyboard-response","79","49131","0.0-1.0-78.0","",""
"null","sound/msl/door_bell.wav","null","audio-keyboard-response","80","49641","0.0-1.0-79.0","",""
"null","sound/msl/cow.wav","null","audio-keyboard-response","81","50161","0.0-1.0-80.0","",""
"null","sound/msl/dog.wav","null","audio-keyboard-response","82","50681","0.0-1.0-81.0","",""
"null","sound/msl/Water.wav","null","audio-keyboard-response","83","51201","0.0-1.0-82.0","",""
"null","sound/msl/organ.wav","null","audio-keyboard-response","84","51711","0.0-1.0-83.0","",""
"null","sound/msl/clock.wav","null","audio-keyboard-response","85","52270","0.0-1.0-84.0","",""
"null","sound/msl/cat.wav","null","audio-keyboard-response","86","52781","0.0-1.0-85.0","",""
"null","sound/msl/duck.wav","null","audio-keyboard-response","87","53291","0.0-1.0-86.0","",""
"null","sound/msl/bird.wav","null","audio-keyboard-response","88","53802","0.0-1.0-87.0","",""
"null","sound/msl/slide_whistle.wav","null","audio-keyboard-response","89","54322","0.0-1.0-88.0","",""
"null","sound/msl/frog.wav","null","audio-keyboard-response","90","54841","0.0-1.0-89.0","",""
"null","sound/msl/dog.wav","null","audio-keyboard-response","91","55362","0.0-1.0-90.0","",""
"null","sound/msl/Water.wav","null","audio-keyboard-response","92","55882","0.0-1.0-91.0","",""
"null","sound/msl/organ.wav","null","audio-keyboard-response","93","56392","0.0-1.0-92.0","",""
"null","sound/msl/goat.wav","null","audio-keyboard-response","94","56942","0.0-1.0-93.0","",""
"null","sound/msl/ding.wav","null","audio-keyboard-response","95","57452","0.0-1.0-94.0","",""
"null","sound/msl/boing.wav","null","audio-keyboard-response","96","57962","0.0-1.0-95.0","",""
"null","sound/msl/door.wav","null","audio-keyboard-response","97","58472","0.0-1.0-96.0","",""
"null","sound/msl/door_bell.wav","null","audio-keyboard-response","98","58992","0.0-1.0-97.0","",""
"null","sound/msl/cow.wav","null","audio-keyboard-response","99","59512","0.0-1.0-98.0","",""
"null","sound/msl/bird.wav","null","audio-keyboard-response","100","60032","0.0-1.0-99.0","",""
"null","sound/msl/slide_whistle.wav","null","audio-keyboard-response","101","60552","0.0-1.0-100.0","",""
"null","sound/msl/frog.wav","null","audio-keyboard-response","102","61073","0.0-1.0-101.0","",""
"null","sound/msl/dog.wav","null","audio-keyboard-response","103","61592","0.0-1.0-102.0","",""
"null","sound/msl/Water.wav","null","audio-keyboard-response","104","62112","0.0-1.0-103.0","",""
"null","sound/msl/organ.wav","null","audio-keyboard-response","105","62623","0.0-1.0-104.0","",""
"null","sound/msl/clock.wav","null","audio-keyboard-response","106","63183","0.0-1.0-105.0","",""
"null","sound/msl/cat.wav","null","audio-keyboard-response","107","63692","0.0-1.0-106.0","",""
"null","sound/msl/duck.wav","null","audio-keyboard-response","108","64204","0.0-1.0-107.0","",""
"null","sound/msl/bird.wav","null","audio-keyboard-response","109","64724","0.0-1.0-108.0","",""
"null","sound/msl/slide_whistle.wav","null","audio-keyboard-response","110","65243","0.0-1.0-109.0","",""
"null","sound/msl/frog.wav","null","audio-keyboard-response","111","65764","0.0-1.0-110.0","",""
"null","sound/msl/goat.wav","null","audio-keyboard-response","112","66313","0.0-1.0-111.0","",""
"null","sound/msl/ding.wav","null","audio-keyboard-response","113","66834","0.0-1.0-112.0","",""
"null","sound/msl/boing.wav","null","audio-keyboard-response","114","67344","0.0-1.0-113.0","",""
"null","sound/msl/dog.wav","null","audio-keyboard-response","115","67852","0.0-1.0-114.0","",""
"null","sound/msl/Water.wav","null","audio-keyboard-response","116","68375","0.0-1.0-115.0","",""
"null","sound/msl/organ.wav","null","audio-keyboard-response","117","68884","0.0-1.0-116.0","",""
"null","sound/msl/door.wav","null","audio-keyboard-response","118","69394","0.0-1.0-117.0","",""
"null","sound/msl/door_bell.wav","null","audio-keyboard-response","119","69914","0.0-1.0-118.0","",""
"null","sound/msl/cow.wav","null","audio-keyboard-response","120","70433","0.0-1.0-119.0","",""
"null","sound/msl/clock.wav","null","audio-keyboard-response","121","70994","0.0-1.0-120.0","",""
"null","sound/msl/cat.wav","null","audio-keyboard-response","122","71504","0.0-1.0-121.0","",""
"null","sound/msl/duck.wav","null","audio-keyboard-response","123","72014","0.0-1.0-122.0","",""
"null","sound/msl/bird.wav","null","audio-keyboard-response","124","72524","0.0-1.0-123.0","",""
"null","sound/msl/slide_whistle.wav","null","audio-keyboard-response","125","73044","0.0-1.0-124.0","",""
"null","sound/msl/frog.wav","null","audio-keyboard-response","126","73560","0.0-1.0-125.0","",""
"null","sound/msl/dog.wav","null","audio-keyboard-response","127","74079","0.0-1.0-126.0","",""
"null","sound/msl/Water.wav","null","audio-keyboard-response","128","74599","0.0-1.0-127.0","",""
"null","sound/msl/organ.wav","null","audio-keyboard-response","129","75109","0.0-1.0-128.0","",""
"null","sound/msl/goat.wav","null","audio-keyboard-response","130","75660","0.0-1.0-129.0","",""
"null","sound/msl/ding.wav","null","audio-keyboard-response","131","76169","0.0-1.0-130.0","",""
"null","sound/msl/boing.wav","null","audio-keyboard-response","132","76679","0.0-1.0-131.0","",""
"null","sound/msl/bird.wav","null","audio-keyboard-response","133","77200","0.0-1.0-132.0","",""
"null","sound/msl/slide_whistle.wav","null","audio-keyboard-response","134","77719","0.0-1.0-133.0","",""
"null","sound/msl/frog.wav","null","audio-keyboard-response","135","78240","0.0-1.0-134.0","",""
"null","sound/msl/door.wav","null","audio-keyboard-response","136","78750","0.0-1.0-135.0","",""
"null","sound/msl/door_bell.wav","null","audio-keyboard-response","137","79269","0.0-1.0-136.0","",""
"null","sound/msl/cow.wav","null","audio-keyboard-response","138","79790","0.0-1.0-137.0","",""
"null","sound/msl/goat.wav","null","audio-keyboard-response","139","80340","0.0-1.0-138.0","",""
"null","sound/msl/ding.wav","null","audio-keyboard-response","140","80850","0.0-1.0-139.0","",""
"null","sound/msl/boing.wav","null","audio-keyboard-response","141","81360","0.0-1.0-140.0","",""
"null","sound/msl/clock.wav","null","audio-keyboard-response","142","81920","0.0-1.0-141.0","",""
"null","sound/msl/cat.wav","null","audio-keyboard-response","143","82431","0.0-1.0-142.0","",""
"null","sound/msl/duck.wav","null","audio-keyboard-response","144","82950","0.0-1.0-143.0","",""
"null","sound/msl/dog.wav","null","audio-keyboard-response","145","83470","0.0-1.0-144.0","",""
"null","sound/msl/Water.wav","null","audio-keyboard-response","146","83990","0.0-1.0-145.0","",""
"null","sound/msl/organ.wav","null","audio-keyboard-response","147","84500","0.0-1.0-146.0","",""
"null","sound/msl/door.wav","null","audio-keyboard-response","148","85010","0.0-1.0-147.0","",""
"null","sound/msl/door_bell.wav","null","audio-keyboard-response","149","85521","0.0-1.0-148.0","",""
"null","sound/msl/cow.wav","null","audio-keyboard-response","150","86041","0.0-1.0-149.0","",""
"null","sound/msl/clock.wav","null","audio-keyboard-response","151","86600","0.0-1.0-150.0","",""
"null","sound/msl/cat.wav","null","audio-keyboard-response","152","87110","0.0-1.0-151.0","",""
"null","sound/msl/duck.wav","null","audio-keyboard-response","153","87631","0.0-1.0-152.0","",""
"null","sound/msl/bird.wav","null","audio-keyboard-response","154","88151","0.0-1.0-153.0","",""
"null","sound/msl/slide_whistle.wav","null","audio-keyboard-response","155","88671","0.0-1.0-154.0","",""
"null","sound/msl/frog.wav","null","audio-keyboard-response","156","89191","0.0-1.0-155.0","",""
"null","sound/msl/goat.wav","null","audio-keyboard-response","157","89741","0.0-1.0-156.0","",""
"null","sound/msl/ding.wav","null","audio-keyboard-response","158","90251","0.0-1.0-157.0","",""
"null","sound/msl/boing.wav","null","audio-keyboard-response","159","90761","0.0-1.0-158.0","",""
"null","sound/msl/dog.wav","null","audio-keyboard-response","160","91281","0.0-1.0-159.0","",""
"null","sound/msl/Water.wav","null","audio-keyboard-response","161","91801","0.0-1.0-160.0","",""
"null","sound/msl/organ.wav","null","audio-keyboard-response","162","92311","0.0-1.0-161.0","",""
"null","sound/msl/bird.wav","null","audio-keyboard-response","163","92831","0.0-1.0-162.0","",""
"null","sound/msl/slide_whistle.wav","null","audio-keyboard-response","164","93352","0.0-1.0-163.0","",""
"null","sound/msl/frog.wav","null","audio-keyboard-response","165","93872","0.0-1.0-164.0","",""
"null","sound/msl/goat.wav","null","audio-keyboard-response","166","94422","0.0-1.0-165.0","",""
"null","sound/msl/ding.wav","null","audio-keyboard-response","167","94932","0.0-1.0-166.0","",""
"null","sound/msl/boing.wav","null","audio-keyboard-response","168","95442","0.0-1.0-167.0","",""
"null","sound/msl/clock.wav","null","audio-keyboard-response","169","96002","0.0-1.0-168.0","",""
"null","sound/msl/cat.wav","null","audio-keyboard-response","170","96512","0.0-1.0-169.0","",""
"null","sound/msl/duck.wav","null","audio-keyboard-response","171","97032","0.0-1.0-170.0","",""
"null","sound/msl/door.wav","null","audio-keyboard-response","172","97542","0.0-1.0-171.0","",""
"null","sound/msl/door_bell.wav","null","audio-keyboard-response","173","98052","0.0-1.0-172.0","",""
"null","sound/msl/cow.wav","null","audio-keyboard-response","174","98562","0.0-1.0-173.0","",""
"null","sound/msl/dog.wav","null","audio-keyboard-response","175","99083","0.0-1.0-174.0","",""
"null","sound/msl/Water.wav","null","audio-keyboard-response","176","99603","0.0-1.0-175.0","",""
"null","sound/msl/organ.wav","null","audio-keyboard-response","177","100112","0.0-1.0-176.0","",""
"null","sound/msl/bird.wav","null","audio-keyboard-response","178","100633","0.0-1.0-177.0","",""
"null","sound/msl/slide_whistle.wav","null","audio-keyboard-response","179","101152","0.0-1.0-178.0","",""
"null","sound/msl/frog.wav","null","audio-keyboard-response","180","101673","0.0-1.0-179.0","",""
"null","sound/msl/door.wav","null","audio-keyboard-response","181","102183","0.0-1.0-180.0","",""
"null","sound/msl/door_bell.wav","null","audio-keyboard-response","182","102692","0.0-1.0-181.0","",""
"null","sound/msl/cow.wav","null","audio-keyboard-response","183","103203","0.0-1.0-182.0","",""
"null","sound/msl/goat.wav","null","audio-keyboard-response","184","103753","0.0-1.0-183.0","",""
"null","sound/msl/ding.wav","null","audio-keyboard-response","185","104272","0.0-1.0-184.0","",""
"null","sound/msl/boing.wav","null","audio-keyboard-response","186","104783","0.0-1.0-185.0","",""
"null","sound/msl/clock.wav","null","audio-keyboard-response","187","105343","0.0-1.0-186.0","",""
"null","sound/msl/cat.wav","null","audio-keyboard-response","188","105853","0.0-1.0-187.0","",""
"null","sound/msl/duck.wav","null","audio-keyboard-response","189","106363","0.0-1.0-188.0","",""
"null","sound/msl/dog.wav","null","audio-keyboard-response","190","106883","0.0-1.0-189.0","",""
"null","sound/msl/Water.wav","null","audio-keyboard-response","191","107403","0.0-1.0-190.0","",""
"null","sound/msl/organ.wav","null","audio-keyboard-response","192","107914","0.0-1.0-191.0","",""
"null","sound/msl/bird.wav","null","audio-keyboard-response","193","108433","0.0-1.0-192.0","",""
"null","sound/msl/slide_whistle.wav","null","audio-keyboard-response","194","108954","0.0-1.0-193.0","",""
"null","sound/msl/frog.wav","null","audio-keyboard-response","195","109474","0.0-1.0-194.0","",""
"null","sound/msl/door.wav","null","audio-keyboard-response","196","109984","0.0-1.0-195.0","",""
"null","sound/msl/door_bell.wav","null","audio-keyboard-response","197","110494","0.0-1.0-196.0","",""
"null","sound/msl/cow.wav","null","audio-keyboard-response","198","111003","0.0-1.0-197.0","",""
"null","sound/msl/clock.wav","null","audio-keyboard-response","199","111563","0.0-1.0-198.0","",""
"null","sound/msl/cat.wav","null","audio-keyboard-response","200","112074","0.0-1.0-199.0","",""
"null","sound/msl/duck.wav","null","audio-keyboard-response","201","112594","0.0-1.0-200.0","",""
"null","sound/msl/goat.wav","null","audio-keyboard-response","202","113144","0.0-1.0-201.0","",""
"null","sound/msl/ding.wav","null","audio-keyboard-response","203","113654","0.0-1.0-202.0","",""
"null","sound/msl/boing.wav","null","audio-keyboard-response","204","114164","0.0-1.0-203.0","",""
"null","sound/msl/dog.wav","null","audio-keyboard-response","205","114680","0.0-1.0-204.0","",""
"null","sound/msl/Water.wav","null","audio-keyboard-response","206","115200","0.0-1.0-205.0","",""
"null","sound/msl/organ.wav","null","audio-keyboard-response","207","115710","0.0-1.0-206.0","",""
"null","sound/msl/bird.wav","null","audio-keyboard-response","208","116230","0.0-1.0-207.0","",""
"null","sound/msl/slide_whistle.wav","null","audio-keyboard-response","209","116749","0.0-1.0-208.0","",""
"null","sound/msl/frog.wav","null","audio-keyboard-response","210","117270","0.0-1.0-209.0","",""
"null","sound/msl/clock.wav","null","audio-keyboard-response","211","117830","0.0-1.0-210.0","",""
"null","sound/msl/cat.wav","null","audio-keyboard-response","212","118340","0.0-1.0-211.0","",""
"null","sound/msl/duck.wav","null","audio-keyboard-response","213","118850","0.0-1.0-212.0","",""
"null","sound/msl/dog.wav","null","audio-keyboard-response","214","119360","0.0-1.0-213.0","",""
"null","sound/msl/Water.wav","null","audio-keyboard-response","215","119880","0.0-1.0-214.0","",""
"null","sound/msl/organ.wav","null","audio-keyboard-response","216","120390","0.0-1.0-215.0","",""
"null","sound/msl/door.wav","null","audio-keyboard-response","217","120900","0.0-1.0-216.0","",""
"null","sound/msl/door_bell.wav","null","audio-keyboard-response","218","121410","0.0-1.0-217.0","",""
"null","sound/msl/cow.wav","null","audio-keyboard-response","219","121920","0.0-1.0-218.0","",""
"null","sound/msl/goat.wav","null","audio-keyboard-response","220","122471","0.0-1.0-219.0","",""
"null","sound/msl/ding.wav","null","audio-keyboard-response","221","122990","0.0-1.0-220.0","",""
"null","sound/msl/boing.wav","null","audio-keyboard-response","222","123501","0.0-1.0-221.0","",""
"null","sound/msl/bird.wav","null","audio-keyboard-response","223","124010","0.0-1.0-222.0","",""
"null","sound/msl/slide_whistle.wav","null","audio-keyboard-response","224","124521","0.0-1.0-223.0","",""
"null","sound/msl/frog.wav","null","audio-keyboard-response","225","125041","0.0-1.0-224.0","",""
"null","sound/msl/door.wav","null","audio-keyboard-response","226","125550","0.0-1.0-225.0","",""
"null","sound/msl/door_bell.wav","null","audio-keyboard-response","227","126071","0.0-1.0-226.0","",""
"null","sound/msl/cow.wav","null","audio-keyboard-response","228","126591","0.0-1.0-227.0","",""
"null","sound/msl/dog.wav","null","audio-keyboard-response","229","127112","0.0-1.0-228.0","",""
"null","sound/msl/Water.wav","null","audio-keyboard-response","230","127632","0.0-1.0-229.0","",""
"null","sound/msl/organ.wav","null","audio-keyboard-response","231","128142","0.0-1.0-230.0","",""
"null","sound/msl/door.wav","null","audio-keyboard-response","232","128653","0.0-1.0-231.0","",""
"null","sound/msl/door_bell.wav","null","audio-keyboard-response","233","129161","0.0-1.0-232.0","",""
"null","sound/msl/cow.wav","null","audio-keyboard-response","234","129682","0.0-1.0-233.0","",""
"null","sound/msl/bird.wav","null","audio-keyboard-response","235","130201","0.0-1.0-234.0","",""
"null","sound/msl/slide_whistle.wav","null","audio-keyboard-response","236","130721","0.0-1.0-235.0","",""
"null","sound/msl/frog.wav","null","audio-keyboard-response","237","131242","0.0-1.0-236.0","",""
"null","sound/msl/goat.wav","null","audio-keyboard-response","238","131792","0.0-1.0-237.0","",""
"null","sound/msl/ding.wav","null","audio-keyboard-response","239","132312","0.0-1.0-238.0","",""
"null","sound/msl/boing.wav","null","audio-keyboard-response","240","132823","0.0-1.0-239.0","",""
"null","sound/msl/clock.wav","null","audio-keyboard-response","241","133382","0.0-1.0-240.0","",""
"null","sound/msl/cat.wav","null","audio-keyboard-response","242","133892","0.0-1.0-241.0","",""
"null","sound/msl/duck.wav","null","audio-keyboard-response","243","134402","0.0-1.0-242.0","",""
"null","sound/msl/dog.wav","null","audio-keyboard-response","244","134923","0.0-1.0-243.0","",""
"null","sound/msl/Water.wav","null","audio-keyboard-response","245","135442","0.0-1.0-244.0","",""
"null","sound/msl/organ.wav","null","audio-keyboard-response","246","135952","0.0-1.0-245.0","",""
"null","sound/msl/bird.wav","null","audio-keyboard-response","247","136472","0.0-1.0-246.0","",""
"null","sound/msl/slide_whistle.wav","null","audio-keyboard-response","248","136993","0.0-1.0-247.0","",""
"null","sound/msl/frog.wav","null","audio-keyboard-response","249","137513","0.0-1.0-248.0","",""
"null","sound/msl/goat.wav","null","audio-keyboard-response","250","138063","0.0-1.0-249.0","",""
"null","sound/msl/ding.wav","null","audio-keyboard-response","251","138573","0.0-1.0-250.0","",""
"null","sound/msl/boing.wav","null","audio-keyboard-response","252","139083","0.0-1.0-251.0","",""
"null","sound/msl/clock.wav","null","audio-keyboard-response","253","139643","0.0-1.0-252.0","",""
"null","sound/msl/cat.wav","null","audio-keyboard-response","254","140153","0.0-1.0-253.0","",""
"null","sound/msl/duck.wav","null","audio-keyboard-response","255","140673","0.0-1.0-254.0","",""
"null","sound/msl/door.wav","null","audio-keyboard-response","256","141183","0.0-1.0-255.0","",""
"null","sound/msl/door_bell.wav","null","audio-keyboard-response","257","141693","0.0-1.0-256.0","",""
"null","sound/msl/cow.wav","null","audio-keyboard-response","258","142203","0.0-1.0-257.0","",""
"null","sound/msl/dog.wav","null","audio-keyboard-response","259","142723","0.0-1.0-258.0","",""
"null","sound/msl/Water.wav","null","audio-keyboard-response","260","143243","0.0-1.0-259.0","",""
"null","sound/msl/organ.wav","null","audio-keyboard-response","261","143753","0.0-1.0-260.0","",""
"null","sound/msl/clock.wav","null","audio-keyboard-response","262","144313","0.0-1.0-261.0","",""
"null","sound/msl/cat.wav","null","audio-keyboard-response","263","144823","0.0-1.0-262.0","",""
"null","sound/msl/duck.wav","null","audio-keyboard-response","264","145334","0.0-1.0-263.0","",""
"null","sound/msl/goat.wav","null","audio-keyboard-response","265","145884","0.0-1.0-264.0","",""
"null","sound/msl/ding.wav","null","audio-keyboard-response","266","146404","0.0-1.0-265.0","",""
"null","sound/msl/boing.wav","null","audio-keyboard-response","267","146913","0.0-1.0-266.0","",""
"null","sound/msl/door.wav","null","audio-keyboard-response","268","147424","0.0-1.0-267.0","",""
"null","sound/msl/door_bell.wav","null","audio-keyboard-response","269","147934","0.0-1.0-268.0","",""
"null","sound/msl/cow.wav","null","audio-keyboard-response","270","148444","0.0-1.0-269.0","",""
"null","sound/msl/bird.wav","null","audio-keyboard-response","271","148964","0.0-1.0-270.0","",""
"null","sound/msl/slide_whistle.wav","null","audio-keyboard-response","272","149484","0.0-1.0-271.0","",""
"null","sound/msl/frog.wav","null","audio-keyboard-response","273","150005","0.0-1.0-272.0","",""
"null","sound/msl/dog.wav","null","audio-keyboard-response","274","150524","0.0-1.0-273.0","",""
"null","sound/msl/Water.wav","null","audio-keyboard-response","275","151044","0.0-1.0-274.0","",""
"null","sound/msl/organ.wav","null","audio-keyboard-response","276","151554","0.0-1.0-275.0","",""
"null","sound/msl/clock.wav","null","audio-keyboard-response","277","152114","0.0-1.0-276.0","",""
"null","sound/msl/cat.wav","null","audio-keyboard-response","278","152625","0.0-1.0-277.0","",""
"null","sound/msl/duck.wav","null","audio-keyboard-response","279","153134","0.0-1.0-278.0","",""
"null","sound/msl/goat.wav","null","audio-keyboard-response","280","153685","0.0-1.0-279.0","",""
"null","sound/msl/ding.wav","null","audio-keyboard-response","281","154204","0.0-1.0-280.0","",""
"null","sound/msl/boing.wav","null","audio-keyboard-response","282","154714","0.0-1.0-281.0","",""
"null","sound/msl/bird.wav","null","audio-keyboard-response","283","155229","0.0-1.0-282.0","",""
"null","sound/msl/slide_whistle.wav","null","audio-keyboard-response","284","155749","0.0-1.0-283.0","",""
"null","sound/msl/frog.wav","null","audio-keyboard-response","285","156270","0.0-1.0-284.0","",""
"null","sound/msl/door.wav","null","audio-keyboard-response","286","156780","0.0-1.0-285.0","",""
"null","sound/msl/door_bell.wav","null","audio-keyboard-response","287","157290","0.0-1.0-286.0","",""
"null","sound/msl/cow.wav","null","audio-keyboard-response","288","157800","0.0-1.0-287.0","",""
"null","sound/msl/dog.wav","null","audio-keyboard-response","289","158320","0.0-1.0-288.0","",""
"null","sound/msl/Water.wav","null","audio-keyboard-response","290","158840","0.0-1.0-289.0","",""
"null","sound/msl/organ.wav","null","audio-keyboard-response","291","159350","0.0-1.0-290.0","",""
"null","sound/msl/goat.wav","null","audio-keyboard-response","292","159900","0.0-1.0-291.0","",""
"null","sound/msl/ding.wav","null","audio-keyboard-response","293","160411","0.0-1.0-292.0","",""
"null","sound/msl/boing.wav","null","audio-keyboard-response","294","160920","0.0-1.0-293.0","",""
"null","sound/msl/clock.wav","null","audio-keyboard-response","295","161481","0.0-1.0-294.0","",""
"null","sound/msl/cat.wav","null","audio-keyboard-response","296","161991","0.0-1.0-295.0","",""
"null","sound/msl/duck.wav","null","audio-keyboard-response","297","162511","0.0-1.0-296.0","",""
"null","sound/msl/dog.wav","null","audio-keyboard-response","298","163031","0.0-1.0-297.0","",""
"null","sound/msl/Water.wav","null","audio-keyboard-response","299","163551","0.0-1.0-298.0","",""
"null","sound/msl/organ.wav","null","audio-keyboard-response","300","164061","0.0-1.0-299.0","",""
"null","sound/msl/bird.wav","null","audio-keyboard-response","301","164571","0.0-1.0-300.0","",""
"null","sound/msl/slide_whistle.wav","null","audio-keyboard-response","302","165081","0.0-1.0-301.0","",""
"null","sound/msl/frog.wav","null","audio-keyboard-response","303","165600","0.0-1.0-302.0","",""
"null","sound/msl/goat.wav","null","audio-keyboard-response","304","166151","0.0-1.0-303.0","",""
"null","sound/msl/ding.wav","null","audio-keyboard-response","305","166672","0.0-1.0-304.0","",""
"null","sound/msl/boing.wav","null","audio-keyboard-response","306","167182","0.0-1.0-305.0","",""
"null","sound/msl/door.wav","null","audio-keyboard-response","307","167692","0.0-1.0-306.0","",""
"null","sound/msl/door_bell.wav","null","audio-keyboard-response","308","168202","0.0-1.0-307.0","",""
"null","sound/msl/cow.wav","null","audio-keyboard-response","309","168721","0.0-1.0-308.0","",""
"null","sound/msl/clock.wav","null","audio-keyboard-response","310","169281","0.0-1.0-309.0","",""
"null","sound/msl/cat.wav","null","audio-keyboard-response","311","169791","0.0-1.0-310.0","",""
"null","sound/msl/duck.wav","null","audio-keyboard-response","312","170312","0.0-1.0-311.0","",""
"null","sound/msl/dog.wav","null","audio-keyboard-response","313","170832","0.0-1.0-312.0","",""
"null","sound/msl/Water.wav","null","audio-keyboard-response","314","171352","0.0-1.0-313.0","",""
"null","sound/msl/organ.wav","null","audio-keyboard-response","315","171862","0.0-1.0-314.0","",""
"null","sound/msl/bird.wav","null","audio-keyboard-response","316","172372","0.0-1.0-315.0","",""
"null","sound/msl/slide_whistle.wav","null","audio-keyboard-response","317","172882","0.0-1.0-316.0","",""
"null","sound/msl/frog.wav","null","audio-keyboard-response","318","173402","0.0-1.0-317.0","",""
"null","sound/msl/goat.wav","null","audio-keyboard-response","319","173952","0.0-1.0-318.0","",""
"null","sound/msl/ding.wav","null","audio-keyboard-response","320","174472","0.0-1.0-319.0","",""
"null","sound/msl/boing.wav","null","audio-keyboard-response","321","174982","0.0-1.0-320.0","",""
"null","sound/msl/clock.wav","null","audio-keyboard-response","322","175542","0.0-1.0-321.0","",""
"null","sound/msl/cat.wav","null","audio-keyboard-response","323","176053","0.0-1.0-322.0","",""
"null","sound/msl/duck.wav","null","audio-keyboard-response","324","176563","0.0-1.0-323.0","",""
"null","sound/msl/bird.wav","null","audio-keyboard-response","325","177082","0.0-1.0-324.0","",""
"null","sound/msl/slide_whistle.wav","null","audio-keyboard-response","326","177603","0.0-1.0-325.0","",""
"null","sound/msl/frog.wav","null","audio-keyboard-response","327","178123","0.0-1.0-326.0","",""
"null","sound/msl/door.wav","null","audio-keyboard-response","328","178633","0.0-1.0-327.0","",""
"null","sound/msl/door_bell.wav","null","audio-keyboard-response","329","179154","0.0-1.0-328.0","",""
"null","sound/msl/cow.wav","null","audio-keyboard-response","330","179673","0.0-1.0-329.0","",""
"null","sound/msl/dog.wav","null","audio-keyboard-response","331","180193","0.0-1.0-330.0","",""
"null","sound/msl/Water.wav","null","audio-keyboard-response","332","180713","0.0-1.0-331.0","",""
"null","sound/msl/organ.wav","null","audio-keyboard-response","333","181223","0.0-1.0-332.0","",""
"null","sound/msl/goat.wav","null","audio-keyboard-response","334","181773","0.0-1.0-333.0","",""
"null","sound/msl/ding.wav","null","audio-keyboard-response","335","182283","0.0-1.0-334.0","",""
"null","sound/msl/boing.wav","null","audio-keyboard-response","336","182793","0.0-1.0-335.0","",""
"null","sound/msl/door.wav","null","audio-keyboard-response","337","183303","0.0-1.0-336.0","",""
"null","sound/msl/door_bell.wav","null","audio-keyboard-response","338","183813","0.0-1.0-337.0","",""
"null","sound/msl/cow.wav","null","audio-keyboard-response","339","184324","0.0-1.0-338.0","",""
"null","sound/msl/clock.wav","null","audio-keyboard-response","340","184883","0.0-1.0-339.0","",""
"null","sound/msl/cat.wav","null","audio-keyboard-response","341","185394","0.0-1.0-340.0","",""
"null","sound/msl/duck.wav","null","audio-keyboard-response","342","185913","0.0-1.0-341.0","",""
"null","sound/msl/goat.wav","null","audio-keyboard-response","343","186464","0.0-1.0-342.0","",""
"null","sound/msl/ding.wav","null","audio-keyboard-response","344","186974","0.0-1.0-343.0","",""
"null","sound/msl/boing.wav","null","audio-keyboard-response","345","187484","0.0-1.0-344.0","",""
"null","sound/msl/clock.wav","null","audio-keyboard-response","346","188044","0.0-1.0-345.0","",""
"null","sound/msl/cat.wav","null","audio-keyboard-response","347","188554","0.0-1.0-346.0","",""
"null","sound/msl/duck.wav","null","audio-keyboard-response","348","189075","0.0-1.0-347.0","",""
"null","sound/msl/door.wav","null","audio-keyboard-response","349","189585","0.0-1.0-348.0","",""
"null","sound/msl/door_bell.wav","null","audio-keyboard-response","350","190094","0.0-1.0-349.0","",""
"null","sound/msl/cow.wav","null","audio-keyboard-response","351","190604","0.0-1.0-350.0","",""
"null","sound/msl/dog.wav","null","audio-keyboard-response","352","191125","0.0-1.0-351.0","",""
"null","sound/msl/Water.wav","null","audio-keyboard-response","353","191645","0.0-1.0-352.0","",""
"null","sound/msl/organ.wav","null","audio-keyboard-response","354","192155","0.0-1.0-353.0","",""
"null","sound/msl/goat.wav","null","audio-keyboard-response","355","192707","0.0-1.0-354.0","",""
"null","sound/msl/ding.wav","null","audio-keyboard-response","356","193214","0.0-1.0-355.0","",""
"null","sound/msl/boing.wav","null","audio-keyboard-response","357","193725","0.0-1.0-356.0","",""
"null","sound/msl/clock.wav","null","audio-keyboard-response","358","194285","0.0-1.0-357.0","",""
"null","sound/msl/cat.wav","null","audio-keyboard-response","359","194795","0.0-1.0-358.0","",""
"null","sound/msl/duck.wav","null","audio-keyboard-response","360","195316","0.0-1.0-359.0","",""
"17766","Instructions2-eng.png","49","image-keyboard-response","361","213087","0.0-2.0","",""
"null","sound/msl/bird.wav","null","audio-keyboard-response","362","213603","0.0-3.0-0.0","",""
"null","sound/msl/door_bell.wav","null","audio-keyboard-response","363","214122","0.0-3.0-1.0","",""
"null","sound/msl/boing.wav","null","audio-keyboard-response","364","214632","0.0-3.0-2.0","",""
"null","sound/asl/silence.wav","null","audio-keyboard-response","365","215136","0.0-3.0-3.0","",""
"null","sound/msl/goat.wav","null","audio-keyboard-response","366","215683","0.0-3.0-4.0","",""
"null","sound/msl/ding.wav","null","audio-keyboard-response","367","216203","0.0-3.0-5.0","",""
"null","sound/msl/boing.wav","null","audio-keyboard-response","368","216713","0.0-3.0-6.0","",""
"1629","sound/asl/silence.wav","49","audio-keyboard-response","369","218348","0.0-3.0-7.0","false",""
"null","sound/msl/dog.wav","null","audio-keyboard-response","370","218854","0.0-4.0-0.0","",""
"null","sound/msl/cat.wav","null","audio-keyboard-response","371","219364","0.0-4.0-1.0","",""
"null","sound/msl/frog.wav","null","audio-keyboard-response","372","219883","0.0-4.0-2.0","",""
"null","sound/asl/silence.wav","null","audio-keyboard-response","373","220384","0.0-4.0-3.0","",""
"null","sound/msl/bird.wav","null","audio-keyboard-response","374","220893","0.0-4.0-4.0","",""
"null","sound/msl/slide_whistle.wav","null","audio-keyboard-response","375","221404","0.0-4.0-5.0","",""
"null","sound/msl/frog.wav","null","audio-keyboard-response","376","221924","0.0-4.0-6.0","",""
"619","sound/asl/silence.wav","50","audio-keyboard-response","377","222546","0.0-4.0-7.0","true",""
"null","sound/msl/goat.wav","null","audio-keyboard-response","378","223094","0.0-5.0-0.0","",""
"null","sound/msl/ding.wav","null","audio-keyboard-response","379","223604","0.0-5.0-1.0","",""
"null","sound/msl/boing.wav","null","audio-keyboard-response","380","224114","0.0-5.0-2.0","",""
"null","sound/asl/silence.wav","null","audio-keyboard-response","381","224616","0.0-5.0-3.0","",""
"null","sound/msl/goat.wav","null","audio-keyboard-response","382","225164","0.0-5.0-4.0","",""
"null","sound/msl/Water.wav","null","audio-keyboard-response","383","225684","0.0-5.0-5.0","",""
"null","sound/msl/duck.wav","null","audio-keyboard-response","384","226205","0.0-5.0-6.0","",""
"669","sound/asl/silence.wav","50","audio-keyboard-response","385","226881","0.0-5.0-7.0","false",""
"null","sound/msl/clock.wav","null","audio-keyboard-response","386","227434","0.0-6.0-0.0","",""
"null","sound/msl/cat.wav","null","audio-keyboard-response","387","227944","0.0-6.0-1.0","",""
"null","sound/msl/duck.wav","null","audio-keyboard-response","388","228454","0.0-6.0-2.0","",""
"null","sound/asl/silence.wav","null","audio-keyboard-response","389","228956","0.0-6.0-3.0","",""
"null","sound/msl/dog.wav","null","audio-keyboard-response","390","229474","0.0-6.0-4.0","",""
"null","sound/msl/cat.wav","null","audio-keyboard-response","391","229985","0.0-6.0-5.0","",""
"null","sound/msl/frog.wav","null","audio-keyboard-response","392","230495","0.0-6.0-6.0","",""
"389","sound/asl/silence.wav","49","audio-keyboard-response","393","230892","0.0-6.0-7.0","true",""
"null","sound/msl/bird.wav","null","audio-keyboard-response","394","231405","0.0-7.0-0.0","",""
"null","sound/msl/door_bell.wav","null","audio-keyboard-response","395","231925","0.0-7.0-1.0","",""
"null","sound/msl/boing.wav","null","audio-keyboard-response","396","232435","0.0-7.0-2.0","",""
"null","sound/asl/silence.wav","null","audio-keyboard-response","397","232936","0.0-7.0-3.0","",""
"null","sound/msl/door.wav","null","audio-keyboard-response","398","233446","0.0-7.0-4.0","",""
"null","sound/msl/door_bell.wav","null","audio-keyboard-response","399","233965","0.0-7.0-5.0","",""
"null","sound/msl/cow.wav","null","audio-keyboard-response","400","234485","0.0-7.0-6.0","",""
"709","sound/asl/silence.wav","50","audio-keyboard-response","401","235203","0.0-7.0-7.0","true",""
"null","sound/msl/bird.wav","null","audio-keyboard-response","402","235715","0.0-8.0-0.0","",""
"null","sound/msl/door_bell.wav","null","audio-keyboard-response","403","236231","0.0-8.0-1.0","",""
"null","sound/msl/boing.wav","null","audio-keyboard-response","404","236740","0.0-8.0-2.0","",""
"null","sound/asl/silence.wav","null","audio-keyboard-response","405","237242","0.0-8.0-3.0","",""
"null","sound/msl/clock.wav","null","audio-keyboard-response","406","237800","0.0-8.0-4.0","",""
"null","sound/msl/cat.wav","null","audio-keyboard-response","407","238311","0.0-8.0-5.0","",""
"null","sound/msl/duck.wav","null","audio-keyboard-response","408","238831","0.0-8.0-6.0","",""
"341","sound/asl/silence.wav","50","audio-keyboard-response","409","239178","0.0-8.0-7.0","true",""
"null","sound/msl/door.wav","null","audio-keyboard-response","410","239681","0.0-9.0-0.0","",""
"null","sound/msl/ding.wav","null","audio-keyboard-response","411","240201","0.0-9.0-1.0","",""
"null","sound/msl/organ.wav","null","audio-keyboard-response","412","240711","0.0-9.0-2.0","",""
"null","sound/asl/silence.wav","null","audio-keyboard-response","413","241213","0.0-9.0-3.0","",""
"null","sound/msl/clock.wav","null","audio-keyboard-response","414","241771","0.0-9.0-4.0","",""
"null","sound/msl/cat.wav","null","audio-keyboard-response","415","242282","0.0-9.0-5.0","",""
"null","sound/msl/duck.wav","null","audio-keyboard-response","416","242801","0.0-9.0-6.0","",""
"699","sound/asl/silence.wav","49","audio-keyboard-response","417","243508","0.0-9.0-7.0","false",""
"null","sound/msl/clock.wav","null","audio-keyboard-response","418","244061","0.0-10.0-0.0","",""
"null","sound/msl/slide_whistle.wav","null","audio-keyboard-response","419","244571","0.0-10.0-1.0","",""
"null","sound/msl/cow.wav","null","audio-keyboard-response","420","245081","0.0-10.0-2.0","",""
"null","sound/asl/silence.wav","null","audio-keyboard-response","421","245583","0.0-10.0-3.0","",""
"null","sound/msl/dog.wav","null","audio-keyboard-response","422","246092","0.0-10.0-4.0","",""
"null","sound/msl/Water.wav","null","audio-keyboard-response","423","246612","0.0-10.0-5.0","",""
"null","sound/msl/organ.wav","null","audio-keyboard-response","424","247123","0.0-10.0-6.0","",""
"539","sound/asl/silence.wav","50","audio-keyboard-response","425","247663","0.0-10.0-7.0","true",""
"null","sound/msl/door.wav","null","audio-keyboard-response","426","248173","0.0-11.0-0.0","",""
"null","sound/msl/ding.wav","null","audio-keyboard-response","427","248682","0.0-11.0-1.0","",""
"null","sound/msl/organ.wav","null","audio-keyboard-response","428","249193","0.0-11.0-2.0","",""
"null","sound/asl/silence.wav","null","audio-keyboard-response","429","249693","0.0-11.0-3.0","",""
"null","sound/msl/goat.wav","null","audio-keyboard-response","430","250243","0.0-11.0-4.0","",""
"null","sound/msl/ding.wav","null","audio-keyboard-response","431","250763","0.0-11.0-5.0","",""
"null","sound/msl/boing.wav","null","audio-keyboard-response","432","251273","0.0-11.0-6.0","",""
"931","sound/asl/silence.wav","50","audio-keyboard-response","433","252207","0.0-11.0-7.0","true",""
"null","sound/msl/clock.wav","null","audio-keyboard-response","434","252763","0.0-12.0-0.0","",""
"null","sound/msl/slide_whistle.wav","null","audio-keyboard-response","435","253283","0.0-12.0-1.0","",""
"null","sound/msl/cow.wav","null","audio-keyboard-response","436","253802","0.0-12.0-2.0","",""
"null","sound/asl/silence.wav","null","audio-keyboard-response","437","254304","0.0-12.0-3.0","",""
"null","sound/msl/clock.wav","null","audio-keyboard-response","438","254863","0.0-12.0-4.0","",""
"null","sound/msl/cat.wav","null","audio-keyboard-response","439","255373","0.0-12.0-5.0","",""
"null","sound/msl/duck.wav","null","audio-keyboard-response","440","255883","0.0-12.0-6.0","",""
"360","sound/asl/silence.wav","50","audio-keyboard-response","441","256251","0.0-12.0-7.0","true",""
"null","sound/msl/dog.wav","null","audio-keyboard-response","442","256764","0.0-13.0-0.0","",""
"null","sound/msl/Water.wav","null","audio-keyboard-response","443","257285","0.0-13.0-1.0","",""
"null","sound/msl/organ.wav","null","audio-keyboard-response","444","257794","0.0-13.0-2.0","",""
"null","sound/asl/silence.wav","null","audio-keyboard-response","445","258297","0.0-13.0-3.0","",""
"null","sound/msl/goat.wav","null","audio-keyboard-response","446","258844","0.0-13.0-4.0","",""
"null","sound/msl/Water.wav","null","audio-keyboard-response","447","259364","0.0-13.0-5.0","",""
"null","sound/msl/duck.wav","null","audio-keyboard-response","448","259884","0.0-13.0-6.0","",""
"309","sound/asl/silence.wav","49","audio-keyboard-response","449","260201","0.0-13.0-7.0","true",""
"null","sound/msl/door.wav","null","audio-keyboard-response","450","260704","0.0-14.0-0.0","",""
"null","sound/msl/door_bell.wav","null","audio-keyboard-response","451","261215","0.0-14.0-1.0","",""
"null","sound/msl/cow.wav","null","audio-keyboard-response","452","261724","0.0-14.0-2.0","",""
"null","sound/asl/silence.wav","null","audio-keyboard-response","453","262229","0.0-14.0-3.0","",""
"null","sound/msl/dog.wav","null","audio-keyboard-response","454","262734","0.0-14.0-4.0","",""
"null","sound/msl/cat.wav","null","audio-keyboard-response","455","263244","0.0-14.0-5.0","",""
"null","sound/msl/frog.wav","null","audio-keyboard-response","456","263764","0.0-14.0-6.0","",""
"299","sound/asl/silence.wav","49","audio-keyboard-response","457","264069","0.0-14.0-7.0","true",""
"null","sound/msl/goat.wav","null","audio-keyboard-response","458","264614","0.0-15.0-0.0","",""
"null","sound/msl/Water.wav","null","audio-keyboard-response","459","265135","0.0-15.0-1.0","",""
"null","sound/msl/duck.wav","null","audio-keyboard-response","460","265644","0.0-15.0-2.0","",""
"null","sound/asl/silence.wav","null","audio-keyboard-response","461","266147","0.0-15.0-3.0","",""
"null","sound/msl/door.wav","null","audio-keyboard-response","462","266655","0.0-15.0-4.0","",""
"null","sound/msl/door_bell.wav","null","audio-keyboard-response","463","267165","0.0-15.0-5.0","",""
"null","sound/msl/cow.wav","null","audio-keyboard-response","464","267685","0.0-15.0-6.0","",""
"360","sound/asl/silence.wav","50","audio-keyboard-response","465","268055","0.0-15.0-7.0","true",""
"null","sound/msl/dog.wav","null","audio-keyboard-response","466","268564","0.0-16.0-0.0","",""
"null","sound/msl/Water.wav","null","audio-keyboard-response","467","269084","0.0-16.0-1.0","",""
"null","sound/msl/organ.wav","null","audio-keyboard-response","468","269595","0.0-16.0-2.0","",""
"null","sound/asl/silence.wav","null","audio-keyboard-response","469","270096","0.0-16.0-3.0","",""
"null","sound/msl/bird.wav","null","audio-keyboard-response","470","270605","0.0-16.0-4.0","",""
"null","sound/msl/door_bell.wav","null","audio-keyboard-response","471","271126","0.0-16.0-5.0","",""
"null","sound/msl/boing.wav","null","audio-keyboard-response","472","271635","0.0-16.0-6.0","",""
"291","sound/asl/silence.wav","49","audio-keyboard-response","473","271927","0.0-16.0-7.0","true",""
"null","sound/msl/clock.wav","null","audio-keyboard-response","474","272485","0.0-17.0-0.0","",""
"null","sound/msl/slide_whistle.wav","null","audio-keyboard-response","475","273006","0.0-17.0-1.0","",""
"null","sound/msl/cow.wav","null","audio-keyboard-response","476","273525","0.0-17.0-2.0","",""
"null","sound/asl/silence.wav","null","audio-keyboard-response","477","274027","0.0-17.0-3.0","",""
"null","sound/msl/goat.wav","null","audio-keyboard-response","478","274576","0.0-17.0-4.0","",""
"null","sound/msl/ding.wav","null","audio-keyboard-response","479","275086","0.0-17.0-5.0","",""
"null","sound/msl/boing.wav","null","audio-keyboard-response","480","275596","0.0-17.0-6.0","",""
"331","sound/asl/silence.wav","50","audio-keyboard-response","481","275931","0.0-17.0-7.0","true",""
"null","sound/msl/door.wav","null","audio-keyboard-response","482","276436","0.0-18.0-0.0","",""
"null","sound/msl/door_bell.wav","null","audio-keyboard-response","483","276951","0.0-18.0-1.0","",""
"null","sound/msl/cow.wav","null","audio-keyboard-response","484","277472","0.0-18.0-2.0","",""
"null","sound/asl/silence.wav","null","audio-keyboard-response","485","277973","0.0-18.0-3.0","",""
"null","sound/msl/clock.wav","null","audio-keyboard-response","486","278531","0.0-18.0-4.0","",""
"null","sound/msl/slide_whistle.wav","null","audio-keyboard-response","487","279042","0.0-18.0-5.0","",""
"null","sound/msl/cow.wav","null","audio-keyboard-response","488","279561","0.0-18.0-6.0","",""
"280","sound/asl/silence.wav","49","audio-keyboard-response","489","279843","0.0-18.0-7.0","true",""
"null","sound/msl/goat.wav","null","audio-keyboard-response","490","280392","0.0-19.0-0.0","",""
"null","sound/msl/ding.wav","null","audio-keyboard-response","491","280911","0.0-19.0-1.0","",""
"null","sound/msl/boing.wav","null","audio-keyboard-response","492","281422","0.0-19.0-2.0","",""
"null","sound/asl/silence.wav","null","audio-keyboard-response","493","281923","0.0-19.0-3.0","",""
"null","sound/msl/dog.wav","null","audio-keyboard-response","494","282441","0.0-19.0-4.0","",""
"null","sound/msl/cat.wav","null","audio-keyboard-response","495","282951","0.0-19.0-5.0","",""
"null","sound/msl/frog.wav","null","audio-keyboard-response","496","283472","0.0-19.0-6.0","",""
"309","sound/asl/silence.wav","50","audio-keyboard-response","497","283786","0.0-19.0-7.0","false",""
"null","sound/msl/bird.wav","null","audio-keyboard-response","498","284292","0.0-20.0-0.0","",""
"null","sound/msl/slide_whistle.wav","null","audio-keyboard-response","499","284802","0.0-20.0-1.0","",""
"null","sound/msl/frog.wav","null","audio-keyboard-response","500","285322","0.0-20.0-2.0","",""
"null","sound/asl/silence.wav","null","audio-keyboard-response","501","285823","0.0-20.0-3.0","",""
"null","sound/msl/clock.wav","null","audio-keyboard-response","502","286382","0.0-20.0-4.0","",""
"null","sound/msl/slide_whistle.wav","null","audio-keyboard-response","503","286892","0.0-20.0-5.0","",""
"null","sound/msl/cow.wav","null","audio-keyboard-response","504","287402","0.0-20.0-6.0","",""
"291","sound/asl/silence.wav","50","audio-keyboard-response","505","287693","0.0-20.0-7.0","false",""
"null","sound/msl/clock.wav","null","audio-keyboard-response","506","288252","0.0-21.0-0.0","",""
"null","sound/msl/cat.wav","null","audio-keyboard-response","507","288763","0.0-21.0-1.0","",""
"null","sound/msl/duck.wav","null","audio-keyboard-response","508","289282","0.0-21.0-2.0","",""
"null","sound/asl/silence.wav","null","audio-keyboard-response","509","289783","0.0-21.0-3.0","",""
"null","sound/msl/goat.wav","null","audio-keyboard-response","510","290333","0.0-21.0-4.0","",""
"null","sound/msl/Water.wav","null","audio-keyboard-response","511","290853","0.0-21.0-5.0","",""
"null","sound/msl/duck.wav","null","audio-keyboard-response","512","291362","0.0-21.0-6.0","",""
"459","sound/asl/silence.wav","50","audio-keyboard-response","513","291831","0.0-21.0-7.0","false",""
"null","sound/msl/door.wav","null","audio-keyboard-response","514","292343","0.0-22.0-0.0","",""
"null","sound/msl/ding.wav","null","audio-keyboard-response","515","292853","0.0-22.0-1.0","",""
"null","sound/msl/organ.wav","null","audio-keyboard-response","516","293363","0.0-22.0-2.0","",""
"null","sound/asl/silence.wav","null","audio-keyboard-response","517","293864","0.0-22.0-3.0","",""
"null","sound/msl/dog.wav","null","audio-keyboard-response","518","294373","0.0-22.0-4.0","",""
"null","sound/msl/Water.wav","null","audio-keyboard-response","519","294894","0.0-22.0-5.0","",""
"null","sound/msl/organ.wav","null","audio-keyboard-response","520","295403","0.0-22.0-6.0","",""
"400","sound/asl/silence.wav","49","audio-keyboard-response","521","295812","0.0-22.0-7.0","false",""
"null","sound/msl/goat.wav","null","audio-keyboard-response","522","296364","0.0-23.0-0.0","",""
"null","sound/msl/Water.wav","null","audio-keyboard-response","523","296884","0.0-23.0-1.0","",""
"null","sound/msl/duck.wav","null","audio-keyboard-response","524","297404","0.0-23.0-2.0","",""
"null","sound/asl/silence.wav","null","audio-keyboard-response","525","297905","0.0-23.0-3.0","",""
"null","sound/msl/bird.wav","null","audio-keyboard-response","526","298413","0.0-23.0-4.0","",""
"null","sound/msl/slide_whistle.wav","null","audio-keyboard-response","527","298923","0.0-23.0-5.0","",""
"null","sound/msl/frog.wav","null","audio-keyboard-response","528","299444","0.0-23.0-6.0","",""
"229","sound/asl/silence.wav","50","audio-keyboard-response","529","299682","0.0-23.0-7.0","true",""
"null","sound/msl/dog.wav","null","audio-keyboard-response","530","300194","0.0-24.0-0.0","",""
"null","sound/msl/Water.wav","null","audio-keyboard-response","531","300714","0.0-24.0-1.0","",""
"null","sound/msl/organ.wav","null","audio-keyboard-response","532","301224","0.0-24.0-2.0","",""
"null","sound/asl/silence.wav","null","audio-keyboard-response","533","301726","0.0-24.0-3.0","",""
"null","sound/msl/dog.wav","null","audio-keyboard-response","534","302244","0.0-24.0-4.0","",""
"null","sound/msl/cat.wav","null","audio-keyboard-response","535","302755","0.0-24.0-5.0","",""
"null","sound/msl/frog.wav","null","audio-keyboard-response","536","303275","0.0-24.0-6.0","",""
"560","sound/asl/silence.wav","50","audio-keyboard-response","537","303840","0.0-24.0-7.0","false",""
"null","sound/msl/bird.wav","null","audio-keyboard-response","538","304355","0.0-25.0-0.0","",""
"null","sound/msl/slide_whistle.wav","null","audio-keyboard-response","539","304875","0.0-25.0-1.0","",""
"null","sound/msl/frog.wav","null","audio-keyboard-response","540","305395","0.0-25.0-2.0","",""
"null","sound/asl/silence.wav","null","audio-keyboard-response","541","305896","0.0-25.0-3.0","",""
"null","sound/msl/door.wav","null","audio-keyboard-response","542","306405","0.0-25.0-4.0","",""
"null","sound/msl/ding.wav","null","audio-keyboard-response","543","306925","0.0-25.0-5.0","",""
"null","sound/msl/organ.wav","null","audio-keyboard-response","544","307434","0.0-25.0-6.0","",""
"581","sound/asl/silence.wav","49","audio-keyboard-response","545","308024","0.0-25.0-7.0","true",""
"null","sound/msl/bird.wav","null","audio-keyboard-response","546","308535","0.0-26.0-0.0","",""
"null","sound/msl/slide_whistle.wav","null","audio-keyboard-response","547","309045","0.0-26.0-1.0","",""
"null","sound/msl/frog.wav","null","audio-keyboard-response","548","309566","0.0-26.0-2.0","",""
"451","sound/asl/silence.wav","49","audio-keyboard-response","549","310016","0.0-26.0-3.0","",""
"null","sound/msl/bird.wav","null","audio-keyboard-response","550","310526","0.0-26.0-4.0","",""
"null","sound/msl/door_bell.wav","null","audio-keyboard-response","551","311046","0.0-26.0-5.0","",""
"null","sound/msl/boing.wav","null","audio-keyboard-response","552","311556","0.0-26.0-6.0","",""
"1509","sound/asl/silence.wav","49","audio-keyboard-response","553","313070","0.0-26.0-7.0","true",""
"null","sound/msl/door.wav","null","audio-keyboard-response","554","313576","0.0-27.0-0.0","",""
"null","sound/msl/ding.wav","null","audio-keyboard-response","555","314086","0.0-27.0-1.0","",""
"null","sound/msl/organ.wav","null","audio-keyboard-response","556","314595","0.0-27.0-2.0","",""
"null","sound/asl/silence.wav","null","audio-keyboard-response","557","315098","0.0-27.0-3.0","",""
"null","sound/msl/door.wav","null","audio-keyboard-response","558","315606","0.0-27.0-4.0","",""
"null","sound/msl/door_bell.wav","null","audio-keyboard-response","559","316126","0.0-27.0-5.0","",""
"null","sound/msl/cow.wav","null","audio-keyboard-response","560","316647","0.0-27.0-6.0","",""
"589","sound/asl/silence.wav","50","audio-keyboard-response","561","317237","0.0-27.0-7.0","true",""
"3436","","","instructions","562","320675","0.0-28.0","","[{""page_index"":0,""viewing_time"":3436}]"
