"rt","stimulus","key_press","trial_type","trial_index","time_elapsed","internal_node_id","correct","view_history"
"11252","alien.jpg","49","image-keyboard-response","0","11255","0.0-0.0","",""
"null","sound/msl/cat.wav","null","audio-keyboard-response","1","11750","0.0-1.0-0.0","",""
"null","sound/msl/door_bell.wav","null","audio-keyboard-response","2","12250","0.0-1.0-1.0","",""
"null","sound/msl/goat.wav","null","audio-keyboard-response","3","12790","0.0-1.0-2.0","",""
"null","sound/msl/bird.wav","null","audio-keyboard-response","4","13290","0.0-1.0-3.0","",""
"null","sound/msl/duck.wav","null","audio-keyboard-response","5","13799","0.0-1.0-4.0","",""
"null","sound/msl/door.wav","null","audio-keyboard-response","6","14300","0.0-1.0-5.0","",""
"null","sound/msl/organ.wav","null","audio-keyboard-response","7","14800","0.0-1.0-6.0","",""
"null","sound/msl/boing.wav","null","audio-keyboard-response","8","15299","0.0-1.0-7.0","",""
"null","sound/msl/clock.wav","null","audio-keyboard-response","9","15849","0.0-1.0-8.0","",""
"null","sound/msl/dog.wav","null","audio-keyboard-response","10","16359","0.0-1.0-9.0","",""
"null","sound/msl/frog.wav","null","audio-keyboard-response","11","16860","0.0-1.0-10.0","",""
"null","sound/msl/slide_whistle.wav","null","audio-keyboard-response","12","17360","0.0-1.0-11.0","",""
"null","sound/msl/bird.wav","null","audio-keyboard-response","13","17859","0.0-1.0-12.0","",""
"null","sound/msl/duck.wav","null","audio-keyboard-response","14","18370","0.0-1.0-13.0","",""
"null","sound/msl/door.wav","null","audio-keyboard-response","15","18870","0.0-1.0-14.0","",""
"null","sound/msl/cat.wav","null","audio-keyboard-response","16","19370","0.0-1.0-15.0","",""
"null","sound/msl/door_bell.wav","null","audio-keyboard-response","17","19880","0.0-1.0-16.0","",""
"null","sound/msl/goat.wav","null","audio-keyboard-response","18","20420","0.0-1.0-17.0","",""
"null","sound/msl/ding.wav","null","audio-keyboard-response","19","20930","0.0-1.0-18.0","",""
"null","sound/msl/cow.wav","null","audio-keyboard-response","20","21440","0.0-1.0-19.0","",""
"null","sound/msl/Water.wav","null","audio-keyboard-response","21","21950","0.0-1.0-20.0","",""
"null","sound/msl/dog.wav","null","audio-keyboard-response","22","22450","0.0-1.0-21.0","",""
"null","sound/msl/frog.wav","null","audio-keyboard-response","23","22960","0.0-1.0-22.0","",""
"null","sound/msl/slide_whistle.wav","null","audio-keyboard-response","24","23461","0.0-1.0-23.0","",""
"null","sound/msl/organ.wav","null","audio-keyboard-response","25","23960","0.0-1.0-24.0","",""
"null","sound/msl/boing.wav","null","audio-keyboard-response","26","24461","0.0-1.0-25.0","",""
"null","sound/msl/clock.wav","null","audio-keyboard-response","27","25010","0.0-1.0-26.0","",""
"null","sound/msl/cat.wav","null","audio-keyboard-response","28","25510","0.0-1.0-27.0","",""
"null","sound/msl/door_bell.wav","null","audio-keyboard-response","29","26011","0.0-1.0-28.0","",""
"null","sound/msl/goat.wav","null","audio-keyboard-response","30","26551","0.0-1.0-29.0","",""
"null","sound/msl/bird.wav","null","audio-keyboard-response","31","27051","0.0-1.0-30.0","",""
"null","sound/msl/duck.wav","null","audio-keyboard-response","32","27561","0.0-1.0-31.0","",""
"null","sound/msl/door.wav","null","audio-keyboard-response","33","28061","0.0-1.0-32.0","",""
"null","sound/msl/ding.wav","null","audio-keyboard-response","34","28571","0.0-1.0-33.0","",""
"null","sound/msl/cow.wav","null","audio-keyboard-response","35","29081","0.0-1.0-34.0","",""
"null","sound/msl/Water.wav","null","audio-keyboard-response","36","29591","0.0-1.0-35.0","",""
"null","sound/msl/organ.wav","null","audio-keyboard-response","37","30092","0.0-1.0-36.0","",""
"null","sound/msl/boing.wav","null","audio-keyboard-response","38","30592","0.0-1.0-37.0","",""
"null","sound/msl/clock.wav","null","audio-keyboard-response","39","31141","0.0-1.0-38.0","",""
"null","sound/msl/dog.wav","null","audio-keyboard-response","40","31651","0.0-1.0-39.0","",""
"null","sound/msl/frog.wav","null","audio-keyboard-response","41","32162","0.0-1.0-40.0","",""
"null","sound/msl/slide_whistle.wav","null","audio-keyboard-response","42","32662","0.0-1.0-41.0","",""
"null","sound/msl/ding.wav","null","audio-keyboard-response","43","33167","0.0-1.0-42.0","",""
"null","sound/msl/cow.wav","null","audio-keyboard-response","44","33677","0.0-1.0-43.0","",""
"null","sound/msl/Water.wav","null","audio-keyboard-response","45","34187","0.0-1.0-44.0","",""
"null","sound/msl/bird.wav","null","audio-keyboard-response","46","34687","0.0-1.0-45.0","",""
"null","sound/msl/duck.wav","null","audio-keyboard-response","47","35197","0.0-1.0-46.0","",""
"null","sound/msl/door.wav","null","audio-keyboard-response","48","35697","0.0-1.0-47.0","",""
"null","sound/msl/organ.wav","null","audio-keyboard-response","49","36197","0.0-1.0-48.0","",""
"null","sound/msl/boing.wav","null","audio-keyboard-response","50","36697","0.0-1.0-49.0","",""
"null","sound/msl/clock.wav","null","audio-keyboard-response","51","37248","0.0-1.0-50.0","",""
"null","sound/msl/cat.wav","null","audio-keyboard-response","52","37747","0.0-1.0-51.0","",""
"null","sound/msl/door_bell.wav","null","audio-keyboard-response","53","38247","0.0-1.0-52.0","",""
"null","sound/msl/goat.wav","null","audio-keyboard-response","54","38787","0.0-1.0-53.0","",""
"null","sound/msl/bird.wav","null","audio-keyboard-response","55","39287","0.0-1.0-54.0","",""
"null","sound/msl/duck.wav","null","audio-keyboard-response","56","39796","0.0-1.0-55.0","",""
"null","sound/msl/door.wav","null","audio-keyboard-response","57","40298","0.0-1.0-56.0","",""
"null","sound/msl/organ.wav","null","audio-keyboard-response","58","40798","0.0-1.0-57.0","",""
"null","sound/msl/boing.wav","null","audio-keyboard-response","59","41298","0.0-1.0-58.0","",""
"null","sound/msl/clock.wav","null","audio-keyboard-response","60","41848","0.0-1.0-59.0","",""
"null","sound/msl/dog.wav","null","audio-keyboard-response","61","42358","0.0-1.0-60.0","",""
"null","sound/msl/frog.wav","null","audio-keyboard-response","62","42858","0.0-1.0-61.0","",""
"null","sound/msl/slide_whistle.wav","null","audio-keyboard-response","63","43358","0.0-1.0-62.0","",""
"null","sound/msl/ding.wav","null","audio-keyboard-response","64","43858","0.0-1.0-63.0","",""
"null","sound/msl/cow.wav","null","audio-keyboard-response","65","44368","0.0-1.0-64.0","",""
"null","sound/msl/Water.wav","null","audio-keyboard-response","66","44879","0.0-1.0-65.0","",""
"null","sound/msl/bird.wav","null","audio-keyboard-response","67","45379","0.0-1.0-66.0","",""
"null","sound/msl/duck.wav","null","audio-keyboard-response","68","45889","0.0-1.0-67.0","",""
"null","sound/msl/door.wav","null","audio-keyboard-response","69","46388","0.0-1.0-68.0","",""
"null","sound/msl/cat.wav","null","audio-keyboard-response","70","46888","0.0-1.0-69.0","",""
"null","sound/msl/door_bell.wav","null","audio-keyboard-response","71","47398","0.0-1.0-70.0","",""
"null","sound/msl/goat.wav","null","audio-keyboard-response","72","47939","0.0-1.0-71.0","",""
"null","sound/msl/organ.wav","null","audio-keyboard-response","73","48438","0.0-1.0-72.0","",""
"null","sound/msl/boing.wav","null","audio-keyboard-response","74","48939","0.0-1.0-73.0","",""
"null","sound/msl/clock.wav","null","audio-keyboard-response","75","49488","0.0-1.0-74.0","",""
"null","sound/msl/dog.wav","null","audio-keyboard-response","76","49999","0.0-1.0-75.0","",""
"null","sound/msl/frog.wav","null","audio-keyboard-response","77","50499","0.0-1.0-76.0","",""
"null","sound/msl/slide_whistle.wav","null","audio-keyboard-response","78","50999","0.0-1.0-77.0","",""
"null","sound/msl/organ.wav","null","audio-keyboard-response","79","51499","0.0-1.0-78.0","",""
"null","sound/msl/boing.wav","null","audio-keyboard-response","80","52000","0.0-1.0-79.0","",""
"null","sound/msl/clock.wav","null","audio-keyboard-response","81","52550","0.0-1.0-80.0","",""
"null","sound/msl/ding.wav","null","audio-keyboard-response","82","53049","0.0-1.0-81.0","",""
"null","sound/msl/cow.wav","null","audio-keyboard-response","83","53560","0.0-1.0-82.0","",""
"null","sound/msl/Water.wav","null","audio-keyboard-response","84","54070","0.0-1.0-83.0","",""
"null","sound/msl/cat.wav","null","audio-keyboard-response","85","54569","0.0-1.0-84.0","",""
"null","sound/msl/door_bell.wav","null","audio-keyboard-response","86","55079","0.0-1.0-85.0","",""
"null","sound/msl/goat.wav","null","audio-keyboard-response","87","55620","0.0-1.0-86.0","",""
"null","sound/msl/bird.wav","null","audio-keyboard-response","88","56130","0.0-1.0-87.0","",""
"null","sound/msl/duck.wav","null","audio-keyboard-response","89","56640","0.0-1.0-88.0","",""
"null","sound/msl/door.wav","null","audio-keyboard-response","90","57140","0.0-1.0-89.0","",""
"null","sound/msl/ding.wav","null","audio-keyboard-response","91","57650","0.0-1.0-90.0","",""
"null","sound/msl/cow.wav","null","audio-keyboard-response","92","58160","0.0-1.0-91.0","",""
"null","sound/msl/Water.wav","null","audio-keyboard-response","93","58671","0.0-1.0-92.0","",""
"null","sound/msl/dog.wav","null","audio-keyboard-response","94","59170","0.0-1.0-93.0","",""
"null","sound/msl/frog.wav","null","audio-keyboard-response","95","59680","0.0-1.0-94.0","",""
"null","sound/msl/slide_whistle.wav","null","audio-keyboard-response","96","60181","0.0-1.0-95.0","",""
"null","sound/msl/organ.wav","null","audio-keyboard-response","97","60681","0.0-1.0-96.0","",""
"null","sound/msl/boing.wav","null","audio-keyboard-response","98","61180","0.0-1.0-97.0","",""
"null","sound/msl/clock.wav","null","audio-keyboard-response","99","61730","0.0-1.0-98.0","",""
"null","sound/msl/bird.wav","null","audio-keyboard-response","100","62240","0.0-1.0-99.0","",""
"null","sound/msl/duck.wav","null","audio-keyboard-response","101","62741","0.0-1.0-100.0","",""
"null","sound/msl/door.wav","null","audio-keyboard-response","102","63241","0.0-1.0-101.0","",""
"null","sound/msl/ding.wav","null","audio-keyboard-response","103","63741","0.0-1.0-102.0","",""
"null","sound/msl/cow.wav","null","audio-keyboard-response","104","64250","0.0-1.0-103.0","",""
"null","sound/msl/Water.wav","null","audio-keyboard-response","105","64760","0.0-1.0-104.0","",""
"null","sound/msl/cat.wav","null","audio-keyboard-response","106","65261","0.0-1.0-105.0","",""
"null","sound/msl/door_bell.wav","null","audio-keyboard-response","107","65771","0.0-1.0-106.0","",""
"null","sound/msl/goat.wav","null","audio-keyboard-response","108","66311","0.0-1.0-107.0","",""
"null","sound/msl/bird.wav","null","audio-keyboard-response","109","66811","0.0-1.0-108.0","",""
"null","sound/msl/duck.wav","null","audio-keyboard-response","110","67322","0.0-1.0-109.0","",""
"null","sound/msl/door.wav","null","audio-keyboard-response","111","67821","0.0-1.0-110.0","",""
"null","sound/msl/dog.wav","null","audio-keyboard-response","112","68331","0.0-1.0-111.0","",""
"null","sound/msl/frog.wav","null","audio-keyboard-response","113","68842","0.0-1.0-112.0","",""
"null","sound/msl/slide_whistle.wav","null","audio-keyboard-response","114","69341","0.0-1.0-113.0","",""
"null","sound/msl/ding.wav","null","audio-keyboard-response","115","69851","0.0-1.0-114.0","",""
"null","sound/msl/cow.wav","null","audio-keyboard-response","116","70362","0.0-1.0-115.0","",""
"null","sound/msl/Water.wav","null","audio-keyboard-response","117","70872","0.0-1.0-116.0","",""
"null","sound/msl/organ.wav","null","audio-keyboard-response","118","71371","0.0-1.0-117.0","",""
"null","sound/msl/boing.wav","null","audio-keyboard-response","119","71872","0.0-1.0-118.0","",""
"null","sound/msl/clock.wav","null","audio-keyboard-response","120","72422","0.0-1.0-119.0","",""
"null","sound/msl/cat.wav","null","audio-keyboard-response","121","72922","0.0-1.0-120.0","",""
"null","sound/msl/door_bell.wav","null","audio-keyboard-response","122","73422","0.0-1.0-121.0","",""
"null","sound/msl/goat.wav","null","audio-keyboard-response","123","73962","0.0-1.0-122.0","",""
"null","sound/msl/bird.wav","null","audio-keyboard-response","124","74457","0.0-1.0-123.0","",""
"null","sound/msl/duck.wav","null","audio-keyboard-response","125","74967","0.0-1.0-124.0","",""
"null","sound/msl/door.wav","null","audio-keyboard-response","126","75468","0.0-1.0-125.0","",""
"null","sound/msl/ding.wav","null","audio-keyboard-response","127","75967","0.0-1.0-126.0","",""
"null","sound/msl/cow.wav","null","audio-keyboard-response","128","76477","0.0-1.0-127.0","",""
"null","sound/msl/Water.wav","null","audio-keyboard-response","129","76987","0.0-1.0-128.0","",""
"null","sound/msl/dog.wav","null","audio-keyboard-response","130","77488","0.0-1.0-129.0","",""
"null","sound/msl/frog.wav","null","audio-keyboard-response","131","77998","0.0-1.0-130.0","",""
"null","sound/msl/slide_whistle.wav","null","audio-keyboard-response","132","78497","0.0-1.0-131.0","",""
"null","sound/msl/bird.wav","null","audio-keyboard-response","133","79007","0.0-1.0-132.0","",""
"null","sound/msl/duck.wav","null","audio-keyboard-response","134","79518","0.0-1.0-133.0","",""
"null","sound/msl/door.wav","null","audio-keyboard-response","135","80018","0.0-1.0-134.0","",""
"null","sound/msl/organ.wav","null","audio-keyboard-response","136","80518","0.0-1.0-135.0","",""
"null","sound/msl/boing.wav","null","audio-keyboard-response","137","81018","0.0-1.0-136.0","",""
"null","sound/msl/clock.wav","null","audio-keyboard-response","138","81568","0.0-1.0-137.0","",""
"null","sound/msl/dog.wav","null","audio-keyboard-response","139","82079","0.0-1.0-138.0","",""
"null","sound/msl/frog.wav","null","audio-keyboard-response","140","82579","0.0-1.0-139.0","",""
"null","sound/msl/slide_whistle.wav","null","audio-keyboard-response","141","83078","0.0-1.0-140.0","",""
"null","sound/msl/cat.wav","null","audio-keyboard-response","142","83578","0.0-1.0-141.0","",""
"null","sound/msl/door_bell.wav","null","audio-keyboard-response","143","84088","0.0-1.0-142.0","",""
"null","sound/msl/goat.wav","null","audio-keyboard-response","144","84628","0.0-1.0-143.0","",""
"null","sound/msl/ding.wav","null","audio-keyboard-response","145","85129","0.0-1.0-144.0","",""
"null","sound/msl/cow.wav","null","audio-keyboard-response","146","85639","0.0-1.0-145.0","",""
"null","sound/msl/Water.wav","null","audio-keyboard-response","147","86148","0.0-1.0-146.0","",""
"null","sound/msl/organ.wav","null","audio-keyboard-response","148","86649","0.0-1.0-147.0","",""
"null","sound/msl/boing.wav","null","audio-keyboard-response","149","87149","0.0-1.0-148.0","",""
"null","sound/msl/clock.wav","null","audio-keyboard-response","150","87698","0.0-1.0-149.0","",""
"null","sound/msl/cat.wav","null","audio-keyboard-response","151","88199","0.0-1.0-150.0","",""
"null","sound/msl/door_bell.wav","null","audio-keyboard-response","152","88699","0.0-1.0-151.0","",""
"null","sound/msl/goat.wav","null","audio-keyboard-response","153","89239","0.0-1.0-152.0","",""
"null","sound/msl/bird.wav","null","audio-keyboard-response","154","89739","0.0-1.0-153.0","",""
"null","sound/msl/duck.wav","null","audio-keyboard-response","155","90249","0.0-1.0-154.0","",""
"null","sound/msl/door.wav","null","audio-keyboard-response","156","90749","0.0-1.0-155.0","",""
"null","sound/msl/dog.wav","null","audio-keyboard-response","157","91249","0.0-1.0-156.0","",""
"null","sound/msl/frog.wav","null","audio-keyboard-response","158","91760","0.0-1.0-157.0","",""
"null","sound/msl/slide_whistle.wav","null","audio-keyboard-response","159","92260","0.0-1.0-158.0","",""
"null","sound/msl/ding.wav","null","audio-keyboard-response","160","92769","0.0-1.0-159.0","",""
"null","sound/msl/cow.wav","null","audio-keyboard-response","161","93279","0.0-1.0-160.0","",""
"null","sound/msl/Water.wav","null","audio-keyboard-response","162","93790","0.0-1.0-161.0","",""
"null","sound/msl/bird.wav","null","audio-keyboard-response","163","94290","0.0-1.0-162.0","",""
"null","sound/msl/duck.wav","null","audio-keyboard-response","164","94799","0.0-1.0-163.0","",""
"null","sound/msl/door.wav","null","audio-keyboard-response","165","95300","0.0-1.0-164.0","",""
"null","sound/msl/dog.wav","null","audio-keyboard-response","166","95810","0.0-1.0-165.0","",""
"null","sound/msl/frog.wav","null","audio-keyboard-response","167","96320","0.0-1.0-166.0","",""
"null","sound/msl/slide_whistle.wav","null","audio-keyboard-response","168","96821","0.0-1.0-167.0","",""
"null","sound/msl/cat.wav","null","audio-keyboard-response","169","97320","0.0-1.0-168.0","",""
"null","sound/msl/door_bell.wav","null","audio-keyboard-response","170","97820","0.0-1.0-169.0","",""
"null","sound/msl/goat.wav","null","audio-keyboard-response","171","98360","0.0-1.0-170.0","",""
"null","sound/msl/organ.wav","null","audio-keyboard-response","172","98860","0.0-1.0-171.0","",""
"null","sound/msl/boing.wav","null","audio-keyboard-response","173","99361","0.0-1.0-172.0","",""
"null","sound/msl/clock.wav","null","audio-keyboard-response","174","99911","0.0-1.0-173.0","",""
"null","sound/msl/ding.wav","null","audio-keyboard-response","175","100410","0.0-1.0-174.0","",""
"null","sound/msl/cow.wav","null","audio-keyboard-response","176","100921","0.0-1.0-175.0","",""
"null","sound/msl/Water.wav","null","audio-keyboard-response","177","101431","0.0-1.0-176.0","",""
"null","sound/msl/bird.wav","null","audio-keyboard-response","178","101931","0.0-1.0-177.0","",""
"null","sound/msl/duck.wav","null","audio-keyboard-response","179","102441","0.0-1.0-178.0","",""
"null","sound/msl/door.wav","null","audio-keyboard-response","180","102941","0.0-1.0-179.0","",""
"null","sound/msl/organ.wav","null","audio-keyboard-response","181","103441","0.0-1.0-180.0","",""
"null","sound/msl/boing.wav","null","audio-keyboard-response","182","103941","0.0-1.0-181.0","",""
"null","sound/msl/clock.wav","null","audio-keyboard-response","183","104491","0.0-1.0-182.0","",""
"null","sound/msl/dog.wav","null","audio-keyboard-response","184","105001","0.0-1.0-183.0","",""
"null","sound/msl/frog.wav","null","audio-keyboard-response","185","105502","0.0-1.0-184.0","",""
"null","sound/msl/slide_whistle.wav","null","audio-keyboard-response","186","106002","0.0-1.0-185.0","",""
"null","sound/msl/cat.wav","null","audio-keyboard-response","187","106501","0.0-1.0-186.0","",""
"null","sound/msl/door_bell.wav","null","audio-keyboard-response","188","107011","0.0-1.0-187.0","",""
"null","sound/msl/goat.wav","null","audio-keyboard-response","189","107552","0.0-1.0-188.0","",""
"null","sound/msl/ding.wav","null","audio-keyboard-response","190","108052","0.0-1.0-189.0","",""
"null","sound/msl/cow.wav","null","audio-keyboard-response","191","108562","0.0-1.0-190.0","",""
"null","sound/msl/Water.wav","null","audio-keyboard-response","192","109073","0.0-1.0-191.0","",""
"null","sound/msl/bird.wav","null","audio-keyboard-response","193","109572","0.0-1.0-192.0","",""
"null","sound/msl/duck.wav","null","audio-keyboard-response","194","110082","0.0-1.0-193.0","",""
"null","sound/msl/door.wav","null","audio-keyboard-response","195","110582","0.0-1.0-194.0","",""
"null","sound/msl/organ.wav","null","audio-keyboard-response","196","111083","0.0-1.0-195.0","",""
"null","sound/msl/boing.wav","null","audio-keyboard-response","197","111582","0.0-1.0-196.0","",""
"null","sound/msl/clock.wav","null","audio-keyboard-response","198","112133","0.0-1.0-197.0","",""
"null","sound/msl/cat.wav","null","audio-keyboard-response","199","112633","0.0-1.0-198.0","",""
"null","sound/msl/door_bell.wav","null","audio-keyboard-response","200","113132","0.0-1.0-199.0","",""
"null","sound/msl/goat.wav","null","audio-keyboard-response","201","113672","0.0-1.0-200.0","",""
"null","sound/msl/dog.wav","null","audio-keyboard-response","202","114172","0.0-1.0-201.0","",""
"null","sound/msl/frog.wav","null","audio-keyboard-response","203","114685","0.0-1.0-202.0","",""
"null","sound/msl/slide_whistle.wav","null","audio-keyboard-response","204","115182","0.0-1.0-203.0","",""
"null","sound/msl/ding.wav","null","audio-keyboard-response","205","115688","0.0-1.0-204.0","",""
"null","sound/msl/cow.wav","null","audio-keyboard-response","206","116198","0.0-1.0-205.0","",""
"null","sound/msl/Water.wav","null","audio-keyboard-response","207","116708","0.0-1.0-206.0","",""
"null","sound/msl/bird.wav","null","audio-keyboard-response","208","117208","0.0-1.0-207.0","",""
"null","sound/msl/duck.wav","null","audio-keyboard-response","209","117718","0.0-1.0-208.0","",""
"null","sound/msl/door.wav","null","audio-keyboard-response","210","118219","0.0-1.0-209.0","",""
"null","sound/msl/cat.wav","null","audio-keyboard-response","211","118718","0.0-1.0-210.0","",""
"null","sound/msl/door_bell.wav","null","audio-keyboard-response","212","119219","0.0-1.0-211.0","",""
"null","sound/msl/goat.wav","null","audio-keyboard-response","213","119758","0.0-1.0-212.0","",""
"null","sound/msl/ding.wav","null","audio-keyboard-response","214","120258","0.0-1.0-213.0","",""
"null","sound/msl/cow.wav","null","audio-keyboard-response","215","120769","0.0-1.0-214.0","",""
"null","sound/msl/Water.wav","null","audio-keyboard-response","216","121279","0.0-1.0-215.0","",""
"null","sound/msl/organ.wav","null","audio-keyboard-response","217","121779","0.0-1.0-216.0","",""
"null","sound/msl/boing.wav","null","audio-keyboard-response","218","122279","0.0-1.0-217.0","",""
"null","sound/msl/clock.wav","null","audio-keyboard-response","219","122829","0.0-1.0-218.0","",""
"null","sound/msl/dog.wav","null","audio-keyboard-response","220","123329","0.0-1.0-219.0","",""
"null","sound/msl/frog.wav","null","audio-keyboard-response","221","123839","0.0-1.0-220.0","",""
"null","sound/msl/slide_whistle.wav","null","audio-keyboard-response","222","124340","0.0-1.0-221.0","",""
"null","sound/msl/bird.wav","null","audio-keyboard-response","223","124849","0.0-1.0-222.0","",""
"null","sound/msl/duck.wav","null","audio-keyboard-response","224","125358","0.0-1.0-223.0","",""
"null","sound/msl/door.wav","null","audio-keyboard-response","225","125859","0.0-1.0-224.0","",""
"null","sound/msl/organ.wav","null","audio-keyboard-response","226","126359","0.0-1.0-225.0","",""
"null","sound/msl/boing.wav","null","audio-keyboard-response","227","126859","0.0-1.0-226.0","",""
"null","sound/msl/clock.wav","null","audio-keyboard-response","228","127409","0.0-1.0-227.0","",""
"null","sound/msl/ding.wav","null","audio-keyboard-response","229","127920","0.0-1.0-228.0","",""
"null","sound/msl/cow.wav","null","audio-keyboard-response","230","128420","0.0-1.0-229.0","",""
"null","sound/msl/Water.wav","null","audio-keyboard-response","231","128930","0.0-1.0-230.0","",""
"null","sound/msl/organ.wav","null","audio-keyboard-response","232","129429","0.0-1.0-231.0","",""
"null","sound/msl/boing.wav","null","audio-keyboard-response","233","129930","0.0-1.0-232.0","",""
"null","sound/msl/clock.wav","null","audio-keyboard-response","234","130480","0.0-1.0-233.0","",""
"null","sound/msl/bird.wav","null","audio-keyboard-response","235","130980","0.0-1.0-234.0","",""
"null","sound/msl/duck.wav","null","audio-keyboard-response","236","131490","0.0-1.0-235.0","",""
"null","sound/msl/door.wav","null","audio-keyboard-response","237","131990","0.0-1.0-236.0","",""
"null","sound/msl/dog.wav","null","audio-keyboard-response","238","132490","0.0-1.0-237.0","",""
"null","sound/msl/frog.wav","null","audio-keyboard-response","239","133000","0.0-1.0-238.0","",""
"null","sound/msl/slide_whistle.wav","null","audio-keyboard-response","240","133500","0.0-1.0-239.0","",""
"null","sound/msl/cat.wav","null","audio-keyboard-response","241","134000","0.0-1.0-240.0","",""
"null","sound/msl/door_bell.wav","null","audio-keyboard-response","242","134500","0.0-1.0-241.0","",""
"null","sound/msl/goat.wav","null","audio-keyboard-response","243","135041","0.0-1.0-242.0","",""
"null","sound/msl/ding.wav","null","audio-keyboard-response","244","135541","0.0-1.0-243.0","",""
"null","sound/msl/cow.wav","null","audio-keyboard-response","245","136051","0.0-1.0-244.0","",""
"null","sound/msl/Water.wav","null","audio-keyboard-response","246","136561","0.0-1.0-245.0","",""
"null","sound/msl/bird.wav","null","audio-keyboard-response","247","137061","0.0-1.0-246.0","",""
"null","sound/msl/duck.wav","null","audio-keyboard-response","248","137571","0.0-1.0-247.0","",""
"null","sound/msl/door.wav","null","audio-keyboard-response","249","138071","0.0-1.0-248.0","",""
"null","sound/msl/dog.wav","null","audio-keyboard-response","250","138571","0.0-1.0-249.0","",""
"null","sound/msl/frog.wav","null","audio-keyboard-response","251","139081","0.0-1.0-250.0","",""
"null","sound/msl/slide_whistle.wav","null","audio-keyboard-response","252","139581","0.0-1.0-251.0","",""
"null","sound/msl/cat.wav","null","audio-keyboard-response","253","140081","0.0-1.0-252.0","",""
"null","sound/msl/door_bell.wav","null","audio-keyboard-response","254","140582","0.0-1.0-253.0","",""
"null","sound/msl/goat.wav","null","audio-keyboard-response","255","141122","0.0-1.0-254.0","",""
"null","sound/msl/organ.wav","null","audio-keyboard-response","256","141621","0.0-1.0-255.0","",""
"null","sound/msl/boing.wav","null","audio-keyboard-response","257","142121","0.0-1.0-256.0","",""
"null","sound/msl/clock.wav","null","audio-keyboard-response","258","142672","0.0-1.0-257.0","",""
"null","sound/msl/ding.wav","null","audio-keyboard-response","259","143172","0.0-1.0-258.0","",""
"null","sound/msl/cow.wav","null","audio-keyboard-response","260","143682","0.0-1.0-259.0","",""
"null","sound/msl/Water.wav","null","audio-keyboard-response","261","144192","0.0-1.0-260.0","",""
"null","sound/msl/cat.wav","null","audio-keyboard-response","262","144692","0.0-1.0-261.0","",""
"null","sound/msl/door_bell.wav","null","audio-keyboard-response","263","145202","0.0-1.0-262.0","",""
"null","sound/msl/goat.wav","null","audio-keyboard-response","264","145742","0.0-1.0-263.0","",""
"null","sound/msl/dog.wav","null","audio-keyboard-response","265","146252","0.0-1.0-264.0","",""
"null","sound/msl/frog.wav","null","audio-keyboard-response","266","146762","0.0-1.0-265.0","",""
"null","sound/msl/slide_whistle.wav","null","audio-keyboard-response","267","147262","0.0-1.0-266.0","",""
"null","sound/msl/organ.wav","null","audio-keyboard-response","268","147762","0.0-1.0-267.0","",""
"null","sound/msl/boing.wav","null","audio-keyboard-response","269","148262","0.0-1.0-268.0","",""
"null","sound/msl/clock.wav","null","audio-keyboard-response","270","148813","0.0-1.0-269.0","",""
"null","sound/msl/bird.wav","null","audio-keyboard-response","271","149323","0.0-1.0-270.0","",""
"null","sound/msl/duck.wav","null","audio-keyboard-response","272","149822","0.0-1.0-271.0","",""
"null","sound/msl/door.wav","null","audio-keyboard-response","273","150323","0.0-1.0-272.0","",""
"null","sound/msl/ding.wav","null","audio-keyboard-response","274","150823","0.0-1.0-273.0","",""
"null","sound/msl/cow.wav","null","audio-keyboard-response","275","151332","0.0-1.0-274.0","",""
"null","sound/msl/Water.wav","null","audio-keyboard-response","276","151843","0.0-1.0-275.0","",""
"null","sound/msl/cat.wav","null","audio-keyboard-response","277","152342","0.0-1.0-276.0","",""
"null","sound/msl/door_bell.wav","null","audio-keyboard-response","278","152853","0.0-1.0-277.0","",""
"null","sound/msl/goat.wav","null","audio-keyboard-response","279","153393","0.0-1.0-278.0","",""
"null","sound/msl/dog.wav","null","audio-keyboard-response","280","153893","0.0-1.0-279.0","",""
"null","sound/msl/frog.wav","null","audio-keyboard-response","281","154404","0.0-1.0-280.0","",""
"null","sound/msl/slide_whistle.wav","null","audio-keyboard-response","282","154903","0.0-1.0-281.0","",""
"null","sound/msl/bird.wav","null","audio-keyboard-response","283","155413","0.0-1.0-282.0","",""
"null","sound/msl/duck.wav","null","audio-keyboard-response","284","155918","0.0-1.0-283.0","",""
"null","sound/msl/door.wav","null","audio-keyboard-response","285","156418","0.0-1.0-284.0","",""
"null","sound/msl/organ.wav","null","audio-keyboard-response","286","156919","0.0-1.0-285.0","",""
"null","sound/msl/boing.wav","null","audio-keyboard-response","287","157418","0.0-1.0-286.0","",""
"null","sound/msl/clock.wav","null","audio-keyboard-response","288","157968","0.0-1.0-287.0","",""
"null","sound/msl/ding.wav","null","audio-keyboard-response","289","158479","0.0-1.0-288.0","",""
"null","sound/msl/cow.wav","null","audio-keyboard-response","290","158979","0.0-1.0-289.0","",""
"null","sound/msl/Water.wav","null","audio-keyboard-response","291","159489","0.0-1.0-290.0","",""
"null","sound/msl/dog.wav","null","audio-keyboard-response","292","159999","0.0-1.0-291.0","",""
"null","sound/msl/frog.wav","null","audio-keyboard-response","293","160499","0.0-1.0-292.0","",""
"null","sound/msl/slide_whistle.wav","null","audio-keyboard-response","294","160998","0.0-1.0-293.0","",""
"null","sound/msl/cat.wav","null","audio-keyboard-response","295","161499","0.0-1.0-294.0","",""
"null","sound/msl/door_bell.wav","null","audio-keyboard-response","296","162008","0.0-1.0-295.0","",""
"null","sound/msl/goat.wav","null","audio-keyboard-response","297","162549","0.0-1.0-296.0","",""
"null","sound/msl/ding.wav","null","audio-keyboard-response","298","163049","0.0-1.0-297.0","",""
"null","sound/msl/cow.wav","null","audio-keyboard-response","299","163559","0.0-1.0-298.0","",""
"null","sound/msl/Water.wav","null","audio-keyboard-response","300","164069","0.0-1.0-299.0","",""
"null","sound/msl/bird.wav","null","audio-keyboard-response","301","164570","0.0-1.0-300.0","",""
"null","sound/msl/duck.wav","null","audio-keyboard-response","302","165079","0.0-1.0-301.0","",""
"null","sound/msl/door.wav","null","audio-keyboard-response","303","165580","0.0-1.0-302.0","",""
"null","sound/msl/dog.wav","null","audio-keyboard-response","304","166089","0.0-1.0-303.0","",""
"null","sound/msl/frog.wav","null","audio-keyboard-response","305","166600","0.0-1.0-304.0","",""
"null","sound/msl/slide_whistle.wav","null","audio-keyboard-response","306","167100","0.0-1.0-305.0","",""
"null","sound/msl/organ.wav","null","audio-keyboard-response","307","167599","0.0-1.0-306.0","",""
"null","sound/msl/boing.wav","null","audio-keyboard-response","308","168099","0.0-1.0-307.0","",""
"null","sound/msl/clock.wav","null","audio-keyboard-response","309","168650","0.0-1.0-308.0","",""
"null","sound/msl/cat.wav","null","audio-keyboard-response","310","169150","0.0-1.0-309.0","",""
"null","sound/msl/door_bell.wav","null","audio-keyboard-response","311","169650","0.0-1.0-310.0","",""
"null","sound/msl/goat.wav","null","audio-keyboard-response","312","170190","0.0-1.0-311.0","",""
"null","sound/msl/ding.wav","null","audio-keyboard-response","313","170690","0.0-1.0-312.0","",""
"null","sound/msl/cow.wav","null","audio-keyboard-response","314","171200","0.0-1.0-313.0","",""
"null","sound/msl/Water.wav","null","audio-keyboard-response","315","171710","0.0-1.0-314.0","",""
"null","sound/msl/bird.wav","null","audio-keyboard-response","316","172210","0.0-1.0-315.0","",""
"null","sound/msl/duck.wav","null","audio-keyboard-response","317","172720","0.0-1.0-316.0","",""
"null","sound/msl/door.wav","null","audio-keyboard-response","318","173221","0.0-1.0-317.0","",""
"null","sound/msl/dog.wav","null","audio-keyboard-response","319","173731","0.0-1.0-318.0","",""
"null","sound/msl/frog.wav","null","audio-keyboard-response","320","174240","0.0-1.0-319.0","",""
"null","sound/msl/slide_whistle.wav","null","audio-keyboard-response","321","174741","0.0-1.0-320.0","",""
"null","sound/msl/cat.wav","null","audio-keyboard-response","322","175240","0.0-1.0-321.0","",""
"null","sound/msl/door_bell.wav","null","audio-keyboard-response","323","175740","0.0-1.0-322.0","",""
"null","sound/msl/goat.wav","null","audio-keyboard-response","324","176281","0.0-1.0-323.0","",""
"null","sound/msl/bird.wav","null","audio-keyboard-response","325","176781","0.0-1.0-324.0","",""
"null","sound/msl/duck.wav","null","audio-keyboard-response","326","177291","0.0-1.0-325.0","",""
"null","sound/msl/door.wav","null","audio-keyboard-response","327","177791","0.0-1.0-326.0","",""
"null","sound/msl/organ.wav","null","audio-keyboard-response","328","178292","0.0-1.0-327.0","",""
"null","sound/msl/boing.wav","null","audio-keyboard-response","329","178791","0.0-1.0-328.0","",""
"null","sound/msl/clock.wav","null","audio-keyboard-response","330","179341","0.0-1.0-329.0","",""
"null","sound/msl/ding.wav","null","audio-keyboard-response","331","179851","0.0-1.0-330.0","",""
"null","sound/msl/cow.wav","null","audio-keyboard-response","332","180362","0.0-1.0-331.0","",""
"null","sound/msl/Water.wav","null","audio-keyboard-response","333","180872","0.0-1.0-332.0","",""
"null","sound/msl/dog.wav","null","audio-keyboard-response","334","181372","0.0-1.0-333.0","",""
"null","sound/msl/frog.wav","null","audio-keyboard-response","335","181881","0.0-1.0-334.0","",""
"null","sound/msl/slide_whistle.wav","null","audio-keyboard-response","336","182381","0.0-1.0-335.0","",""
"null","sound/msl/organ.wav","null","audio-keyboard-response","337","182882","0.0-1.0-336.0","",""
"null","sound/msl/boing.wav","null","audio-keyboard-response","338","183382","0.0-1.0-337.0","",""
"null","sound/msl/clock.wav","null","audio-keyboard-response","339","183932","0.0-1.0-338.0","",""
"null","sound/msl/cat.wav","null","audio-keyboard-response","340","184431","0.0-1.0-339.0","",""
"null","sound/msl/door_bell.wav","null","audio-keyboard-response","341","184932","0.0-1.0-340.0","",""
"null","sound/msl/goat.wav","null","audio-keyboard-response","342","185472","0.0-1.0-341.0","",""
"null","sound/msl/dog.wav","null","audio-keyboard-response","343","185972","0.0-1.0-342.0","",""
"null","sound/msl/frog.wav","null","audio-keyboard-response","344","186482","0.0-1.0-343.0","",""
"null","sound/msl/slide_whistle.wav","null","audio-keyboard-response","345","186982","0.0-1.0-344.0","",""
"null","sound/msl/cat.wav","null","audio-keyboard-response","346","187482","0.0-1.0-345.0","",""
"null","sound/msl/door_bell.wav","null","audio-keyboard-response","347","187983","0.0-1.0-346.0","",""
"null","sound/msl/goat.wav","null","audio-keyboard-response","348","188523","0.0-1.0-347.0","",""
"null","sound/msl/organ.wav","null","audio-keyboard-response","349","189023","0.0-1.0-348.0","",""
"null","sound/msl/boing.wav","null","audio-keyboard-response","350","189522","0.0-1.0-349.0","",""
"null","sound/msl/clock.wav","null","audio-keyboard-response","351","190073","0.0-1.0-350.0","",""
"null","sound/msl/ding.wav","null","audio-keyboard-response","352","190573","0.0-1.0-351.0","",""
"null","sound/msl/cow.wav","null","audio-keyboard-response","353","191083","0.0-1.0-352.0","",""
"null","sound/msl/Water.wav","null","audio-keyboard-response","354","191593","0.0-1.0-353.0","",""
"null","sound/msl/dog.wav","null","audio-keyboard-response","355","192093","0.0-1.0-354.0","",""
"null","sound/msl/frog.wav","null","audio-keyboard-response","356","192603","0.0-1.0-355.0","",""
"null","sound/msl/slide_whistle.wav","null","audio-keyboard-response","357","193102","0.0-1.0-356.0","",""
"null","sound/msl/cat.wav","null","audio-keyboard-response","358","193603","0.0-1.0-357.0","",""
"null","sound/msl/door_bell.wav","null","audio-keyboard-response","359","194104","0.0-1.0-358.0","",""
"null","sound/msl/goat.wav","null","audio-keyboard-response","360","194643","0.0-1.0-359.0","",""
"4601","Instructions2-eng.png","49","image-keyboard-response","361","199246","0.0-2.0","",""
"null","sound/msl/bird.wav","null","audio-keyboard-response","362","199739","0.0-3.0-0.0","",""
"null","sound/msl/boing.wav","null","audio-keyboard-response","363","200239","0.0-3.0-1.0","",""
"null","sound/msl/slide_whistle.wav","null","audio-keyboard-response","364","200739","0.0-3.0-2.0","",""
"null","sound/asl/silence.wav","null","audio-keyboard-response","365","201241","0.0-3.0-3.0","",""
"null","sound/msl/organ.wav","null","audio-keyboard-response","366","201739","0.0-3.0-4.0","",""
"null","sound/msl/boing.wav","null","audio-keyboard-response","367","202239","0.0-3.0-5.0","",""
"null","sound/msl/clock.wav","null","audio-keyboard-response","368","202789","0.0-3.0-6.0","",""
"5712","sound/asl/silence.wav","50","audio-keyboard-response","369","208501","0.0-3.0-7.0","true",""
"null","sound/msl/cat.wav","null","audio-keyboard-response","370","209000","0.0-4.0-0.0","",""
"null","sound/msl/duck.wav","null","audio-keyboard-response","371","209500","0.0-4.0-1.0","",""
"null","sound/msl/clock.wav","null","audio-keyboard-response","372","210051","0.0-4.0-2.0","",""
"null","sound/asl/silence.wav","null","audio-keyboard-response","373","210553","0.0-4.0-3.0","",""
"null","sound/msl/dog.wav","null","audio-keyboard-response","374","211052","0.0-4.0-4.0","",""
"null","sound/msl/frog.wav","null","audio-keyboard-response","375","211561","0.0-4.0-5.0","",""
"null","sound/msl/slide_whistle.wav","null","audio-keyboard-response","376","212061","0.0-4.0-6.0","",""
"688","sound/asl/silence.wav","49","audio-keyboard-response","377","212758","0.0-4.0-7.0","false",""
"null","sound/msl/dog.wav","null","audio-keyboard-response","378","213261","0.0-5.0-0.0","",""
"null","sound/msl/cow.wav","null","audio-keyboard-response","379","213770","0.0-5.0-1.0","",""
"null","sound/msl/goat.wav","null","audio-keyboard-response","380","214311","0.0-5.0-2.0","",""
"null","sound/asl/silence.wav","null","audio-keyboard-response","381","214812","0.0-5.0-3.0","",""
"null","sound/msl/organ.wav","null","audio-keyboard-response","382","215311","0.0-5.0-4.0","",""
"null","sound/msl/boing.wav","null","audio-keyboard-response","383","215811","0.0-5.0-5.0","",""
"null","sound/msl/clock.wav","null","audio-keyboard-response","384","216362","0.0-5.0-6.0","",""
"640","sound/asl/silence.wav","49","audio-keyboard-response","385","217005","0.0-5.0-7.0","false",""
"null","sound/msl/cat.wav","null","audio-keyboard-response","386","217501","0.0-6.0-0.0","",""
"null","sound/msl/duck.wav","null","audio-keyboard-response","387","218011","0.0-6.0-1.0","",""
"null","sound/msl/clock.wav","null","audio-keyboard-response","388","218561","0.0-6.0-2.0","",""
"null","sound/asl/silence.wav","null","audio-keyboard-response","389","219062","0.0-6.0-3.0","",""
"null","sound/msl/cat.wav","null","audio-keyboard-response","390","219562","0.0-6.0-4.0","",""
"null","sound/msl/door_bell.wav","null","audio-keyboard-response","391","220062","0.0-6.0-5.0","",""
"null","sound/msl/goat.wav","null","audio-keyboard-response","392","220602","0.0-6.0-6.0","",""
"451","sound/asl/silence.wav","50","audio-keyboard-response","393","221061","0.0-6.0-7.0","true",""
"null","sound/msl/organ.wav","null","audio-keyboard-response","394","221562","0.0-7.0-0.0","",""
"null","sound/msl/frog.wav","null","audio-keyboard-response","395","222062","0.0-7.0-1.0","",""
"null","sound/msl/Water.wav","null","audio-keyboard-response","396","222572","0.0-7.0-2.0","",""
"null","sound/asl/silence.wav","null","audio-keyboard-response","397","223075","0.0-7.0-3.0","",""
"null","sound/msl/cat.wav","null","audio-keyboard-response","398","223572","0.0-7.0-4.0","",""
"null","sound/msl/door_bell.wav","null","audio-keyboard-response","399","224083","0.0-7.0-5.0","",""
"null","sound/msl/goat.wav","null","audio-keyboard-response","400","224622","0.0-7.0-6.0","",""
"528","sound/asl/silence.wav","49","audio-keyboard-response","401","225158","0.0-7.0-7.0","false",""
"null","sound/msl/bird.wav","null","audio-keyboard-response","402","225653","0.0-8.0-0.0","",""
"null","sound/msl/duck.wav","null","audio-keyboard-response","403","226163","0.0-8.0-1.0","",""
"null","sound/msl/door.wav","null","audio-keyboard-response","404","226663","0.0-8.0-2.0","",""
"null","sound/asl/silence.wav","null","audio-keyboard-response","405","227164","0.0-8.0-3.0","",""
"null","sound/msl/cat.wav","null","audio-keyboard-response","406","227663","0.0-8.0-4.0","",""
"null","sound/msl/duck.wav","null","audio-keyboard-response","407","228173","0.0-8.0-5.0","",""
"null","sound/msl/clock.wav","null","audio-keyboard-response","408","228723","0.0-8.0-6.0","",""
"2491","sound/asl/silence.wav","49","audio-keyboard-response","409","231214","0.0-8.0-7.0","true",""
"null","sound/msl/dog.wav","null","audio-keyboard-response","410","231724","0.0-9.0-0.0","",""
"null","sound/msl/frog.wav","null","audio-keyboard-response","411","232223","0.0-9.0-1.0","",""
"null","sound/msl/slide_whistle.wav","null","audio-keyboard-response","412","232724","0.0-9.0-2.0","",""
"null","sound/asl/silence.wav","null","audio-keyboard-response","413","233225","0.0-9.0-3.0","",""
"null","sound/msl/ding.wav","null","audio-keyboard-response","414","233733","0.0-9.0-4.0","",""
"null","sound/msl/door_bell.wav","null","audio-keyboard-response","415","234243","0.0-9.0-5.0","",""
"null","sound/msl/door.wav","null","audio-keyboard-response","416","234744","0.0-9.0-6.0","",""
"709","sound/asl/silence.wav","49","audio-keyboard-response","417","235462","0.0-9.0-7.0","true",""
"null","sound/msl/organ.wav","null","audio-keyboard-response","418","235954","0.0-10.0-0.0","",""
"null","sound/msl/frog.wav","null","audio-keyboard-response","419","236454","0.0-10.0-1.0","",""
"null","sound/msl/Water.wav","null","audio-keyboard-response","420","236964","0.0-10.0-2.0","",""
"null","sound/asl/silence.wav","null","audio-keyboard-response","421","237465","0.0-10.0-3.0","",""
"null","sound/msl/organ.wav","null","audio-keyboard-response","422","237959","0.0-10.0-4.0","",""
"null","sound/msl/boing.wav","null","audio-keyboard-response","423","238459","0.0-10.0-5.0","",""
"null","sound/msl/clock.wav","null","audio-keyboard-response","424","239010","0.0-10.0-6.0","",""
"419","sound/asl/silence.wav","49","audio-keyboard-response","425","239437","0.0-10.0-7.0","false",""
"null","sound/msl/organ.wav","null","audio-keyboard-response","426","239929","0.0-11.0-0.0","",""
"null","sound/msl/boing.wav","null","audio-keyboard-response","427","240429","0.0-11.0-1.0","",""
"null","sound/msl/clock.wav","null","audio-keyboard-response","428","240979","0.0-11.0-2.0","",""
"null","sound/asl/silence.wav","null","audio-keyboard-response","429","241481","0.0-11.0-3.0","",""
"null","sound/msl/cat.wav","null","audio-keyboard-response","430","241980","0.0-11.0-4.0","",""
"null","sound/msl/duck.wav","null","audio-keyboard-response","431","242489","0.0-11.0-5.0","",""
"null","sound/msl/clock.wav","null","audio-keyboard-response","432","243040","0.0-11.0-6.0","",""
"709","sound/asl/silence.wav","50","audio-keyboard-response","433","243757","0.0-11.0-7.0","false",""
"null","sound/msl/dog.wav","null","audio-keyboard-response","434","244250","0.0-12.0-0.0","",""
"null","sound/msl/frog.wav","null","audio-keyboard-response","435","244760","0.0-12.0-1.0","",""
"null","sound/msl/slide_whistle.wav","null","audio-keyboard-response","436","245260","0.0-12.0-2.0","",""
"null","sound/asl/silence.wav","null","audio-keyboard-response","437","245762","0.0-12.0-3.0","",""
"null","sound/msl/dog.wav","null","audio-keyboard-response","438","246260","0.0-12.0-4.0","",""
"null","sound/msl/cow.wav","null","audio-keyboard-response","439","246770","0.0-12.0-5.0","",""
"null","sound/msl/goat.wav","null","audio-keyboard-response","440","247311","0.0-12.0-6.0","",""
"832","sound/asl/silence.wav","49","audio-keyboard-response","441","248150","0.0-12.0-7.0","true",""
"null","sound/msl/bird.wav","null","audio-keyboard-response","442","248650","0.0-13.0-0.0","",""
"null","sound/msl/duck.wav","null","audio-keyboard-response","443","249161","0.0-13.0-1.0","",""
"null","sound/msl/door.wav","null","audio-keyboard-response","444","249661","0.0-13.0-2.0","",""
"null","sound/asl/silence.wav","null","audio-keyboard-response","445","250162","0.0-13.0-3.0","",""
"null","sound/msl/bird.wav","null","audio-keyboard-response","446","250661","0.0-13.0-4.0","",""
"null","sound/msl/boing.wav","null","audio-keyboard-response","447","251161","0.0-13.0-5.0","",""
"null","sound/msl/slide_whistle.wav","null","audio-keyboard-response","448","251661","0.0-13.0-6.0","",""
"1019","sound/asl/silence.wav","49","audio-keyboard-response","449","252685","0.0-13.0-7.0","true",""
"null","sound/msl/cat.wav","null","audio-keyboard-response","450","253180","0.0-14.0-0.0","",""
"null","sound/msl/door_bell.wav","null","audio-keyboard-response","451","253691","0.0-14.0-1.0","",""
"null","sound/msl/goat.wav","null","audio-keyboard-response","452","254232","0.0-14.0-2.0","",""
"null","sound/asl/silence.wav","null","audio-keyboard-response","453","254732","0.0-14.0-3.0","",""
"null","sound/msl/dog.wav","null","audio-keyboard-response","454","255242","0.0-14.0-4.0","",""
"null","sound/msl/cow.wav","null","audio-keyboard-response","455","255741","0.0-14.0-5.0","",""
"null","sound/msl/goat.wav","null","audio-keyboard-response","456","256282","0.0-14.0-6.0","",""
"3349","sound/asl/silence.wav","49","audio-keyboard-response","457","259638","0.0-14.0-7.0","true",""
"null","sound/msl/ding.wav","null","audio-keyboard-response","458","260132","0.0-15.0-0.0","",""
"null","sound/msl/cow.wav","null","audio-keyboard-response","459","260642","0.0-15.0-1.0","",""
"null","sound/msl/Water.wav","null","audio-keyboard-response","460","261152","0.0-15.0-2.0","",""
"null","sound/asl/silence.wav","null","audio-keyboard-response","461","261654","0.0-15.0-3.0","",""
"null","sound/msl/ding.wav","null","audio-keyboard-response","462","262162","0.0-15.0-4.0","",""
"null","sound/msl/door_bell.wav","null","audio-keyboard-response","463","262663","0.0-15.0-5.0","",""
"null","sound/msl/door.wav","null","audio-keyboard-response","464","263163","0.0-15.0-6.0","",""
"1291","sound/asl/silence.wav","49","audio-keyboard-response","465","264453","0.0-15.0-7.0","true",""
"null","sound/msl/organ.wav","null","audio-keyboard-response","466","264953","0.0-16.0-0.0","",""
"null","sound/msl/frog.wav","null","audio-keyboard-response","467","265453","0.0-16.0-1.0","",""
"null","sound/msl/Water.wav","null","audio-keyboard-response","468","265963","0.0-16.0-2.0","",""
"null","sound/asl/silence.wav","null","audio-keyboard-response","469","266465","0.0-16.0-3.0","",""
"null","sound/msl/dog.wav","null","audio-keyboard-response","470","266973","0.0-16.0-4.0","",""
"null","sound/msl/frog.wav","null","audio-keyboard-response","471","267483","0.0-16.0-5.0","",""
"null","sound/msl/slide_whistle.wav","null","audio-keyboard-response","472","267983","0.0-16.0-6.0","",""
"909","sound/asl/silence.wav","49","audio-keyboard-response","473","268893","0.0-16.0-7.0","false",""
"null","sound/msl/ding.wav","null","audio-keyboard-response","474","269403","0.0-17.0-0.0","",""
"null","sound/msl/cow.wav","null","audio-keyboard-response","475","269903","0.0-17.0-1.0","",""
"null","sound/msl/Water.wav","null","audio-keyboard-response","476","270414","0.0-17.0-2.0","",""
"null","sound/asl/silence.wav","null","audio-keyboard-response","477","270914","0.0-17.0-3.0","",""
"null","sound/msl/dog.wav","null","audio-keyboard-response","478","271414","0.0-17.0-4.0","",""
"null","sound/msl/cow.wav","null","audio-keyboard-response","479","271924","0.0-17.0-5.0","",""
"null","sound/msl/goat.wav","null","audio-keyboard-response","480","272464","0.0-17.0-6.0","",""
"429","sound/asl/silence.wav","49","audio-keyboard-response","481","272902","0.0-17.0-7.0","true",""
"null","sound/msl/bird.wav","null","audio-keyboard-response","482","273404","0.0-18.0-0.0","",""
"null","sound/msl/boing.wav","null","audio-keyboard-response","483","273904","0.0-18.0-1.0","",""
"null","sound/msl/slide_whistle.wav","null","audio-keyboard-response","484","274404","0.0-18.0-2.0","",""
"null","sound/asl/silence.wav","null","audio-keyboard-response","485","274905","0.0-18.0-3.0","",""
"null","sound/msl/dog.wav","null","audio-keyboard-response","486","275414","0.0-18.0-4.0","",""
"null","sound/msl/frog.wav","null","audio-keyboard-response","487","275924","0.0-18.0-5.0","",""
"null","sound/msl/slide_whistle.wav","null","audio-keyboard-response","488","276424","0.0-18.0-6.0","",""
"608","sound/asl/silence.wav","49","audio-keyboard-response","489","277038","0.0-18.0-7.0","false",""
"null","sound/msl/bird.wav","null","audio-keyboard-response","490","277534","0.0-19.0-0.0","",""
"null","sound/msl/boing.wav","null","audio-keyboard-response","491","278029","0.0-19.0-1.0","",""
"null","sound/msl/slide_whistle.wav","null","audio-keyboard-response","492","278529","0.0-19.0-2.0","",""
"null","sound/asl/silence.wav","null","audio-keyboard-response","493","279031","0.0-19.0-3.0","",""
"null","sound/msl/cat.wav","null","audio-keyboard-response","494","279530","0.0-19.0-4.0","",""
"null","sound/msl/door_bell.wav","null","audio-keyboard-response","495","280039","0.0-19.0-5.0","",""
"null","sound/msl/goat.wav","null","audio-keyboard-response","496","280580","0.0-19.0-6.0","",""
"709","sound/asl/silence.wav","49","audio-keyboard-response","497","281294","0.0-19.0-7.0","false",""
"null","sound/msl/cat.wav","null","audio-keyboard-response","498","281790","0.0-20.0-0.0","",""
"null","sound/msl/duck.wav","null","audio-keyboard-response","499","282290","0.0-20.0-1.0","",""
"null","sound/msl/clock.wav","null","audio-keyboard-response","500","282840","0.0-20.0-2.0","",""
"null","sound/asl/silence.wav","null","audio-keyboard-response","501","283341","0.0-20.0-3.0","",""
"null","sound/msl/ding.wav","null","audio-keyboard-response","502","283850","0.0-20.0-4.0","",""
"null","sound/msl/cow.wav","null","audio-keyboard-response","503","284360","0.0-20.0-5.0","",""
"null","sound/msl/Water.wav","null","audio-keyboard-response","504","284870","0.0-20.0-6.0","",""
"1152","sound/asl/silence.wav","49","audio-keyboard-response","505","286021","0.0-20.0-7.0","false",""
"null","sound/msl/organ.wav","null","audio-keyboard-response","506","286521","0.0-21.0-0.0","",""
"null","sound/msl/frog.wav","null","audio-keyboard-response","507","287020","0.0-21.0-1.0","",""
"null","sound/msl/Water.wav","null","audio-keyboard-response","508","287531","0.0-21.0-2.0","",""
"null","sound/asl/silence.wav","null","audio-keyboard-response","509","288032","0.0-21.0-3.0","",""
"null","sound/msl/ding.wav","null","audio-keyboard-response","510","288531","0.0-21.0-4.0","",""
"null","sound/msl/cow.wav","null","audio-keyboard-response","511","289041","0.0-21.0-5.0","",""
"null","sound/msl/Water.wav","null","audio-keyboard-response","512","289551","0.0-21.0-6.0","",""
"541","sound/asl/silence.wav","50","audio-keyboard-response","513","290094","0.0-21.0-7.0","true",""
"null","sound/msl/organ.wav","null","audio-keyboard-response","514","290591","0.0-22.0-0.0","",""
"null","sound/msl/boing.wav","null","audio-keyboard-response","515","291091","0.0-22.0-1.0","",""
"null","sound/msl/clock.wav","null","audio-keyboard-response","516","291641","0.0-22.0-2.0","",""
"null","sound/asl/silence.wav","null","audio-keyboard-response","517","292143","0.0-22.0-3.0","",""
"null","sound/msl/ding.wav","null","audio-keyboard-response","518","292651","0.0-22.0-4.0","",""
"null","sound/msl/door_bell.wav","null","audio-keyboard-response","519","293162","0.0-22.0-5.0","",""
"null","sound/msl/door.wav","null","audio-keyboard-response","520","293661","0.0-22.0-6.0","",""
"488","sound/asl/silence.wav","49","audio-keyboard-response","521","294157","0.0-22.0-7.0","true",""
"null","sound/msl/cat.wav","null","audio-keyboard-response","522","294651","0.0-23.0-0.0","",""
"null","sound/msl/door_bell.wav","null","audio-keyboard-response","523","295162","0.0-23.0-1.0","",""
"null","sound/msl/goat.wav","null","audio-keyboard-response","524","295702","0.0-23.0-2.0","",""
"null","sound/asl/silence.wav","null","audio-keyboard-response","525","296202","0.0-23.0-3.0","",""
"null","sound/msl/ding.wav","null","audio-keyboard-response","526","296702","0.0-23.0-4.0","",""
"null","sound/msl/door_bell.wav","null","audio-keyboard-response","527","297212","0.0-23.0-5.0","",""
"null","sound/msl/door.wav","null","audio-keyboard-response","528","297712","0.0-23.0-6.0","",""
"1072","sound/asl/silence.wav","49","audio-keyboard-response","529","298790","0.0-23.0-7.0","true",""
"null","sound/msl/bird.wav","null","audio-keyboard-response","530","299292","0.0-24.0-0.0","",""
"null","sound/msl/duck.wav","null","audio-keyboard-response","531","299802","0.0-24.0-1.0","",""
"null","sound/msl/door.wav","null","audio-keyboard-response","532","300302","0.0-24.0-2.0","",""
"null","sound/asl/silence.wav","null","audio-keyboard-response","533","300803","0.0-24.0-3.0","",""
"null","sound/msl/organ.wav","null","audio-keyboard-response","534","301303","0.0-24.0-4.0","",""
"null","sound/msl/frog.wav","null","audio-keyboard-response","535","301813","0.0-24.0-5.0","",""
"null","sound/msl/Water.wav","null","audio-keyboard-response","536","302323","0.0-24.0-6.0","",""
"2291","sound/asl/silence.wav","49","audio-keyboard-response","537","304621","0.0-24.0-7.0","true",""
"null","sound/msl/dog.wav","null","audio-keyboard-response","538","305123","0.0-25.0-0.0","",""
"null","sound/msl/cow.wav","null","audio-keyboard-response","539","305622","0.0-25.0-1.0","",""
"null","sound/msl/goat.wav","null","audio-keyboard-response","540","306163","0.0-25.0-2.0","",""
"null","sound/asl/silence.wav","null","audio-keyboard-response","541","306665","0.0-25.0-3.0","",""
"null","sound/msl/bird.wav","null","audio-keyboard-response","542","307174","0.0-25.0-4.0","",""
"null","sound/msl/duck.wav","null","audio-keyboard-response","543","307683","0.0-25.0-5.0","",""
"null","sound/msl/door.wav","null","audio-keyboard-response","544","308184","0.0-25.0-6.0","",""
"728","sound/asl/silence.wav","50","audio-keyboard-response","545","308918","0.0-25.0-7.0","true",""
"null","sound/msl/ding.wav","null","audio-keyboard-response","546","309413","0.0-26.0-0.0","",""
"null","sound/msl/door_bell.wav","null","audio-keyboard-response","547","309924","0.0-26.0-1.0","",""
"null","sound/msl/door.wav","null","audio-keyboard-response","548","310424","0.0-26.0-2.0","",""
"null","sound/asl/silence.wav","null","audio-keyboard-response","549","310926","0.0-26.0-3.0","",""
"null","sound/msl/bird.wav","null","audio-keyboard-response","550","311425","0.0-26.0-4.0","",""
"null","sound/msl/duck.wav","null","audio-keyboard-response","551","311934","0.0-26.0-5.0","",""
"null","sound/msl/door.wav","null","audio-keyboard-response","552","312434","0.0-26.0-6.0","",""
"2291","sound/asl/silence.wav","49","audio-keyboard-response","553","314725","0.0-26.0-7.0","false",""
"null","sound/msl/ding.wav","null","audio-keyboard-response","554","315224","0.0-27.0-0.0","",""
"null","sound/msl/cow.wav","null","audio-keyboard-response","555","315734","0.0-27.0-1.0","",""
"null","sound/msl/Water.wav","null","audio-keyboard-response","556","316244","0.0-27.0-2.0","",""
"null","sound/asl/silence.wav","null","audio-keyboard-response","557","316745","0.0-27.0-3.0","",""
"null","sound/msl/bird.wav","null","audio-keyboard-response","558","317255","0.0-27.0-4.0","",""
"null","sound/msl/boing.wav","null","audio-keyboard-response","559","317755","0.0-27.0-5.0","",""
"null","sound/msl/slide_whistle.wav","null","audio-keyboard-response","560","318255","0.0-27.0-6.0","",""
"400","sound/asl/silence.wav","49","audio-keyboard-response","561","318654","0.0-27.0-7.0","true",""
"1735","","","instructions","562","320389","0.0-28.0","","[{""page_index"":0,""viewing_time"":1735}]"
