"rt","stimulus","key_press","trial_type","trial_index","time_elapsed","internal_node_id","correct","view_history"
"7085","alien.jpg","49","image-keyboard-response","0","7090","0.0-0.0","",""
"null","sound/msl/clock.wav","null","audio-keyboard-response","1","7637","0.0-1.0-0.0","",""
"null","sound/msl/cat.wav","null","audio-keyboard-response","2","8137","0.0-1.0-1.0","",""
"null","sound/msl/frog.wav","null","audio-keyboard-response","3","8637","0.0-1.0-2.0","",""
"null","sound/msl/cow.wav","null","audio-keyboard-response","4","9151","0.0-1.0-3.0","",""
"null","sound/msl/boing.wav","null","audio-keyboard-response","5","9647","0.0-1.0-4.0","",""
"null","sound/msl/goat.wav","null","audio-keyboard-response","6","10186","0.0-1.0-5.0","",""
"null","sound/msl/organ.wav","null","audio-keyboard-response","7","10687","0.0-1.0-6.0","",""
"null","sound/msl/door_bell.wav","null","audio-keyboard-response","8","11197","0.0-1.0-7.0","",""
"null","sound/msl/door.wav","null","audio-keyboard-response","9","11697","0.0-1.0-8.0","",""
"null","sound/msl/dog.wav","null","audio-keyboard-response","10","12197","0.0-1.0-9.0","",""
"null","sound/msl/duck.wav","null","audio-keyboard-response","11","12707","0.0-1.0-10.0","",""
"null","sound/msl/ding.wav","null","audio-keyboard-response","12","13207","0.0-1.0-11.0","",""
"null","sound/msl/cow.wav","null","audio-keyboard-response","13","13718","0.0-1.0-12.0","",""
"null","sound/msl/boing.wav","null","audio-keyboard-response","14","14217","0.0-1.0-13.0","",""
"null","sound/msl/goat.wav","null","audio-keyboard-response","15","14758","0.0-1.0-14.0","",""
"null","sound/msl/clock.wav","null","audio-keyboard-response","16","15307","0.0-1.0-15.0","",""
"null","sound/msl/cat.wav","null","audio-keyboard-response","17","15807","0.0-1.0-16.0","",""
"null","sound/msl/frog.wav","null","audio-keyboard-response","18","16318","0.0-1.0-17.0","",""
"null","sound/msl/slide_whistle.wav","null","audio-keyboard-response","19","16818","0.0-1.0-18.0","",""
"null","sound/msl/Water.wav","null","audio-keyboard-response","20","17327","0.0-1.0-19.0","",""
"null","sound/msl/bird.wav","null","audio-keyboard-response","21","17832","0.0-1.0-20.0","",""
"null","sound/msl/dog.wav","null","audio-keyboard-response","22","18343","0.0-1.0-21.0","",""
"null","sound/msl/duck.wav","null","audio-keyboard-response","23","18843","0.0-1.0-22.0","",""
"null","sound/msl/ding.wav","null","audio-keyboard-response","24","19352","0.0-1.0-23.0","",""
"null","sound/msl/organ.wav","null","audio-keyboard-response","25","19853","0.0-1.0-24.0","",""
"null","sound/msl/door_bell.wav","null","audio-keyboard-response","26","20353","0.0-1.0-25.0","",""
"null","sound/msl/door.wav","null","audio-keyboard-response","27","20853","0.0-1.0-26.0","",""
"null","sound/msl/clock.wav","null","audio-keyboard-response","28","21403","0.0-1.0-27.0","",""
"null","sound/msl/cat.wav","null","audio-keyboard-response","29","21903","0.0-1.0-28.0","",""
"null","sound/msl/frog.wav","null","audio-keyboard-response","30","22403","0.0-1.0-29.0","",""
"null","sound/msl/cow.wav","null","audio-keyboard-response","31","22913","0.0-1.0-30.0","",""
"null","sound/msl/boing.wav","null","audio-keyboard-response","32","23413","0.0-1.0-31.0","",""
"null","sound/msl/goat.wav","null","audio-keyboard-response","33","23954","0.0-1.0-32.0","",""
"null","sound/msl/slide_whistle.wav","null","audio-keyboard-response","34","24453","0.0-1.0-33.0","",""
"null","sound/msl/Water.wav","null","audio-keyboard-response","35","24963","0.0-1.0-34.0","",""
"null","sound/msl/bird.wav","null","audio-keyboard-response","36","25474","0.0-1.0-35.0","",""
"null","sound/msl/organ.wav","null","audio-keyboard-response","37","25974","0.0-1.0-36.0","",""
"null","sound/msl/door_bell.wav","null","audio-keyboard-response","38","26474","0.0-1.0-37.0","",""
"null","sound/msl/door.wav","null","audio-keyboard-response","39","26973","0.0-1.0-38.0","",""
"null","sound/msl/dog.wav","null","audio-keyboard-response","40","27473","0.0-1.0-39.0","",""
"null","sound/msl/duck.wav","null","audio-keyboard-response","41","27984","0.0-1.0-40.0","",""
"null","sound/msl/ding.wav","null","audio-keyboard-response","42","28484","0.0-1.0-41.0","",""
"null","sound/msl/slide_whistle.wav","null","audio-keyboard-response","43","28984","0.0-1.0-42.0","",""
"null","sound/msl/Water.wav","null","audio-keyboard-response","44","29494","0.0-1.0-43.0","",""
"null","sound/msl/bird.wav","null","audio-keyboard-response","45","29994","0.0-1.0-44.0","",""
"null","sound/msl/cow.wav","null","audio-keyboard-response","46","30504","0.0-1.0-45.0","",""
"null","sound/msl/boing.wav","null","audio-keyboard-response","47","31004","0.0-1.0-46.0","",""
"null","sound/msl/goat.wav","null","audio-keyboard-response","48","31544","0.0-1.0-47.0","",""
"null","sound/msl/organ.wav","null","audio-keyboard-response","49","32044","0.0-1.0-48.0","",""
"null","sound/msl/door_bell.wav","null","audio-keyboard-response","50","32554","0.0-1.0-49.0","",""
"null","sound/msl/door.wav","null","audio-keyboard-response","51","33054","0.0-1.0-50.0","",""
"null","sound/msl/clock.wav","null","audio-keyboard-response","52","33604","0.0-1.0-51.0","",""
"null","sound/msl/cat.wav","null","audio-keyboard-response","53","34105","0.0-1.0-52.0","",""
"null","sound/msl/frog.wav","null","audio-keyboard-response","54","34605","0.0-1.0-53.0","",""
"null","sound/msl/cow.wav","null","audio-keyboard-response","55","35115","0.0-1.0-54.0","",""
"null","sound/msl/boing.wav","null","audio-keyboard-response","56","35615","0.0-1.0-55.0","",""
"null","sound/msl/goat.wav","null","audio-keyboard-response","57","36155","0.0-1.0-56.0","",""
"null","sound/msl/organ.wav","null","audio-keyboard-response","58","36655","0.0-1.0-57.0","",""
"null","sound/msl/door_bell.wav","null","audio-keyboard-response","59","37155","0.0-1.0-58.0","",""
"null","sound/msl/door.wav","null","audio-keyboard-response","60","37655","0.0-1.0-59.0","",""
"null","sound/msl/dog.wav","null","audio-keyboard-response","61","38155","0.0-1.0-60.0","",""
"null","sound/msl/duck.wav","null","audio-keyboard-response","62","38665","0.0-1.0-61.0","",""
"null","sound/msl/ding.wav","null","audio-keyboard-response","63","39165","0.0-1.0-62.0","",""
"null","sound/msl/slide_whistle.wav","null","audio-keyboard-response","64","39665","0.0-1.0-63.0","",""
"null","sound/msl/Water.wav","null","audio-keyboard-response","65","40175","0.0-1.0-64.0","",""
"null","sound/msl/bird.wav","null","audio-keyboard-response","66","40676","0.0-1.0-65.0","",""
"null","sound/msl/cow.wav","null","audio-keyboard-response","67","41185","0.0-1.0-66.0","",""
"null","sound/msl/boing.wav","null","audio-keyboard-response","68","41686","0.0-1.0-67.0","",""
"null","sound/msl/goat.wav","null","audio-keyboard-response","69","42226","0.0-1.0-68.0","",""
"null","sound/msl/clock.wav","null","audio-keyboard-response","70","42776","0.0-1.0-69.0","",""
"null","sound/msl/cat.wav","null","audio-keyboard-response","71","43276","0.0-1.0-70.0","",""
"null","sound/msl/frog.wav","null","audio-keyboard-response","72","43786","0.0-1.0-71.0","",""
"null","sound/msl/organ.wav","null","audio-keyboard-response","73","44286","0.0-1.0-72.0","",""
"null","sound/msl/door_bell.wav","null","audio-keyboard-response","74","44796","0.0-1.0-73.0","",""
"null","sound/msl/door.wav","null","audio-keyboard-response","75","45296","0.0-1.0-74.0","",""
"null","sound/msl/dog.wav","null","audio-keyboard-response","76","45797","0.0-1.0-75.0","",""
"null","sound/msl/duck.wav","null","audio-keyboard-response","77","46306","0.0-1.0-76.0","",""
"null","sound/msl/ding.wav","null","audio-keyboard-response","78","46806","0.0-1.0-77.0","",""
"null","sound/msl/organ.wav","null","audio-keyboard-response","79","47307","0.0-1.0-78.0","",""
"null","sound/msl/door_bell.wav","null","audio-keyboard-response","80","47806","0.0-1.0-79.0","",""
"null","sound/msl/door.wav","null","audio-keyboard-response","81","48306","0.0-1.0-80.0","",""
"null","sound/msl/slide_whistle.wav","null","audio-keyboard-response","82","48807","0.0-1.0-81.0","",""
"null","sound/msl/Water.wav","null","audio-keyboard-response","83","49317","0.0-1.0-82.0","",""
"null","sound/msl/bird.wav","null","audio-keyboard-response","84","49827","0.0-1.0-83.0","",""
"null","sound/msl/clock.wav","null","audio-keyboard-response","85","50377","0.0-1.0-84.0","",""
"null","sound/msl/cat.wav","null","audio-keyboard-response","86","50877","0.0-1.0-85.0","",""
"null","sound/msl/frog.wav","null","audio-keyboard-response","87","51386","0.0-1.0-86.0","",""
"null","sound/msl/cow.wav","null","audio-keyboard-response","88","51887","0.0-1.0-87.0","",""
"null","sound/msl/boing.wav","null","audio-keyboard-response","89","52387","0.0-1.0-88.0","",""
"null","sound/msl/goat.wav","null","audio-keyboard-response","90","52927","0.0-1.0-89.0","",""
"null","sound/msl/slide_whistle.wav","null","audio-keyboard-response","91","53427","0.0-1.0-90.0","",""
"null","sound/msl/Water.wav","null","audio-keyboard-response","92","53938","0.0-1.0-91.0","",""
"null","sound/msl/bird.wav","null","audio-keyboard-response","93","54438","0.0-1.0-92.0","",""
"null","sound/msl/dog.wav","null","audio-keyboard-response","94","54948","0.0-1.0-93.0","",""
"null","sound/msl/duck.wav","null","audio-keyboard-response","95","55448","0.0-1.0-94.0","",""
"null","sound/msl/ding.wav","null","audio-keyboard-response","96","55958","0.0-1.0-95.0","",""
"null","sound/msl/organ.wav","null","audio-keyboard-response","97","56457","0.0-1.0-96.0","",""
"null","sound/msl/door_bell.wav","null","audio-keyboard-response","98","56958","0.0-1.0-97.0","",""
"null","sound/msl/door.wav","null","audio-keyboard-response","99","57458","0.0-1.0-98.0","",""
"null","sound/msl/cow.wav","null","audio-keyboard-response","100","57958","0.0-1.0-99.0","",""
"null","sound/msl/boing.wav","null","audio-keyboard-response","101","58457","0.0-1.0-100.0","",""
"null","sound/msl/goat.wav","null","audio-keyboard-response","102","58993","0.0-1.0-101.0","",""
"null","sound/msl/slide_whistle.wav","null","audio-keyboard-response","103","59493","0.0-1.0-102.0","",""
"null","sound/msl/Water.wav","null","audio-keyboard-response","104","60003","0.0-1.0-103.0","",""
"null","sound/msl/bird.wav","null","audio-keyboard-response","105","60513","0.0-1.0-104.0","",""
"null","sound/msl/clock.wav","null","audio-keyboard-response","106","61064","0.0-1.0-105.0","",""
"null","sound/msl/cat.wav","null","audio-keyboard-response","107","61563","0.0-1.0-106.0","",""
"null","sound/msl/frog.wav","null","audio-keyboard-response","108","62073","0.0-1.0-107.0","",""
"null","sound/msl/cow.wav","null","audio-keyboard-response","109","62583","0.0-1.0-108.0","",""
"null","sound/msl/boing.wav","null","audio-keyboard-response","110","63083","0.0-1.0-109.0","",""
"null","sound/msl/goat.wav","null","audio-keyboard-response","111","63623","0.0-1.0-110.0","",""
"null","sound/msl/dog.wav","null","audio-keyboard-response","112","64124","0.0-1.0-111.0","",""
"null","sound/msl/duck.wav","null","audio-keyboard-response","113","64633","0.0-1.0-112.0","",""
"null","sound/msl/ding.wav","null","audio-keyboard-response","114","65144","0.0-1.0-113.0","",""
"null","sound/msl/slide_whistle.wav","null","audio-keyboard-response","115","65644","0.0-1.0-114.0","",""
"null","sound/msl/Water.wav","null","audio-keyboard-response","116","66153","0.0-1.0-115.0","",""
"null","sound/msl/bird.wav","null","audio-keyboard-response","117","66664","0.0-1.0-116.0","",""
"null","sound/msl/organ.wav","null","audio-keyboard-response","118","67164","0.0-1.0-117.0","",""
"null","sound/msl/door_bell.wav","null","audio-keyboard-response","119","67674","0.0-1.0-118.0","",""
"null","sound/msl/door.wav","null","audio-keyboard-response","120","68173","0.0-1.0-119.0","",""
"null","sound/msl/clock.wav","null","audio-keyboard-response","121","68724","0.0-1.0-120.0","",""
"null","sound/msl/cat.wav","null","audio-keyboard-response","122","69224","0.0-1.0-121.0","",""
"null","sound/msl/frog.wav","null","audio-keyboard-response","123","69725","0.0-1.0-122.0","",""
"null","sound/msl/cow.wav","null","audio-keyboard-response","124","70234","0.0-1.0-123.0","",""
"null","sound/msl/boing.wav","null","audio-keyboard-response","125","70735","0.0-1.0-124.0","",""
"null","sound/msl/goat.wav","null","audio-keyboard-response","126","71275","0.0-1.0-125.0","",""
"null","sound/msl/slide_whistle.wav","null","audio-keyboard-response","127","71775","0.0-1.0-126.0","",""
"null","sound/msl/Water.wav","null","audio-keyboard-response","128","72285","0.0-1.0-127.0","",""
"null","sound/msl/bird.wav","null","audio-keyboard-response","129","72795","0.0-1.0-128.0","",""
"null","sound/msl/dog.wav","null","audio-keyboard-response","130","73305","0.0-1.0-129.0","",""
"null","sound/msl/duck.wav","null","audio-keyboard-response","131","73805","0.0-1.0-130.0","",""
"null","sound/msl/ding.wav","null","audio-keyboard-response","132","74315","0.0-1.0-131.0","",""
"null","sound/msl/cow.wav","null","audio-keyboard-response","133","74825","0.0-1.0-132.0","",""
"null","sound/msl/boing.wav","null","audio-keyboard-response","134","75324","0.0-1.0-133.0","",""
"null","sound/msl/goat.wav","null","audio-keyboard-response","135","75865","0.0-1.0-134.0","",""
"null","sound/msl/organ.wav","null","audio-keyboard-response","136","76366","0.0-1.0-135.0","",""
"null","sound/msl/door_bell.wav","null","audio-keyboard-response","137","76875","0.0-1.0-136.0","",""
"null","sound/msl/door.wav","null","audio-keyboard-response","138","77375","0.0-1.0-137.0","",""
"null","sound/msl/dog.wav","null","audio-keyboard-response","139","77876","0.0-1.0-138.0","",""
"null","sound/msl/duck.wav","null","audio-keyboard-response","140","78385","0.0-1.0-139.0","",""
"null","sound/msl/ding.wav","null","audio-keyboard-response","141","78886","0.0-1.0-140.0","",""
"null","sound/msl/clock.wav","null","audio-keyboard-response","142","79435","0.0-1.0-141.0","",""
"null","sound/msl/cat.wav","null","audio-keyboard-response","143","79936","0.0-1.0-142.0","",""
"null","sound/msl/frog.wav","null","audio-keyboard-response","144","80435","0.0-1.0-143.0","",""
"null","sound/msl/slide_whistle.wav","null","audio-keyboard-response","145","80936","0.0-1.0-144.0","",""
"null","sound/msl/Water.wav","null","audio-keyboard-response","146","81446","0.0-1.0-145.0","",""
"null","sound/msl/bird.wav","null","audio-keyboard-response","147","81956","0.0-1.0-146.0","",""
"null","sound/msl/organ.wav","null","audio-keyboard-response","148","82455","0.0-1.0-147.0","",""
"null","sound/msl/door_bell.wav","null","audio-keyboard-response","149","82956","0.0-1.0-148.0","",""
"null","sound/msl/door.wav","null","audio-keyboard-response","150","83455","0.0-1.0-149.0","",""
"null","sound/msl/clock.wav","null","audio-keyboard-response","151","84006","0.0-1.0-150.0","",""
"null","sound/msl/cat.wav","null","audio-keyboard-response","152","84506","0.0-1.0-151.0","",""
"null","sound/msl/frog.wav","null","audio-keyboard-response","153","85006","0.0-1.0-152.0","",""
"null","sound/msl/cow.wav","null","audio-keyboard-response","154","85516","0.0-1.0-153.0","",""
"null","sound/msl/boing.wav","null","audio-keyboard-response","155","86016","0.0-1.0-154.0","",""
"null","sound/msl/goat.wav","null","audio-keyboard-response","156","86556","0.0-1.0-155.0","",""
"null","sound/msl/dog.wav","null","audio-keyboard-response","157","87066","0.0-1.0-156.0","",""
"null","sound/msl/duck.wav","null","audio-keyboard-response","158","87567","0.0-1.0-157.0","",""
"null","sound/msl/ding.wav","null","audio-keyboard-response","159","88076","0.0-1.0-158.0","",""
"null","sound/msl/slide_whistle.wav","null","audio-keyboard-response","160","88576","0.0-1.0-159.0","",""
"null","sound/msl/Water.wav","null","audio-keyboard-response","161","89087","0.0-1.0-160.0","",""
"null","sound/msl/bird.wav","null","audio-keyboard-response","162","89596","0.0-1.0-161.0","",""
"null","sound/msl/cow.wav","null","audio-keyboard-response","163","90106","0.0-1.0-162.0","",""
"null","sound/msl/boing.wav","null","audio-keyboard-response","164","90606","0.0-1.0-163.0","",""
"null","sound/msl/goat.wav","null","audio-keyboard-response","165","91147","0.0-1.0-164.0","",""
"null","sound/msl/dog.wav","null","audio-keyboard-response","166","91647","0.0-1.0-165.0","",""
"null","sound/msl/duck.wav","null","audio-keyboard-response","167","92157","0.0-1.0-166.0","",""
"null","sound/msl/ding.wav","null","audio-keyboard-response","168","92667","0.0-1.0-167.0","",""
"null","sound/msl/clock.wav","null","audio-keyboard-response","169","93217","0.0-1.0-168.0","",""
"null","sound/msl/cat.wav","null","audio-keyboard-response","170","93718","0.0-1.0-169.0","",""
"null","sound/msl/frog.wav","null","audio-keyboard-response","171","94228","0.0-1.0-170.0","",""
"null","sound/msl/organ.wav","null","audio-keyboard-response","172","94727","0.0-1.0-171.0","",""
"null","sound/msl/door_bell.wav","null","audio-keyboard-response","173","95237","0.0-1.0-172.0","",""
"null","sound/msl/door.wav","null","audio-keyboard-response","174","95737","0.0-1.0-173.0","",""
"null","sound/msl/slide_whistle.wav","null","audio-keyboard-response","175","96238","0.0-1.0-174.0","",""
"null","sound/msl/Water.wav","null","audio-keyboard-response","176","96747","0.0-1.0-175.0","",""
"null","sound/msl/bird.wav","null","audio-keyboard-response","177","97248","0.0-1.0-176.0","",""
"null","sound/msl/cow.wav","null","audio-keyboard-response","178","97757","0.0-1.0-177.0","",""
"null","sound/msl/boing.wav","null","audio-keyboard-response","179","98258","0.0-1.0-178.0","",""
"null","sound/msl/goat.wav","null","audio-keyboard-response","180","98798","0.0-1.0-179.0","",""
"null","sound/msl/organ.wav","null","audio-keyboard-response","181","99298","0.0-1.0-180.0","",""
"null","sound/msl/door_bell.wav","null","audio-keyboard-response","182","99793","0.0-1.0-181.0","",""
"null","sound/msl/door.wav","null","audio-keyboard-response","183","100293","0.0-1.0-182.0","",""
"null","sound/msl/dog.wav","null","audio-keyboard-response","184","100793","0.0-1.0-183.0","",""
"null","sound/msl/duck.wav","null","audio-keyboard-response","185","101303","0.0-1.0-184.0","",""
"null","sound/msl/ding.wav","null","audio-keyboard-response","186","101803","0.0-1.0-185.0","",""
"null","sound/msl/clock.wav","null","audio-keyboard-response","187","102353","0.0-1.0-186.0","",""
"null","sound/msl/cat.wav","null","audio-keyboard-response","188","102854","0.0-1.0-187.0","",""
"null","sound/msl/frog.wav","null","audio-keyboard-response","189","103354","0.0-1.0-188.0","",""
"null","sound/msl/slide_whistle.wav","null","audio-keyboard-response","190","103854","0.0-1.0-189.0","",""
"null","sound/msl/Water.wav","null","audio-keyboard-response","191","104363","0.0-1.0-190.0","",""
"null","sound/msl/bird.wav","null","audio-keyboard-response","192","104874","0.0-1.0-191.0","",""
"null","sound/msl/cow.wav","null","audio-keyboard-response","193","105384","0.0-1.0-192.0","",""
"null","sound/msl/boing.wav","null","audio-keyboard-response","194","105884","0.0-1.0-193.0","",""
"null","sound/msl/goat.wav","null","audio-keyboard-response","195","106423","0.0-1.0-194.0","",""
"null","sound/msl/organ.wav","null","audio-keyboard-response","196","106924","0.0-1.0-195.0","",""
"null","sound/msl/door_bell.wav","null","audio-keyboard-response","197","107434","0.0-1.0-196.0","",""
"null","sound/msl/door.wav","null","audio-keyboard-response","198","107935","0.0-1.0-197.0","",""
"null","sound/msl/clock.wav","null","audio-keyboard-response","199","108485","0.0-1.0-198.0","",""
"null","sound/msl/cat.wav","null","audio-keyboard-response","200","108985","0.0-1.0-199.0","",""
"null","sound/msl/frog.wav","null","audio-keyboard-response","201","109484","0.0-1.0-200.0","",""
"null","sound/msl/dog.wav","null","audio-keyboard-response","202","109994","0.0-1.0-201.0","",""
"null","sound/msl/duck.wav","null","audio-keyboard-response","203","110503","0.0-1.0-202.0","",""
"null","sound/msl/ding.wav","null","audio-keyboard-response","204","111005","0.0-1.0-203.0","",""
"null","sound/msl/slide_whistle.wav","null","audio-keyboard-response","205","111504","0.0-1.0-204.0","",""
"null","sound/msl/Water.wav","null","audio-keyboard-response","206","112014","0.0-1.0-205.0","",""
"null","sound/msl/bird.wav","null","audio-keyboard-response","207","112515","0.0-1.0-206.0","",""
"null","sound/msl/cow.wav","null","audio-keyboard-response","208","113025","0.0-1.0-207.0","",""
"null","sound/msl/boing.wav","null","audio-keyboard-response","209","113525","0.0-1.0-208.0","",""
"null","sound/msl/goat.wav","null","audio-keyboard-response","210","114065","0.0-1.0-209.0","",""
"null","sound/msl/clock.wav","null","audio-keyboard-response","211","114615","0.0-1.0-210.0","",""
"null","sound/msl/cat.wav","null","audio-keyboard-response","212","115115","0.0-1.0-211.0","",""
"null","sound/msl/frog.wav","null","audio-keyboard-response","213","115625","0.0-1.0-212.0","",""
"null","sound/msl/slide_whistle.wav","null","audio-keyboard-response","214","116125","0.0-1.0-213.0","",""
"null","sound/msl/Water.wav","null","audio-keyboard-response","215","116635","0.0-1.0-214.0","",""
"null","sound/msl/bird.wav","null","audio-keyboard-response","216","117146","0.0-1.0-215.0","",""
"null","sound/msl/organ.wav","null","audio-keyboard-response","217","117646","0.0-1.0-216.0","",""
"null","sound/msl/door_bell.wav","null","audio-keyboard-response","218","118156","0.0-1.0-217.0","",""
"null","sound/msl/door.wav","null","audio-keyboard-response","219","118655","0.0-1.0-218.0","",""
"null","sound/msl/dog.wav","null","audio-keyboard-response","220","119156","0.0-1.0-219.0","",""
"null","sound/msl/duck.wav","null","audio-keyboard-response","221","119665","0.0-1.0-220.0","",""
"null","sound/msl/ding.wav","null","audio-keyboard-response","222","120166","0.0-1.0-221.0","",""
"null","sound/msl/cow.wav","null","audio-keyboard-response","223","120676","0.0-1.0-222.0","",""
"null","sound/msl/boing.wav","null","audio-keyboard-response","224","121176","0.0-1.0-223.0","",""
"null","sound/msl/goat.wav","null","audio-keyboard-response","225","121716","0.0-1.0-224.0","",""
"null","sound/msl/organ.wav","null","audio-keyboard-response","226","122216","0.0-1.0-225.0","",""
"null","sound/msl/door_bell.wav","null","audio-keyboard-response","227","122716","0.0-1.0-226.0","",""
"null","sound/msl/door.wav","null","audio-keyboard-response","228","123216","0.0-1.0-227.0","",""
"null","sound/msl/slide_whistle.wav","null","audio-keyboard-response","229","123716","0.0-1.0-228.0","",""
"null","sound/msl/Water.wav","null","audio-keyboard-response","230","124226","0.0-1.0-229.0","",""
"null","sound/msl/bird.wav","null","audio-keyboard-response","231","124726","0.0-1.0-230.0","",""
"null","sound/msl/organ.wav","null","audio-keyboard-response","232","125227","0.0-1.0-231.0","",""
"null","sound/msl/door_bell.wav","null","audio-keyboard-response","233","125726","0.0-1.0-232.0","",""
"null","sound/msl/door.wav","null","audio-keyboard-response","234","126226","0.0-1.0-233.0","",""
"null","sound/msl/cow.wav","null","audio-keyboard-response","235","126726","0.0-1.0-234.0","",""
"null","sound/msl/boing.wav","null","audio-keyboard-response","236","127227","0.0-1.0-235.0","",""
"null","sound/msl/goat.wav","null","audio-keyboard-response","237","127767","0.0-1.0-236.0","",""
"null","sound/msl/dog.wav","null","audio-keyboard-response","238","128277","0.0-1.0-237.0","",""
"null","sound/msl/duck.wav","null","audio-keyboard-response","239","128787","0.0-1.0-238.0","",""
"null","sound/msl/ding.wav","null","audio-keyboard-response","240","129287","0.0-1.0-239.0","",""
"null","sound/msl/clock.wav","null","audio-keyboard-response","241","129837","0.0-1.0-240.0","",""
"null","sound/msl/cat.wav","null","audio-keyboard-response","242","130337","0.0-1.0-241.0","",""
"null","sound/msl/frog.wav","null","audio-keyboard-response","243","130837","0.0-1.0-242.0","",""
"null","sound/msl/slide_whistle.wav","null","audio-keyboard-response","244","131337","0.0-1.0-243.0","",""
"null","sound/msl/Water.wav","null","audio-keyboard-response","245","131848","0.0-1.0-244.0","",""
"null","sound/msl/bird.wav","null","audio-keyboard-response","246","132357","0.0-1.0-245.0","",""
"null","sound/msl/cow.wav","null","audio-keyboard-response","247","132867","0.0-1.0-246.0","",""
"null","sound/msl/boing.wav","null","audio-keyboard-response","248","133367","0.0-1.0-247.0","",""
"null","sound/msl/goat.wav","null","audio-keyboard-response","249","133907","0.0-1.0-248.0","",""
"null","sound/msl/dog.wav","null","audio-keyboard-response","250","134408","0.0-1.0-249.0","",""
"null","sound/msl/duck.wav","null","audio-keyboard-response","251","134918","0.0-1.0-250.0","",""
"null","sound/msl/ding.wav","null","audio-keyboard-response","252","135428","0.0-1.0-251.0","",""
"null","sound/msl/clock.wav","null","audio-keyboard-response","253","135978","0.0-1.0-252.0","",""
"null","sound/msl/cat.wav","null","audio-keyboard-response","254","136478","0.0-1.0-253.0","",""
"null","sound/msl/frog.wav","null","audio-keyboard-response","255","136988","0.0-1.0-254.0","",""
"null","sound/msl/organ.wav","null","audio-keyboard-response","256","137488","0.0-1.0-255.0","",""
"null","sound/msl/door_bell.wav","null","audio-keyboard-response","257","137999","0.0-1.0-256.0","",""
"null","sound/msl/door.wav","null","audio-keyboard-response","258","138498","0.0-1.0-257.0","",""
"null","sound/msl/slide_whistle.wav","null","audio-keyboard-response","259","138998","0.0-1.0-258.0","",""
"null","sound/msl/Water.wav","null","audio-keyboard-response","260","139508","0.0-1.0-259.0","",""
"null","sound/msl/bird.wav","null","audio-keyboard-response","261","140008","0.0-1.0-260.0","",""
"null","sound/msl/clock.wav","null","audio-keyboard-response","262","140553","0.0-1.0-261.0","",""
"null","sound/msl/cat.wav","null","audio-keyboard-response","263","141054","0.0-1.0-262.0","",""
"null","sound/msl/frog.wav","null","audio-keyboard-response","264","141554","0.0-1.0-263.0","",""
"null","sound/msl/dog.wav","null","audio-keyboard-response","265","142064","0.0-1.0-264.0","",""
"null","sound/msl/duck.wav","null","audio-keyboard-response","266","142564","0.0-1.0-265.0","",""
"null","sound/msl/ding.wav","null","audio-keyboard-response","267","143074","0.0-1.0-266.0","",""
"null","sound/msl/organ.wav","null","audio-keyboard-response","268","143574","0.0-1.0-267.0","",""
"null","sound/msl/door_bell.wav","null","audio-keyboard-response","269","144075","0.0-1.0-268.0","",""
"null","sound/msl/door.wav","null","audio-keyboard-response","270","144575","0.0-1.0-269.0","",""
"null","sound/msl/cow.wav","null","audio-keyboard-response","271","145074","0.0-1.0-270.0","",""
"null","sound/msl/boing.wav","null","audio-keyboard-response","272","145575","0.0-1.0-271.0","",""
"null","sound/msl/goat.wav","null","audio-keyboard-response","273","146114","0.0-1.0-272.0","",""
"null","sound/msl/slide_whistle.wav","null","audio-keyboard-response","274","146615","0.0-1.0-273.0","",""
"null","sound/msl/Water.wav","null","audio-keyboard-response","275","147125","0.0-1.0-274.0","",""
"null","sound/msl/bird.wav","null","audio-keyboard-response","276","147634","0.0-1.0-275.0","",""
"null","sound/msl/clock.wav","null","audio-keyboard-response","277","148185","0.0-1.0-276.0","",""
"null","sound/msl/cat.wav","null","audio-keyboard-response","278","148684","0.0-1.0-277.0","",""
"null","sound/msl/frog.wav","null","audio-keyboard-response","279","149195","0.0-1.0-278.0","",""
"null","sound/msl/dog.wav","null","audio-keyboard-response","280","149705","0.0-1.0-279.0","",""
"null","sound/msl/duck.wav","null","audio-keyboard-response","281","150205","0.0-1.0-280.0","",""
"null","sound/msl/ding.wav","null","audio-keyboard-response","282","150715","0.0-1.0-281.0","",""
"null","sound/msl/cow.wav","null","audio-keyboard-response","283","151225","0.0-1.0-282.0","",""
"null","sound/msl/boing.wav","null","audio-keyboard-response","284","151725","0.0-1.0-283.0","",""
"null","sound/msl/goat.wav","null","audio-keyboard-response","285","152266","0.0-1.0-284.0","",""
"null","sound/msl/organ.wav","null","audio-keyboard-response","286","152765","0.0-1.0-285.0","",""
"null","sound/msl/door_bell.wav","null","audio-keyboard-response","287","153275","0.0-1.0-286.0","",""
"null","sound/msl/door.wav","null","audio-keyboard-response","288","153775","0.0-1.0-287.0","",""
"null","sound/msl/slide_whistle.wav","null","audio-keyboard-response","289","154276","0.0-1.0-288.0","",""
"null","sound/msl/Water.wav","null","audio-keyboard-response","290","154785","0.0-1.0-289.0","",""
"null","sound/msl/bird.wav","null","audio-keyboard-response","291","155285","0.0-1.0-290.0","",""
"null","sound/msl/dog.wav","null","audio-keyboard-response","292","155796","0.0-1.0-291.0","",""
"null","sound/msl/duck.wav","null","audio-keyboard-response","293","156306","0.0-1.0-292.0","",""
"null","sound/msl/ding.wav","null","audio-keyboard-response","294","156806","0.0-1.0-293.0","",""
"null","sound/msl/clock.wav","null","audio-keyboard-response","295","157355","0.0-1.0-294.0","",""
"null","sound/msl/cat.wav","null","audio-keyboard-response","296","157856","0.0-1.0-295.0","",""
"null","sound/msl/frog.wav","null","audio-keyboard-response","297","158355","0.0-1.0-296.0","",""
"null","sound/msl/slide_whistle.wav","null","audio-keyboard-response","298","158856","0.0-1.0-297.0","",""
"null","sound/msl/Water.wav","null","audio-keyboard-response","299","159366","0.0-1.0-298.0","",""
"null","sound/msl/bird.wav","null","audio-keyboard-response","300","159876","0.0-1.0-299.0","",""
"null","sound/msl/cow.wav","null","audio-keyboard-response","301","160387","0.0-1.0-300.0","",""
"null","sound/msl/boing.wav","null","audio-keyboard-response","302","160887","0.0-1.0-301.0","",""
"null","sound/msl/goat.wav","null","audio-keyboard-response","303","161427","0.0-1.0-302.0","",""
"null","sound/msl/dog.wav","null","audio-keyboard-response","304","161926","0.0-1.0-303.0","",""
"null","sound/msl/duck.wav","null","audio-keyboard-response","305","162437","0.0-1.0-304.0","",""
"null","sound/msl/ding.wav","null","audio-keyboard-response","306","162947","0.0-1.0-305.0","",""
"null","sound/msl/organ.wav","null","audio-keyboard-response","307","163447","0.0-1.0-306.0","",""
"null","sound/msl/door_bell.wav","null","audio-keyboard-response","308","163956","0.0-1.0-307.0","",""
"null","sound/msl/door.wav","null","audio-keyboard-response","309","164457","0.0-1.0-308.0","",""
"null","sound/msl/clock.wav","null","audio-keyboard-response","310","165007","0.0-1.0-309.0","",""
"null","sound/msl/cat.wav","null","audio-keyboard-response","311","165508","0.0-1.0-310.0","",""
"null","sound/msl/frog.wav","null","audio-keyboard-response","312","166007","0.0-1.0-311.0","",""
"null","sound/msl/slide_whistle.wav","null","audio-keyboard-response","313","166507","0.0-1.0-312.0","",""
"null","sound/msl/Water.wav","null","audio-keyboard-response","314","167018","0.0-1.0-313.0","",""
"null","sound/msl/bird.wav","null","audio-keyboard-response","315","167517","0.0-1.0-314.0","",""
"null","sound/msl/cow.wav","null","audio-keyboard-response","316","168028","0.0-1.0-315.0","",""
"null","sound/msl/boing.wav","null","audio-keyboard-response","317","168527","0.0-1.0-316.0","",""
"null","sound/msl/goat.wav","null","audio-keyboard-response","318","169067","0.0-1.0-317.0","",""
"null","sound/msl/dog.wav","null","audio-keyboard-response","319","169568","0.0-1.0-318.0","",""
"null","sound/msl/duck.wav","null","audio-keyboard-response","320","170078","0.0-1.0-319.0","",""
"null","sound/msl/ding.wav","null","audio-keyboard-response","321","170588","0.0-1.0-320.0","",""
"null","sound/msl/clock.wav","null","audio-keyboard-response","322","171138","0.0-1.0-321.0","",""
"null","sound/msl/cat.wav","null","audio-keyboard-response","323","171638","0.0-1.0-322.0","",""
"null","sound/msl/frog.wav","null","audio-keyboard-response","324","172148","0.0-1.0-323.0","",""
"null","sound/msl/cow.wav","null","audio-keyboard-response","325","172649","0.0-1.0-324.0","",""
"null","sound/msl/boing.wav","null","audio-keyboard-response","326","173148","0.0-1.0-325.0","",""
"null","sound/msl/goat.wav","null","audio-keyboard-response","327","173688","0.0-1.0-326.0","",""
"null","sound/msl/organ.wav","null","audio-keyboard-response","328","174188","0.0-1.0-327.0","",""
"null","sound/msl/door_bell.wav","null","audio-keyboard-response","329","174688","0.0-1.0-328.0","",""
"null","sound/msl/door.wav","null","audio-keyboard-response","330","175189","0.0-1.0-329.0","",""
"null","sound/msl/slide_whistle.wav","null","audio-keyboard-response","331","175689","0.0-1.0-330.0","",""
"null","sound/msl/Water.wav","null","audio-keyboard-response","332","176199","0.0-1.0-331.0","",""
"null","sound/msl/bird.wav","null","audio-keyboard-response","333","176709","0.0-1.0-332.0","",""
"null","sound/msl/dog.wav","null","audio-keyboard-response","334","177209","0.0-1.0-333.0","",""
"null","sound/msl/duck.wav","null","audio-keyboard-response","335","177719","0.0-1.0-334.0","",""
"null","sound/msl/ding.wav","null","audio-keyboard-response","336","178229","0.0-1.0-335.0","",""
"null","sound/msl/organ.wav","null","audio-keyboard-response","337","178729","0.0-1.0-336.0","",""
"null","sound/msl/door_bell.wav","null","audio-keyboard-response","338","179240","0.0-1.0-337.0","",""
"null","sound/msl/door.wav","null","audio-keyboard-response","339","179738","0.0-1.0-338.0","",""
"null","sound/msl/clock.wav","null","audio-keyboard-response","340","180289","0.0-1.0-339.0","",""
"null","sound/msl/cat.wav","null","audio-keyboard-response","341","180789","0.0-1.0-340.0","",""
"null","sound/msl/frog.wav","null","audio-keyboard-response","342","181285","0.0-1.0-341.0","",""
"null","sound/msl/dog.wav","null","audio-keyboard-response","343","181794","0.0-1.0-342.0","",""
"null","sound/msl/duck.wav","null","audio-keyboard-response","344","182305","0.0-1.0-343.0","",""
"null","sound/msl/ding.wav","null","audio-keyboard-response","345","182805","0.0-1.0-344.0","",""
"null","sound/msl/clock.wav","null","audio-keyboard-response","346","183354","0.0-1.0-345.0","",""
"null","sound/msl/cat.wav","null","audio-keyboard-response","347","183855","0.0-1.0-346.0","",""
"null","sound/msl/frog.wav","null","audio-keyboard-response","348","184355","0.0-1.0-347.0","",""
"null","sound/msl/organ.wav","null","audio-keyboard-response","349","184855","0.0-1.0-348.0","",""
"null","sound/msl/door_bell.wav","null","audio-keyboard-response","350","185355","0.0-1.0-349.0","",""
"null","sound/msl/door.wav","null","audio-keyboard-response","351","185855","0.0-1.0-350.0","",""
"null","sound/msl/slide_whistle.wav","null","audio-keyboard-response","352","186355","0.0-1.0-351.0","",""
"null","sound/msl/Water.wav","null","audio-keyboard-response","353","186865","0.0-1.0-352.0","",""
"null","sound/msl/bird.wav","null","audio-keyboard-response","354","187365","0.0-1.0-353.0","",""
"null","sound/msl/dog.wav","null","audio-keyboard-response","355","187875","0.0-1.0-354.0","",""
"null","sound/msl/duck.wav","null","audio-keyboard-response","356","188385","0.0-1.0-355.0","",""
"null","sound/msl/ding.wav","null","audio-keyboard-response","357","188885","0.0-1.0-356.0","",""
"null","sound/msl/clock.wav","null","audio-keyboard-response","358","189435","0.0-1.0-357.0","",""
"null","sound/msl/cat.wav","null","audio-keyboard-response","359","189936","0.0-1.0-358.0","",""
"null","sound/msl/frog.wav","null","audio-keyboard-response","360","190436","0.0-1.0-359.0","",""
"34404","Instructions2-eng.png","49","image-keyboard-response","361","224841","0.0-2.0","",""
"null","sound/msl/clock.wav","null","audio-keyboard-response","362","225382","0.0-3.0-0.0","",""
"null","sound/msl/boing.wav","null","audio-keyboard-response","363","225882","0.0-3.0-1.0","",""
"null","sound/msl/door.wav","null","audio-keyboard-response","364","226382","0.0-3.0-2.0","",""
"null","sound/asl/silence.wav","null","audio-keyboard-response","365","226884","0.0-3.0-3.0","",""
"null","sound/msl/dog.wav","null","audio-keyboard-response","366","227377","0.0-3.0-4.0","",""
"null","sound/msl/duck.wav","null","audio-keyboard-response","367","227887","0.0-3.0-5.0","",""
"null","sound/msl/ding.wav","null","audio-keyboard-response","368","228388","0.0-3.0-6.0","",""
"989","sound/asl/silence.wav","49","audio-keyboard-response","369","229384","0.0-3.0-7.0","false",""
"null","sound/msl/cow.wav","null","audio-keyboard-response","370","229888","0.0-4.0-0.0","",""
"null","sound/msl/boing.wav","null","audio-keyboard-response","371","230388","0.0-4.0-1.0","",""
"null","sound/msl/goat.wav","null","audio-keyboard-response","372","230927","0.0-4.0-2.0","",""
"null","sound/asl/silence.wav","null","audio-keyboard-response","373","231429","0.0-4.0-3.0","",""
"null","sound/msl/organ.wav","null","audio-keyboard-response","374","231928","0.0-4.0-4.0","",""
"null","sound/msl/duck.wav","null","audio-keyboard-response","375","232428","0.0-4.0-5.0","",""
"null","sound/msl/bird.wav","null","audio-keyboard-response","376","232938","0.0-4.0-6.0","",""
"1669","sound/asl/silence.wav","50","audio-keyboard-response","377","234618","0.0-4.0-7.0","false",""
"null","sound/msl/cow.wav","null","audio-keyboard-response","378","235128","0.0-5.0-0.0","",""
"null","sound/msl/door_bell.wav","null","audio-keyboard-response","379","235628","0.0-5.0-1.0","",""
"null","sound/msl/ding.wav","null","audio-keyboard-response","380","236138","0.0-5.0-2.0","",""
"null","sound/asl/silence.wav","null","audio-keyboard-response","381","236639","0.0-5.0-3.0","",""
"null","sound/msl/clock.wav","null","audio-keyboard-response","382","237188","0.0-5.0-4.0","",""
"null","sound/msl/cat.wav","null","audio-keyboard-response","383","237688","0.0-5.0-5.0","",""
"null","sound/msl/frog.wav","null","audio-keyboard-response","384","238188","0.0-5.0-6.0","",""
"539","sound/asl/silence.wav","50","audio-keyboard-response","385","238733","0.0-5.0-7.0","true",""
"null","sound/msl/organ.wav","null","audio-keyboard-response","386","239228","0.0-6.0-0.0","",""
"null","sound/msl/duck.wav","null","audio-keyboard-response","387","239739","0.0-6.0-1.0","",""
"null","sound/msl/bird.wav","null","audio-keyboard-response","388","240248","0.0-6.0-2.0","",""
"null","sound/asl/silence.wav","null","audio-keyboard-response","389","240750","0.0-6.0-3.0","",""
"null","sound/msl/dog.wav","null","audio-keyboard-response","390","241259","0.0-6.0-4.0","",""
"null","sound/msl/duck.wav","null","audio-keyboard-response","391","241768","0.0-6.0-5.0","",""
"null","sound/msl/ding.wav","null","audio-keyboard-response","392","242269","0.0-6.0-6.0","",""
"1488","sound/asl/silence.wav","49","audio-keyboard-response","393","243760","0.0-6.0-7.0","false",""
"null","sound/msl/dog.wav","null","audio-keyboard-response","394","244259","0.0-7.0-0.0","",""
"null","sound/msl/Water.wav","null","audio-keyboard-response","395","244769","0.0-7.0-1.0","",""
"null","sound/msl/frog.wav","null","audio-keyboard-response","396","245270","0.0-7.0-2.0","",""
"null","sound/asl/silence.wav","null","audio-keyboard-response","397","245771","0.0-7.0-3.0","",""
"null","sound/msl/cow.wav","null","audio-keyboard-response","398","246270","0.0-7.0-4.0","",""
"null","sound/msl/boing.wav","null","audio-keyboard-response","399","246769","0.0-7.0-5.0","",""
"null","sound/msl/goat.wav","null","audio-keyboard-response","400","247309","0.0-7.0-6.0","",""
"480","sound/asl/silence.wav","50","audio-keyboard-response","401","247797","0.0-7.0-7.0","true",""
"null","sound/msl/organ.wav","null","audio-keyboard-response","402","248290","0.0-8.0-0.0","",""
"null","sound/msl/door_bell.wav","null","audio-keyboard-response","403","248790","0.0-8.0-1.0","",""
"null","sound/msl/door.wav","null","audio-keyboard-response","404","249290","0.0-8.0-2.0","",""
"null","sound/asl/silence.wav","null","audio-keyboard-response","405","249791","0.0-8.0-3.0","",""
"null","sound/msl/clock.wav","null","audio-keyboard-response","406","250340","0.0-8.0-4.0","",""
"null","sound/msl/boing.wav","null","audio-keyboard-response","407","250840","0.0-8.0-5.0","",""
"null","sound/msl/door.wav","null","audio-keyboard-response","408","251340","0.0-8.0-6.0","",""
"1931","sound/asl/silence.wav","49","audio-keyboard-response","409","253278","0.0-8.0-7.0","true",""
"null","sound/msl/cow.wav","null","audio-keyboard-response","410","253780","0.0-9.0-0.0","",""
"null","sound/msl/door_bell.wav","null","audio-keyboard-response","411","254291","0.0-9.0-1.0","",""
"null","sound/msl/ding.wav","null","audio-keyboard-response","412","254791","0.0-9.0-2.0","",""
"null","sound/asl/silence.wav","null","audio-keyboard-response","413","255293","0.0-9.0-3.0","",""
"null","sound/msl/dog.wav","null","audio-keyboard-response","414","255791","0.0-9.0-4.0","",""
"null","sound/msl/duck.wav","null","audio-keyboard-response","415","256301","0.0-9.0-5.0","",""
"null","sound/msl/ding.wav","null","audio-keyboard-response","416","256811","0.0-9.0-6.0","",""
"981","sound/asl/silence.wav","49","audio-keyboard-response","417","257794","0.0-9.0-7.0","false",""
"null","sound/msl/slide_whistle.wav","null","audio-keyboard-response","418","258291","0.0-10.0-0.0","",""
"null","sound/msl/Water.wav","null","audio-keyboard-response","419","258801","0.0-10.0-1.0","",""
"null","sound/msl/bird.wav","null","audio-keyboard-response","420","259301","0.0-10.0-2.0","",""
"null","sound/asl/silence.wav","null","audio-keyboard-response","421","259803","0.0-10.0-3.0","",""
"null","sound/msl/slide_whistle.wav","null","audio-keyboard-response","422","260302","0.0-10.0-4.0","",""
"null","sound/msl/cat.wav","null","audio-keyboard-response","423","260802","0.0-10.0-5.0","",""
"null","sound/msl/goat.wav","null","audio-keyboard-response","424","261341","0.0-10.0-6.0","",""
"429","sound/asl/silence.wav","49","audio-keyboard-response","425","261772","0.0-10.0-7.0","true",""
"null","sound/msl/cow.wav","null","audio-keyboard-response","426","262272","0.0-11.0-0.0","",""
"null","sound/msl/boing.wav","null","audio-keyboard-response","427","262772","0.0-11.0-1.0","",""
"null","sound/msl/goat.wav","null","audio-keyboard-response","428","263312","0.0-11.0-2.0","",""
"null","sound/asl/silence.wav","null","audio-keyboard-response","429","263813","0.0-11.0-3.0","",""
"null","sound/msl/clock.wav","null","audio-keyboard-response","430","264362","0.0-11.0-4.0","",""
"null","sound/msl/boing.wav","null","audio-keyboard-response","431","264862","0.0-11.0-5.0","",""
"null","sound/msl/door.wav","null","audio-keyboard-response","432","265362","0.0-11.0-6.0","",""
"1221","sound/asl/silence.wav","49","audio-keyboard-response","433","266584","0.0-11.0-7.0","true",""
"null","sound/msl/clock.wav","null","audio-keyboard-response","434","267132","0.0-12.0-0.0","",""
"null","sound/msl/boing.wav","null","audio-keyboard-response","435","267627","0.0-12.0-1.0","",""
"null","sound/msl/door.wav","null","audio-keyboard-response","436","268128","0.0-12.0-2.0","",""
"null","sound/asl/silence.wav","null","audio-keyboard-response","437","268629","0.0-12.0-3.0","",""
"null","sound/msl/slide_whistle.wav","null","audio-keyboard-response","438","269128","0.0-12.0-4.0","",""
"null","sound/msl/Water.wav","null","audio-keyboard-response","439","269638","0.0-12.0-5.0","",""
"null","sound/msl/bird.wav","null","audio-keyboard-response","440","270137","0.0-12.0-6.0","",""
"1611","sound/asl/silence.wav","50","audio-keyboard-response","441","271756","0.0-12.0-7.0","true",""
"null","sound/msl/clock.wav","null","audio-keyboard-response","442","272297","0.0-13.0-0.0","",""
"null","sound/msl/cat.wav","null","audio-keyboard-response","443","272798","0.0-13.0-1.0","",""
"null","sound/msl/frog.wav","null","audio-keyboard-response","444","273298","0.0-13.0-2.0","",""
"null","sound/asl/silence.wav","null","audio-keyboard-response","445","273799","0.0-13.0-3.0","",""
"null","sound/msl/dog.wav","null","audio-keyboard-response","446","274299","0.0-13.0-4.0","",""
"null","sound/msl/Water.wav","null","audio-keyboard-response","447","274808","0.0-13.0-5.0","",""
"null","sound/msl/frog.wav","null","audio-keyboard-response","448","275309","0.0-13.0-6.0","",""
"1019","sound/asl/silence.wav","49","audio-keyboard-response","449","276333","0.0-13.0-7.0","true",""
"null","sound/msl/organ.wav","null","audio-keyboard-response","450","276828","0.0-14.0-0.0","",""
"null","sound/msl/duck.wav","null","audio-keyboard-response","451","277338","0.0-14.0-1.0","",""
"null","sound/msl/bird.wav","null","audio-keyboard-response","452","277848","0.0-14.0-2.0","",""
"null","sound/asl/silence.wav","null","audio-keyboard-response","453","278350","0.0-14.0-3.0","",""
"null","sound/msl/clock.wav","null","audio-keyboard-response","454","278900","0.0-14.0-4.0","",""
"null","sound/msl/cat.wav","null","audio-keyboard-response","455","279399","0.0-14.0-5.0","",""
"null","sound/msl/frog.wav","null","audio-keyboard-response","456","279899","0.0-14.0-6.0","",""
"491","sound/asl/silence.wav","49","audio-keyboard-response","457","280399","0.0-14.0-7.0","false",""
"null","sound/msl/cow.wav","null","audio-keyboard-response","458","280899","0.0-15.0-0.0","",""
"null","sound/msl/door_bell.wav","null","audio-keyboard-response","459","281409","0.0-15.0-1.0","",""
"null","sound/msl/ding.wav","null","audio-keyboard-response","460","281909","0.0-15.0-2.0","",""
"null","sound/asl/silence.wav","null","audio-keyboard-response","461","282410","0.0-15.0-3.0","",""
"null","sound/msl/organ.wav","null","audio-keyboard-response","462","282909","0.0-15.0-4.0","",""
"null","sound/msl/door_bell.wav","null","audio-keyboard-response","463","283419","0.0-15.0-5.0","",""
"null","sound/msl/door.wav","null","audio-keyboard-response","464","283920","0.0-15.0-6.0","",""
"811","sound/asl/silence.wav","50","audio-keyboard-response","465","284734","0.0-15.0-7.0","true",""
"null","sound/msl/organ.wav","null","audio-keyboard-response","466","285230","0.0-16.0-0.0","",""
"null","sound/msl/duck.wav","null","audio-keyboard-response","467","285740","0.0-16.0-1.0","",""
"null","sound/msl/bird.wav","null","audio-keyboard-response","468","286250","0.0-16.0-2.0","",""
"null","sound/asl/silence.wav","null","audio-keyboard-response","469","286751","0.0-16.0-3.0","",""
"null","sound/msl/organ.wav","null","audio-keyboard-response","470","287250","0.0-16.0-4.0","",""
"null","sound/msl/door_bell.wav","null","audio-keyboard-response","471","287750","0.0-16.0-5.0","",""
"null","sound/msl/door.wav","null","audio-keyboard-response","472","288250","0.0-16.0-6.0","",""
"1000","sound/asl/silence.wav","49","audio-keyboard-response","473","289253","0.0-16.0-7.0","false",""
"null","sound/msl/cow.wav","null","audio-keyboard-response","474","289751","0.0-17.0-0.0","",""
"null","sound/msl/boing.wav","null","audio-keyboard-response","475","290250","0.0-17.0-1.0","",""
"null","sound/msl/goat.wav","null","audio-keyboard-response","476","290790","0.0-17.0-2.0","",""
"null","sound/asl/silence.wav","null","audio-keyboard-response","477","291292","0.0-17.0-3.0","",""
"null","sound/msl/cow.wav","null","audio-keyboard-response","478","291791","0.0-17.0-4.0","",""
"null","sound/msl/door_bell.wav","null","audio-keyboard-response","479","292301","0.0-17.0-5.0","",""
"null","sound/msl/ding.wav","null","audio-keyboard-response","480","292810","0.0-17.0-6.0","",""
"349","sound/asl/silence.wav","50","audio-keyboard-response","481","293161","0.0-17.0-7.0","false",""
"null","sound/msl/clock.wav","null","audio-keyboard-response","482","293711","0.0-18.0-0.0","",""
"null","sound/msl/boing.wav","null","audio-keyboard-response","483","294211","0.0-18.0-1.0","",""
"null","sound/msl/door.wav","null","audio-keyboard-response","484","294711","0.0-18.0-2.0","",""
"null","sound/asl/silence.wav","null","audio-keyboard-response","485","295212","0.0-18.0-3.0","",""
"null","sound/msl/clock.wav","null","audio-keyboard-response","486","295762","0.0-18.0-4.0","",""
"null","sound/msl/cat.wav","null","audio-keyboard-response","487","296261","0.0-18.0-5.0","",""
"null","sound/msl/frog.wav","null","audio-keyboard-response","488","296771","0.0-18.0-6.0","",""
"349","sound/asl/silence.wav","49","audio-keyboard-response","489","297123","0.0-18.0-7.0","false",""
"null","sound/msl/slide_whistle.wav","null","audio-keyboard-response","490","297621","0.0-19.0-0.0","",""
"null","sound/msl/Water.wav","null","audio-keyboard-response","491","298131","0.0-19.0-1.0","",""
"null","sound/msl/bird.wav","null","audio-keyboard-response","492","298631","0.0-19.0-2.0","",""
"null","sound/asl/silence.wav","null","audio-keyboard-response","493","299134","0.0-19.0-3.0","",""
"null","sound/msl/cow.wav","null","audio-keyboard-response","494","299632","0.0-19.0-4.0","",""
"null","sound/msl/door_bell.wav","null","audio-keyboard-response","495","300142","0.0-19.0-5.0","",""
"null","sound/msl/ding.wav","null","audio-keyboard-response","496","300651","0.0-19.0-6.0","",""
"869","sound/asl/silence.wav","49","audio-keyboard-response","497","301523","0.0-19.0-7.0","true",""
"null","sound/msl/dog.wav","null","audio-keyboard-response","498","302022","0.0-20.0-0.0","",""
"null","sound/msl/duck.wav","null","audio-keyboard-response","499","302532","0.0-20.0-1.0","",""
"null","sound/msl/ding.wav","null","audio-keyboard-response","500","303032","0.0-20.0-2.0","",""
"null","sound/asl/silence.wav","null","audio-keyboard-response","501","303533","0.0-20.0-3.0","",""
"null","sound/msl/dog.wav","null","audio-keyboard-response","502","304032","0.0-20.0-4.0","",""
"null","sound/msl/Water.wav","null","audio-keyboard-response","503","304543","0.0-20.0-5.0","",""
"null","sound/msl/frog.wav","null","audio-keyboard-response","504","305053","0.0-20.0-6.0","",""
"1000","sound/asl/silence.wav","50","audio-keyboard-response","505","306059","0.0-20.0-7.0","false",""
"null","sound/msl/clock.wav","null","audio-keyboard-response","506","306603","0.0-21.0-0.0","",""
"null","sound/msl/cat.wav","null","audio-keyboard-response","507","307102","0.0-21.0-1.0","",""
"null","sound/msl/frog.wav","null","audio-keyboard-response","508","307613","0.0-21.0-2.0","",""
"null","sound/asl/silence.wav","null","audio-keyboard-response","509","308115","0.0-21.0-3.0","",""
"null","sound/msl/slide_whistle.wav","null","audio-keyboard-response","510","308607","0.0-21.0-4.0","",""
"null","sound/msl/cat.wav","null","audio-keyboard-response","511","309107","0.0-21.0-5.0","",""
"null","sound/msl/goat.wav","null","audio-keyboard-response","512","309648","0.0-21.0-6.0","",""
"560","sound/asl/silence.wav","50","audio-keyboard-response","513","310212","0.0-21.0-7.0","false",""
"null","sound/msl/organ.wav","null","audio-keyboard-response","514","310708","0.0-22.0-0.0","",""
"null","sound/msl/duck.wav","null","audio-keyboard-response","515","311219","0.0-22.0-1.0","",""
"null","sound/msl/bird.wav","null","audio-keyboard-response","516","311728","0.0-22.0-2.0","",""
"null","sound/asl/silence.wav","null","audio-keyboard-response","517","312231","0.0-22.0-3.0","",""
"null","sound/msl/slide_whistle.wav","null","audio-keyboard-response","518","312728","0.0-22.0-4.0","",""
"null","sound/msl/Water.wav","null","audio-keyboard-response","519","313239","0.0-22.0-5.0","",""
"null","sound/msl/bird.wav","null","audio-keyboard-response","520","313738","0.0-22.0-6.0","",""
"99","sound/asl/silence.wav","49","audio-keyboard-response","521","313843","0.0-22.0-7.0","false",""
"null","sound/msl/slide_whistle.wav","null","audio-keyboard-response","522","314339","0.0-23.0-0.0","",""
"null","sound/msl/Water.wav","null","audio-keyboard-response","523","314849","0.0-23.0-1.0","",""
"null","sound/msl/bird.wav","null","audio-keyboard-response","524","315349","0.0-23.0-2.0","",""
"408","sound/asl/silence.wav","49","audio-keyboard-response","525","315766","0.0-23.0-3.0","",""
"null","sound/msl/dog.wav","null","audio-keyboard-response","526","316258","0.0-23.0-4.0","",""
"null","sound/msl/Water.wav","null","audio-keyboard-response","527","316769","0.0-23.0-5.0","",""
"null","sound/msl/frog.wav","null","audio-keyboard-response","528","317269","0.0-23.0-6.0","",""
"560","sound/asl/silence.wav","49","audio-keyboard-response","529","317830","0.0-23.0-7.0","true",""
"null","sound/msl/dog.wav","null","audio-keyboard-response","530","318339","0.0-24.0-0.0","",""
"null","sound/msl/Water.wav","null","audio-keyboard-response","531","318849","0.0-24.0-1.0","",""
"null","sound/msl/frog.wav","null","audio-keyboard-response","532","319349","0.0-24.0-2.0","",""
"null","sound/asl/silence.wav","null","audio-keyboard-response","533","319851","0.0-24.0-3.0","",""
"null","sound/msl/organ.wav","null","audio-keyboard-response","534","320350","0.0-24.0-4.0","",""
"null","sound/msl/door_bell.wav","null","audio-keyboard-response","535","320859","0.0-24.0-5.0","",""
"null","sound/msl/door.wav","null","audio-keyboard-response","536","321360","0.0-24.0-6.0","",""
"512","sound/asl/silence.wav","50","audio-keyboard-response","537","321872","0.0-24.0-7.0","true",""
"null","sound/msl/dog.wav","null","audio-keyboard-response","538","322380","0.0-25.0-0.0","",""
"null","sound/msl/duck.wav","null","audio-keyboard-response","539","322890","0.0-25.0-1.0","",""
"null","sound/msl/ding.wav","null","audio-keyboard-response","540","323390","0.0-25.0-2.0","",""
"null","sound/asl/silence.wav","null","audio-keyboard-response","541","323891","0.0-25.0-3.0","",""
"null","sound/msl/slide_whistle.wav","null","audio-keyboard-response","542","324390","0.0-25.0-4.0","",""
"null","sound/msl/cat.wav","null","audio-keyboard-response","543","324890","0.0-25.0-5.0","",""
"null","sound/msl/goat.wav","null","audio-keyboard-response","544","325430","0.0-25.0-6.0","",""
"419","sound/asl/silence.wav","50","audio-keyboard-response","545","325851","0.0-25.0-7.0","false",""
"null","sound/msl/slide_whistle.wav","null","audio-keyboard-response","546","326350","0.0-26.0-0.0","",""
"null","sound/msl/cat.wav","null","audio-keyboard-response","547","326851","0.0-26.0-1.0","",""
"null","sound/msl/goat.wav","null","audio-keyboard-response","548","327390","0.0-26.0-2.0","",""
"null","sound/asl/silence.wav","null","audio-keyboard-response","549","327892","0.0-26.0-3.0","",""
"null","sound/msl/cow.wav","null","audio-keyboard-response","550","328391","0.0-26.0-4.0","",""
"null","sound/msl/boing.wav","null","audio-keyboard-response","551","328891","0.0-26.0-5.0","",""
"null","sound/msl/goat.wav","null","audio-keyboard-response","552","329431","0.0-26.0-6.0","",""
"779","sound/asl/silence.wav","50","audio-keyboard-response","553","330218","0.0-26.0-7.0","true",""
"null","sound/msl/organ.wav","null","audio-keyboard-response","554","330711","0.0-27.0-0.0","",""
"null","sound/msl/door_bell.wav","null","audio-keyboard-response","555","331221","0.0-27.0-1.0","",""
"null","sound/msl/door.wav","null","audio-keyboard-response","556","331721","0.0-27.0-2.0","",""
"null","sound/asl/silence.wav","null","audio-keyboard-response","557","332222","0.0-27.0-3.0","",""
"null","sound/msl/slide_whistle.wav","null","audio-keyboard-response","558","332722","0.0-27.0-4.0","",""
"null","sound/msl/cat.wav","null","audio-keyboard-response","559","333221","0.0-27.0-5.0","",""
"null","sound/msl/goat.wav","null","audio-keyboard-response","560","333761","0.0-27.0-6.0","",""
"680","sound/asl/silence.wav","50","audio-keyboard-response","561","334449","0.0-27.0-7.0","false",""
"2925","","","instructions","562","337377","0.0-28.0","","[{""page_index"":0,""viewing_time"":2925}]"
