"rt","stimulus","key_press","trial_type","trial_index","time_elapsed","internal_node_id","correct","view_history"
"5580","alien.jpg","49","image-keyboard-response","0","5581","0.0-0.0","",""
"null","sound/msl/cat.wav","null","audio-keyboard-response","1","6074","0.0-1.0-0.0","",""
"null","sound/msl/Water.wav","null","audio-keyboard-response","2","6585","0.0-1.0-1.0","",""
"null","sound/msl/ding.wav","null","audio-keyboard-response","3","7084","0.0-1.0-2.0","",""
"null","sound/msl/bird.wav","null","audio-keyboard-response","4","7596","0.0-1.0-3.0","",""
"null","sound/msl/organ.wav","null","audio-keyboard-response","5","8094","0.0-1.0-4.0","",""
"null","sound/msl/slide_whistle.wav","null","audio-keyboard-response","6","8595","0.0-1.0-5.0","",""
"null","sound/msl/duck.wav","null","audio-keyboard-response","7","9094","0.0-1.0-6.0","",""
"null","sound/msl/cow.wav","null","audio-keyboard-response","8","9605","0.0-1.0-7.0","",""
"null","sound/msl/clock.wav","null","audio-keyboard-response","9","10155","0.0-1.0-8.0","",""
"null","sound/msl/boing.wav","null","audio-keyboard-response","10","10655","0.0-1.0-9.0","",""
"null","sound/msl/door.wav","null","audio-keyboard-response","11","11155","0.0-1.0-10.0","",""
"null","sound/msl/goat.wav","null","audio-keyboard-response","12","11694","0.0-1.0-11.0","",""
"null","sound/msl/bird.wav","null","audio-keyboard-response","13","12205","0.0-1.0-12.0","",""
"null","sound/msl/organ.wav","null","audio-keyboard-response","14","12705","0.0-1.0-13.0","",""
"null","sound/msl/slide_whistle.wav","null","audio-keyboard-response","15","13205","0.0-1.0-14.0","",""
"null","sound/msl/cat.wav","null","audio-keyboard-response","16","13705","0.0-1.0-15.0","",""
"null","sound/msl/Water.wav","null","audio-keyboard-response","17","14215","0.0-1.0-16.0","",""
"null","sound/msl/ding.wav","null","audio-keyboard-response","18","14725","0.0-1.0-17.0","",""
"null","sound/msl/door_bell.wav","null","audio-keyboard-response","19","15235","0.0-1.0-18.0","",""
"null","sound/msl/dog.wav","null","audio-keyboard-response","20","15736","0.0-1.0-19.0","",""
"null","sound/msl/frog.wav","null","audio-keyboard-response","21","16245","0.0-1.0-20.0","",""
"null","sound/msl/boing.wav","null","audio-keyboard-response","22","16746","0.0-1.0-21.0","",""
"null","sound/msl/door.wav","null","audio-keyboard-response","23","17246","0.0-1.0-22.0","",""
"null","sound/msl/goat.wav","null","audio-keyboard-response","24","17786","0.0-1.0-23.0","",""
"null","sound/msl/duck.wav","null","audio-keyboard-response","25","18285","0.0-1.0-24.0","",""
"null","sound/msl/cow.wav","null","audio-keyboard-response","26","18796","0.0-1.0-25.0","",""
"null","sound/msl/clock.wav","null","audio-keyboard-response","27","19346","0.0-1.0-26.0","",""
"null","sound/msl/cat.wav","null","audio-keyboard-response","28","19845","0.0-1.0-27.0","",""
"null","sound/msl/Water.wav","null","audio-keyboard-response","29","20356","0.0-1.0-28.0","",""
"null","sound/msl/ding.wav","null","audio-keyboard-response","30","20856","0.0-1.0-29.0","",""
"null","sound/msl/bird.wav","null","audio-keyboard-response","31","21366","0.0-1.0-30.0","",""
"null","sound/msl/organ.wav","null","audio-keyboard-response","32","21866","0.0-1.0-31.0","",""
"null","sound/msl/slide_whistle.wav","null","audio-keyboard-response","33","22367","0.0-1.0-32.0","",""
"null","sound/msl/door_bell.wav","null","audio-keyboard-response","34","22876","0.0-1.0-33.0","",""
"null","sound/msl/dog.wav","null","audio-keyboard-response","35","23377","0.0-1.0-34.0","",""
"null","sound/msl/frog.wav","null","audio-keyboard-response","36","23886","0.0-1.0-35.0","",""
"null","sound/msl/duck.wav","null","audio-keyboard-response","37","24397","0.0-1.0-36.0","",""
"null","sound/msl/cow.wav","null","audio-keyboard-response","38","24897","0.0-1.0-37.0","",""
"null","sound/msl/clock.wav","null","audio-keyboard-response","39","25447","0.0-1.0-38.0","",""
"null","sound/msl/boing.wav","null","audio-keyboard-response","40","25947","0.0-1.0-39.0","",""
"null","sound/msl/door.wav","null","audio-keyboard-response","41","26447","0.0-1.0-40.0","",""
"null","sound/msl/goat.wav","null","audio-keyboard-response","42","26987","0.0-1.0-41.0","",""
"null","sound/msl/door_bell.wav","null","audio-keyboard-response","43","27487","0.0-1.0-42.0","",""
"null","sound/msl/dog.wav","null","audio-keyboard-response","44","27997","0.0-1.0-43.0","",""
"null","sound/msl/frog.wav","null","audio-keyboard-response","45","28497","0.0-1.0-44.0","",""
"null","sound/msl/bird.wav","null","audio-keyboard-response","46","29007","0.0-1.0-45.0","",""
"null","sound/msl/organ.wav","null","audio-keyboard-response","47","29507","0.0-1.0-46.0","",""
"null","sound/msl/slide_whistle.wav","null","audio-keyboard-response","48","30008","0.0-1.0-47.0","",""
"null","sound/msl/duck.wav","null","audio-keyboard-response","49","30517","0.0-1.0-48.0","",""
"null","sound/msl/cow.wav","null","audio-keyboard-response","50","31018","0.0-1.0-49.0","",""
"null","sound/msl/clock.wav","null","audio-keyboard-response","51","31568","0.0-1.0-50.0","",""
"null","sound/msl/cat.wav","null","audio-keyboard-response","52","32067","0.0-1.0-51.0","",""
"null","sound/msl/Water.wav","null","audio-keyboard-response","53","32578","0.0-1.0-52.0","",""
"null","sound/msl/ding.wav","null","audio-keyboard-response","54","33088","0.0-1.0-53.0","",""
"null","sound/msl/bird.wav","null","audio-keyboard-response","55","33597","0.0-1.0-54.0","",""
"null","sound/msl/organ.wav","null","audio-keyboard-response","56","34098","0.0-1.0-55.0","",""
"null","sound/msl/slide_whistle.wav","null","audio-keyboard-response","57","34599","0.0-1.0-56.0","",""
"null","sound/msl/duck.wav","null","audio-keyboard-response","58","35098","0.0-1.0-57.0","",""
"null","sound/msl/cow.wav","null","audio-keyboard-response","59","35608","0.0-1.0-58.0","",""
"null","sound/msl/clock.wav","null","audio-keyboard-response","60","36158","0.0-1.0-59.0","",""
"null","sound/msl/boing.wav","null","audio-keyboard-response","61","36658","0.0-1.0-60.0","",""
"null","sound/msl/door.wav","null","audio-keyboard-response","62","37158","0.0-1.0-61.0","",""
"null","sound/msl/goat.wav","null","audio-keyboard-response","63","37698","0.0-1.0-62.0","",""
"null","sound/msl/door_bell.wav","null","audio-keyboard-response","64","38208","0.0-1.0-63.0","",""
"null","sound/msl/dog.wav","null","audio-keyboard-response","65","38718","0.0-1.0-64.0","",""
"null","sound/msl/frog.wav","null","audio-keyboard-response","66","39218","0.0-1.0-65.0","",""
"null","sound/msl/bird.wav","null","audio-keyboard-response","67","39728","0.0-1.0-66.0","",""
"null","sound/msl/organ.wav","null","audio-keyboard-response","68","40228","0.0-1.0-67.0","",""
"null","sound/msl/slide_whistle.wav","null","audio-keyboard-response","69","40729","0.0-1.0-68.0","",""
"null","sound/msl/cat.wav","null","audio-keyboard-response","70","41224","0.0-1.0-69.0","",""
"null","sound/msl/Water.wav","null","audio-keyboard-response","71","41734","0.0-1.0-70.0","",""
"null","sound/msl/ding.wav","null","audio-keyboard-response","72","42244","0.0-1.0-71.0","",""
"null","sound/msl/duck.wav","null","audio-keyboard-response","73","42754","0.0-1.0-72.0","",""
"null","sound/msl/cow.wav","null","audio-keyboard-response","74","43254","0.0-1.0-73.0","",""
"null","sound/msl/clock.wav","null","audio-keyboard-response","75","43804","0.0-1.0-74.0","",""
"null","sound/msl/boing.wav","null","audio-keyboard-response","76","44304","0.0-1.0-75.0","",""
"null","sound/msl/door.wav","null","audio-keyboard-response","77","44804","0.0-1.0-76.0","",""
"null","sound/msl/goat.wav","null","audio-keyboard-response","78","45345","0.0-1.0-77.0","",""
"null","sound/msl/duck.wav","null","audio-keyboard-response","79","45844","0.0-1.0-78.0","",""
"null","sound/msl/cow.wav","null","audio-keyboard-response","80","46354","0.0-1.0-79.0","",""
"null","sound/msl/clock.wav","null","audio-keyboard-response","81","46904","0.0-1.0-80.0","",""
"null","sound/msl/door_bell.wav","null","audio-keyboard-response","82","47405","0.0-1.0-81.0","",""
"null","sound/msl/dog.wav","null","audio-keyboard-response","83","47915","0.0-1.0-82.0","",""
"null","sound/msl/frog.wav","null","audio-keyboard-response","84","48415","0.0-1.0-83.0","",""
"null","sound/msl/cat.wav","null","audio-keyboard-response","85","48915","0.0-1.0-84.0","",""
"null","sound/msl/Water.wav","null","audio-keyboard-response","86","49425","0.0-1.0-85.0","",""
"null","sound/msl/ding.wav","null","audio-keyboard-response","87","49925","0.0-1.0-86.0","",""
"null","sound/msl/bird.wav","null","audio-keyboard-response","88","50435","0.0-1.0-87.0","",""
"null","sound/msl/organ.wav","null","audio-keyboard-response","89","50935","0.0-1.0-88.0","",""
"null","sound/msl/slide_whistle.wav","null","audio-keyboard-response","90","51434","0.0-1.0-89.0","",""
"null","sound/msl/door_bell.wav","null","audio-keyboard-response","91","51935","0.0-1.0-90.0","",""
"null","sound/msl/dog.wav","null","audio-keyboard-response","92","52445","0.0-1.0-91.0","",""
"null","sound/msl/frog.wav","null","audio-keyboard-response","93","52956","0.0-1.0-92.0","",""
"null","sound/msl/boing.wav","null","audio-keyboard-response","94","53456","0.0-1.0-93.0","",""
"null","sound/msl/door.wav","null","audio-keyboard-response","95","53956","0.0-1.0-94.0","",""
"null","sound/msl/goat.wav","null","audio-keyboard-response","96","54495","0.0-1.0-95.0","",""
"null","sound/msl/duck.wav","null","audio-keyboard-response","97","55006","0.0-1.0-96.0","",""
"null","sound/msl/cow.wav","null","audio-keyboard-response","98","55515","0.0-1.0-97.0","",""
"null","sound/msl/clock.wav","null","audio-keyboard-response","99","56066","0.0-1.0-98.0","",""
"null","sound/msl/bird.wav","null","audio-keyboard-response","100","56566","0.0-1.0-99.0","",""
"null","sound/msl/organ.wav","null","audio-keyboard-response","101","57066","0.0-1.0-100.0","",""
"null","sound/msl/slide_whistle.wav","null","audio-keyboard-response","102","57566","0.0-1.0-101.0","",""
"null","sound/msl/door_bell.wav","null","audio-keyboard-response","103","58076","0.0-1.0-102.0","",""
"null","sound/msl/dog.wav","null","audio-keyboard-response","104","58576","0.0-1.0-103.0","",""
"null","sound/msl/frog.wav","null","audio-keyboard-response","105","59086","0.0-1.0-104.0","",""
"null","sound/msl/cat.wav","null","audio-keyboard-response","106","59587","0.0-1.0-105.0","",""
"null","sound/msl/Water.wav","null","audio-keyboard-response","107","60096","0.0-1.0-106.0","",""
"null","sound/msl/ding.wav","null","audio-keyboard-response","108","60606","0.0-1.0-107.0","",""
"null","sound/msl/bird.wav","null","audio-keyboard-response","109","61117","0.0-1.0-108.0","",""
"null","sound/msl/organ.wav","null","audio-keyboard-response","110","61617","0.0-1.0-109.0","",""
"null","sound/msl/slide_whistle.wav","null","audio-keyboard-response","111","62117","0.0-1.0-110.0","",""
"null","sound/msl/boing.wav","null","audio-keyboard-response","112","62616","0.0-1.0-111.0","",""
"null","sound/msl/door.wav","null","audio-keyboard-response","113","63117","0.0-1.0-112.0","",""
"null","sound/msl/goat.wav","null","audio-keyboard-response","114","63657","0.0-1.0-113.0","",""
"null","sound/msl/door_bell.wav","null","audio-keyboard-response","115","64167","0.0-1.0-114.0","",""
"null","sound/msl/dog.wav","null","audio-keyboard-response","116","64677","0.0-1.0-115.0","",""
"null","sound/msl/frog.wav","null","audio-keyboard-response","117","65177","0.0-1.0-116.0","",""
"null","sound/msl/duck.wav","null","audio-keyboard-response","118","65687","0.0-1.0-117.0","",""
"null","sound/msl/cow.wav","null","audio-keyboard-response","119","66197","0.0-1.0-118.0","",""
"null","sound/msl/clock.wav","null","audio-keyboard-response","120","66747","0.0-1.0-119.0","",""
"null","sound/msl/cat.wav","null","audio-keyboard-response","121","67246","0.0-1.0-120.0","",""
"null","sound/msl/Water.wav","null","audio-keyboard-response","122","67757","0.0-1.0-121.0","",""
"null","sound/msl/ding.wav","null","audio-keyboard-response","123","68258","0.0-1.0-122.0","",""
"null","sound/msl/bird.wav","null","audio-keyboard-response","124","68768","0.0-1.0-123.0","",""
"null","sound/msl/organ.wav","null","audio-keyboard-response","125","69268","0.0-1.0-124.0","",""
"null","sound/msl/slide_whistle.wav","null","audio-keyboard-response","126","69767","0.0-1.0-125.0","",""
"null","sound/msl/door_bell.wav","null","audio-keyboard-response","127","70277","0.0-1.0-126.0","",""
"null","sound/msl/dog.wav","null","audio-keyboard-response","128","70778","0.0-1.0-127.0","",""
"null","sound/msl/frog.wav","null","audio-keyboard-response","129","71288","0.0-1.0-128.0","",""
"null","sound/msl/boing.wav","null","audio-keyboard-response","130","71787","0.0-1.0-129.0","",""
"null","sound/msl/door.wav","null","audio-keyboard-response","131","72288","0.0-1.0-130.0","",""
"null","sound/msl/goat.wav","null","audio-keyboard-response","132","72828","0.0-1.0-131.0","",""
"null","sound/msl/bird.wav","null","audio-keyboard-response","133","73328","0.0-1.0-132.0","",""
"null","sound/msl/organ.wav","null","audio-keyboard-response","134","73828","0.0-1.0-133.0","",""
"null","sound/msl/slide_whistle.wav","null","audio-keyboard-response","135","74328","0.0-1.0-134.0","",""
"null","sound/msl/duck.wav","null","audio-keyboard-response","136","74838","0.0-1.0-135.0","",""
"null","sound/msl/cow.wav","null","audio-keyboard-response","137","75339","0.0-1.0-136.0","",""
"null","sound/msl/clock.wav","null","audio-keyboard-response","138","75888","0.0-1.0-137.0","",""
"null","sound/msl/boing.wav","null","audio-keyboard-response","139","76389","0.0-1.0-138.0","",""
"null","sound/msl/door.wav","null","audio-keyboard-response","140","76889","0.0-1.0-139.0","",""
"null","sound/msl/goat.wav","null","audio-keyboard-response","141","77429","0.0-1.0-140.0","",""
"null","sound/msl/cat.wav","null","audio-keyboard-response","142","77929","0.0-1.0-141.0","",""
"null","sound/msl/Water.wav","null","audio-keyboard-response","143","78439","0.0-1.0-142.0","",""
"null","sound/msl/ding.wav","null","audio-keyboard-response","144","78939","0.0-1.0-143.0","",""
"null","sound/msl/door_bell.wav","null","audio-keyboard-response","145","79449","0.0-1.0-144.0","",""
"null","sound/msl/dog.wav","null","audio-keyboard-response","146","79959","0.0-1.0-145.0","",""
"null","sound/msl/frog.wav","null","audio-keyboard-response","147","80458","0.0-1.0-146.0","",""
"null","sound/msl/duck.wav","null","audio-keyboard-response","148","80969","0.0-1.0-147.0","",""
"null","sound/msl/cow.wav","null","audio-keyboard-response","149","81479","0.0-1.0-148.0","",""
"null","sound/msl/clock.wav","null","audio-keyboard-response","150","82024","0.0-1.0-149.0","",""
"null","sound/msl/cat.wav","null","audio-keyboard-response","151","82525","0.0-1.0-150.0","",""
"null","sound/msl/Water.wav","null","audio-keyboard-response","152","83034","0.0-1.0-151.0","",""
"null","sound/msl/ding.wav","null","audio-keyboard-response","153","83534","0.0-1.0-152.0","",""
"null","sound/msl/bird.wav","null","audio-keyboard-response","154","84045","0.0-1.0-153.0","",""
"null","sound/msl/organ.wav","null","audio-keyboard-response","155","84544","0.0-1.0-154.0","",""
"null","sound/msl/slide_whistle.wav","null","audio-keyboard-response","156","85044","0.0-1.0-155.0","",""
"null","sound/msl/boing.wav","null","audio-keyboard-response","157","85545","0.0-1.0-156.0","",""
"null","sound/msl/door.wav","null","audio-keyboard-response","158","86045","0.0-1.0-157.0","",""
"null","sound/msl/goat.wav","null","audio-keyboard-response","159","86585","0.0-1.0-158.0","",""
"null","sound/msl/door_bell.wav","null","audio-keyboard-response","160","87085","0.0-1.0-159.0","",""
"null","sound/msl/dog.wav","null","audio-keyboard-response","161","87595","0.0-1.0-160.0","",""
"null","sound/msl/frog.wav","null","audio-keyboard-response","162","88095","0.0-1.0-161.0","",""
"null","sound/msl/bird.wav","null","audio-keyboard-response","163","88605","0.0-1.0-162.0","",""
"null","sound/msl/organ.wav","null","audio-keyboard-response","164","89105","0.0-1.0-163.0","",""
"null","sound/msl/slide_whistle.wav","null","audio-keyboard-response","165","89606","0.0-1.0-164.0","",""
"null","sound/msl/boing.wav","null","audio-keyboard-response","166","90106","0.0-1.0-165.0","",""
"null","sound/msl/door.wav","null","audio-keyboard-response","167","90605","0.0-1.0-166.0","",""
"null","sound/msl/goat.wav","null","audio-keyboard-response","168","91145","0.0-1.0-167.0","",""
"null","sound/msl/cat.wav","null","audio-keyboard-response","169","91645","0.0-1.0-168.0","",""
"null","sound/msl/Water.wav","null","audio-keyboard-response","170","92156","0.0-1.0-169.0","",""
"null","sound/msl/ding.wav","null","audio-keyboard-response","171","92656","0.0-1.0-170.0","",""
"null","sound/msl/duck.wav","null","audio-keyboard-response","172","93165","0.0-1.0-171.0","",""
"null","sound/msl/cow.wav","null","audio-keyboard-response","173","93676","0.0-1.0-172.0","",""
"null","sound/msl/clock.wav","null","audio-keyboard-response","174","94225","0.0-1.0-173.0","",""
"null","sound/msl/door_bell.wav","null","audio-keyboard-response","175","94726","0.0-1.0-174.0","",""
"null","sound/msl/dog.wav","null","audio-keyboard-response","176","95235","0.0-1.0-175.0","",""
"null","sound/msl/frog.wav","null","audio-keyboard-response","177","95736","0.0-1.0-176.0","",""
"null","sound/msl/bird.wav","null","audio-keyboard-response","178","96246","0.0-1.0-177.0","",""
"null","sound/msl/organ.wav","null","audio-keyboard-response","179","96746","0.0-1.0-178.0","",""
"null","sound/msl/slide_whistle.wav","null","audio-keyboard-response","180","97246","0.0-1.0-179.0","",""
"null","sound/msl/duck.wav","null","audio-keyboard-response","181","97756","0.0-1.0-180.0","",""
"null","sound/msl/cow.wav","null","audio-keyboard-response","182","98256","0.0-1.0-181.0","",""
"null","sound/msl/clock.wav","null","audio-keyboard-response","183","98807","0.0-1.0-182.0","",""
"null","sound/msl/boing.wav","null","audio-keyboard-response","184","99306","0.0-1.0-183.0","",""
"null","sound/msl/door.wav","null","audio-keyboard-response","185","99807","0.0-1.0-184.0","",""
"null","sound/msl/goat.wav","null","audio-keyboard-response","186","100347","0.0-1.0-185.0","",""
"null","sound/msl/cat.wav","null","audio-keyboard-response","187","100846","0.0-1.0-186.0","",""
"null","sound/msl/Water.wav","null","audio-keyboard-response","188","101356","0.0-1.0-187.0","",""
"null","sound/msl/ding.wav","null","audio-keyboard-response","189","101857","0.0-1.0-188.0","",""
"null","sound/msl/door_bell.wav","null","audio-keyboard-response","190","102367","0.0-1.0-189.0","",""
"null","sound/msl/dog.wav","null","audio-keyboard-response","191","102877","0.0-1.0-190.0","",""
"null","sound/msl/frog.wav","null","audio-keyboard-response","192","103377","0.0-1.0-191.0","",""
"null","sound/msl/bird.wav","null","audio-keyboard-response","193","103886","0.0-1.0-192.0","",""
"null","sound/msl/organ.wav","null","audio-keyboard-response","194","104387","0.0-1.0-193.0","",""
"null","sound/msl/slide_whistle.wav","null","audio-keyboard-response","195","104887","0.0-1.0-194.0","",""
"null","sound/msl/duck.wav","null","audio-keyboard-response","196","105397","0.0-1.0-195.0","",""
"null","sound/msl/cow.wav","null","audio-keyboard-response","197","105898","0.0-1.0-196.0","",""
"null","sound/msl/clock.wav","null","audio-keyboard-response","198","106447","0.0-1.0-197.0","",""
"null","sound/msl/cat.wav","null","audio-keyboard-response","199","106948","0.0-1.0-198.0","",""
"null","sound/msl/Water.wav","null","audio-keyboard-response","200","107457","0.0-1.0-199.0","",""
"null","sound/msl/ding.wav","null","audio-keyboard-response","201","107967","0.0-1.0-200.0","",""
"null","sound/msl/boing.wav","null","audio-keyboard-response","202","108470","0.0-1.0-201.0","",""
"null","sound/msl/door.wav","null","audio-keyboard-response","203","108968","0.0-1.0-202.0","",""
"null","sound/msl/goat.wav","null","audio-keyboard-response","204","109508","0.0-1.0-203.0","",""
"null","sound/msl/door_bell.wav","null","audio-keyboard-response","205","110008","0.0-1.0-204.0","",""
"null","sound/msl/dog.wav","null","audio-keyboard-response","206","110518","0.0-1.0-205.0","",""
"null","sound/msl/frog.wav","null","audio-keyboard-response","207","111018","0.0-1.0-206.0","",""
"null","sound/msl/bird.wav","null","audio-keyboard-response","208","111528","0.0-1.0-207.0","",""
"null","sound/msl/organ.wav","null","audio-keyboard-response","209","112028","0.0-1.0-208.0","",""
"null","sound/msl/slide_whistle.wav","null","audio-keyboard-response","210","112528","0.0-1.0-209.0","",""
"null","sound/msl/cat.wav","null","audio-keyboard-response","211","113028","0.0-1.0-210.0","",""
"null","sound/msl/Water.wav","null","audio-keyboard-response","212","113539","0.0-1.0-211.0","",""
"null","sound/msl/ding.wav","null","audio-keyboard-response","213","114049","0.0-1.0-212.0","",""
"null","sound/msl/door_bell.wav","null","audio-keyboard-response","214","114558","0.0-1.0-213.0","",""
"null","sound/msl/dog.wav","null","audio-keyboard-response","215","115058","0.0-1.0-214.0","",""
"null","sound/msl/frog.wav","null","audio-keyboard-response","216","115568","0.0-1.0-215.0","",""
"null","sound/msl/duck.wav","null","audio-keyboard-response","217","116078","0.0-1.0-216.0","",""
"null","sound/msl/cow.wav","null","audio-keyboard-response","218","116579","0.0-1.0-217.0","",""
"null","sound/msl/clock.wav","null","audio-keyboard-response","219","117128","0.0-1.0-218.0","",""
"null","sound/msl/boing.wav","null","audio-keyboard-response","220","117629","0.0-1.0-219.0","",""
"null","sound/msl/door.wav","null","audio-keyboard-response","221","118128","0.0-1.0-220.0","",""
"null","sound/msl/goat.wav","null","audio-keyboard-response","222","118669","0.0-1.0-221.0","",""
"null","sound/msl/bird.wav","null","audio-keyboard-response","223","119169","0.0-1.0-222.0","",""
"null","sound/msl/organ.wav","null","audio-keyboard-response","224","119669","0.0-1.0-223.0","",""
"null","sound/msl/slide_whistle.wav","null","audio-keyboard-response","225","120169","0.0-1.0-224.0","",""
"null","sound/msl/duck.wav","null","audio-keyboard-response","226","120679","0.0-1.0-225.0","",""
"null","sound/msl/cow.wav","null","audio-keyboard-response","227","121179","0.0-1.0-226.0","",""
"null","sound/msl/clock.wav","null","audio-keyboard-response","228","121730","0.0-1.0-227.0","",""
"null","sound/msl/door_bell.wav","null","audio-keyboard-response","229","122240","0.0-1.0-228.0","",""
"null","sound/msl/dog.wav","null","audio-keyboard-response","230","122740","0.0-1.0-229.0","",""
"null","sound/msl/frog.wav","null","audio-keyboard-response","231","123245","0.0-1.0-230.0","",""
"null","sound/msl/duck.wav","null","audio-keyboard-response","232","123754","0.0-1.0-231.0","",""
"null","sound/msl/cow.wav","null","audio-keyboard-response","233","124255","0.0-1.0-232.0","",""
"null","sound/msl/clock.wav","null","audio-keyboard-response","234","124805","0.0-1.0-233.0","",""
"null","sound/msl/bird.wav","null","audio-keyboard-response","235","125315","0.0-1.0-234.0","",""
"null","sound/msl/organ.wav","null","audio-keyboard-response","236","125815","0.0-1.0-235.0","",""
"null","sound/msl/slide_whistle.wav","null","audio-keyboard-response","237","126315","0.0-1.0-236.0","",""
"null","sound/msl/boing.wav","null","audio-keyboard-response","238","126815","0.0-1.0-237.0","",""
"null","sound/msl/door.wav","null","audio-keyboard-response","239","127315","0.0-1.0-238.0","",""
"null","sound/msl/goat.wav","null","audio-keyboard-response","240","127855","0.0-1.0-239.0","",""
"null","sound/msl/cat.wav","null","audio-keyboard-response","241","128355","0.0-1.0-240.0","",""
"null","sound/msl/Water.wav","null","audio-keyboard-response","242","128866","0.0-1.0-241.0","",""
"null","sound/msl/ding.wav","null","audio-keyboard-response","243","129366","0.0-1.0-242.0","",""
"null","sound/msl/door_bell.wav","null","audio-keyboard-response","244","129875","0.0-1.0-243.0","",""
"null","sound/msl/dog.wav","null","audio-keyboard-response","245","130376","0.0-1.0-244.0","",""
"null","sound/msl/frog.wav","null","audio-keyboard-response","246","130886","0.0-1.0-245.0","",""
"null","sound/msl/bird.wav","null","audio-keyboard-response","247","131396","0.0-1.0-246.0","",""
"null","sound/msl/organ.wav","null","audio-keyboard-response","248","131896","0.0-1.0-247.0","",""
"null","sound/msl/slide_whistle.wav","null","audio-keyboard-response","249","132396","0.0-1.0-248.0","",""
"null","sound/msl/boing.wav","null","audio-keyboard-response","250","132896","0.0-1.0-249.0","",""
"null","sound/msl/door.wav","null","audio-keyboard-response","251","133396","0.0-1.0-250.0","",""
"null","sound/msl/goat.wav","null","audio-keyboard-response","252","133936","0.0-1.0-251.0","",""
"null","sound/msl/cat.wav","null","audio-keyboard-response","253","134436","0.0-1.0-252.0","",""
"null","sound/msl/Water.wav","null","audio-keyboard-response","254","134946","0.0-1.0-253.0","",""
"null","sound/msl/ding.wav","null","audio-keyboard-response","255","135446","0.0-1.0-254.0","",""
"null","sound/msl/duck.wav","null","audio-keyboard-response","256","135956","0.0-1.0-255.0","",""
"null","sound/msl/cow.wav","null","audio-keyboard-response","257","136456","0.0-1.0-256.0","",""
"null","sound/msl/clock.wav","null","audio-keyboard-response","258","137006","0.0-1.0-257.0","",""
"null","sound/msl/door_bell.wav","null","audio-keyboard-response","259","137517","0.0-1.0-258.0","",""
"null","sound/msl/dog.wav","null","audio-keyboard-response","260","138016","0.0-1.0-259.0","",""
"null","sound/msl/frog.wav","null","audio-keyboard-response","261","138527","0.0-1.0-260.0","",""
"null","sound/msl/cat.wav","null","audio-keyboard-response","262","139027","0.0-1.0-261.0","",""
"null","sound/msl/Water.wav","null","audio-keyboard-response","263","139537","0.0-1.0-262.0","",""
"null","sound/msl/ding.wav","null","audio-keyboard-response","264","140047","0.0-1.0-263.0","",""
"null","sound/msl/boing.wav","null","audio-keyboard-response","265","140547","0.0-1.0-264.0","",""
"null","sound/msl/door.wav","null","audio-keyboard-response","266","141047","0.0-1.0-265.0","",""
"null","sound/msl/goat.wav","null","audio-keyboard-response","267","141587","0.0-1.0-266.0","",""
"null","sound/msl/duck.wav","null","audio-keyboard-response","268","142087","0.0-1.0-267.0","",""
"null","sound/msl/cow.wav","null","audio-keyboard-response","269","142597","0.0-1.0-268.0","",""
"null","sound/msl/clock.wav","null","audio-keyboard-response","270","143147","0.0-1.0-269.0","",""
"null","sound/msl/bird.wav","null","audio-keyboard-response","271","143647","0.0-1.0-270.0","",""
"null","sound/msl/organ.wav","null","audio-keyboard-response","272","144148","0.0-1.0-271.0","",""
"null","sound/msl/slide_whistle.wav","null","audio-keyboard-response","273","144648","0.0-1.0-272.0","",""
"null","sound/msl/door_bell.wav","null","audio-keyboard-response","274","145158","0.0-1.0-273.0","",""
"null","sound/msl/dog.wav","null","audio-keyboard-response","275","145657","0.0-1.0-274.0","",""
"null","sound/msl/frog.wav","null","audio-keyboard-response","276","146168","0.0-1.0-275.0","",""
"null","sound/msl/cat.wav","null","audio-keyboard-response","277","146668","0.0-1.0-276.0","",""
"null","sound/msl/Water.wav","null","audio-keyboard-response","278","147178","0.0-1.0-277.0","",""
"null","sound/msl/ding.wav","null","audio-keyboard-response","279","147687","0.0-1.0-278.0","",""
"null","sound/msl/boing.wav","null","audio-keyboard-response","280","148188","0.0-1.0-279.0","",""
"null","sound/msl/door.wav","null","audio-keyboard-response","281","148688","0.0-1.0-280.0","",""
"null","sound/msl/goat.wav","null","audio-keyboard-response","282","149228","0.0-1.0-281.0","",""
"null","sound/msl/bird.wav","null","audio-keyboard-response","283","149728","0.0-1.0-282.0","",""
"null","sound/msl/organ.wav","null","audio-keyboard-response","284","150228","0.0-1.0-283.0","",""
"null","sound/msl/slide_whistle.wav","null","audio-keyboard-response","285","150728","0.0-1.0-284.0","",""
"null","sound/msl/duck.wav","null","audio-keyboard-response","286","151238","0.0-1.0-285.0","",""
"null","sound/msl/cow.wav","null","audio-keyboard-response","287","151738","0.0-1.0-286.0","",""
"null","sound/msl/clock.wav","null","audio-keyboard-response","288","152288","0.0-1.0-287.0","",""
"null","sound/msl/door_bell.wav","null","audio-keyboard-response","289","152798","0.0-1.0-288.0","",""
"null","sound/msl/dog.wav","null","audio-keyboard-response","290","153299","0.0-1.0-289.0","",""
"null","sound/msl/frog.wav","null","audio-keyboard-response","291","153809","0.0-1.0-290.0","",""
"null","sound/msl/boing.wav","null","audio-keyboard-response","292","154309","0.0-1.0-291.0","",""
"null","sound/msl/door.wav","null","audio-keyboard-response","293","154809","0.0-1.0-292.0","",""
"null","sound/msl/goat.wav","null","audio-keyboard-response","294","155349","0.0-1.0-293.0","",""
"null","sound/msl/cat.wav","null","audio-keyboard-response","295","155849","0.0-1.0-294.0","",""
"null","sound/msl/Water.wav","null","audio-keyboard-response","296","156359","0.0-1.0-295.0","",""
"null","sound/msl/ding.wav","null","audio-keyboard-response","297","156859","0.0-1.0-296.0","",""
"null","sound/msl/door_bell.wav","null","audio-keyboard-response","298","157369","0.0-1.0-297.0","",""
"null","sound/msl/dog.wav","null","audio-keyboard-response","299","157879","0.0-1.0-298.0","",""
"null","sound/msl/frog.wav","null","audio-keyboard-response","300","158380","0.0-1.0-299.0","",""
"null","sound/msl/bird.wav","null","audio-keyboard-response","301","158890","0.0-1.0-300.0","",""
"null","sound/msl/organ.wav","null","audio-keyboard-response","302","159389","0.0-1.0-301.0","",""
"null","sound/msl/slide_whistle.wav","null","audio-keyboard-response","303","159890","0.0-1.0-302.0","",""
"null","sound/msl/boing.wav","null","audio-keyboard-response","304","160390","0.0-1.0-303.0","",""
"null","sound/msl/door.wav","null","audio-keyboard-response","305","160889","0.0-1.0-304.0","",""
"null","sound/msl/goat.wav","null","audio-keyboard-response","306","161430","0.0-1.0-305.0","",""
"null","sound/msl/duck.wav","null","audio-keyboard-response","307","161930","0.0-1.0-306.0","",""
"null","sound/msl/cow.wav","null","audio-keyboard-response","308","162440","0.0-1.0-307.0","",""
"null","sound/msl/clock.wav","null","audio-keyboard-response","309","162990","0.0-1.0-308.0","",""
"null","sound/msl/cat.wav","null","audio-keyboard-response","310","163486","0.0-1.0-309.0","",""
"null","sound/msl/Water.wav","null","audio-keyboard-response","311","163995","0.0-1.0-310.0","",""
"null","sound/msl/ding.wav","null","audio-keyboard-response","312","164495","0.0-1.0-311.0","",""
"null","sound/msl/door_bell.wav","null","audio-keyboard-response","313","165005","0.0-1.0-312.0","",""
"null","sound/msl/dog.wav","null","audio-keyboard-response","314","165515","0.0-1.0-313.0","",""
"null","sound/msl/frog.wav","null","audio-keyboard-response","315","166015","0.0-1.0-314.0","",""
"null","sound/msl/bird.wav","null","audio-keyboard-response","316","166525","0.0-1.0-315.0","",""
"null","sound/msl/organ.wav","null","audio-keyboard-response","317","167026","0.0-1.0-316.0","",""
"null","sound/msl/slide_whistle.wav","null","audio-keyboard-response","318","167526","0.0-1.0-317.0","",""
"null","sound/msl/boing.wav","null","audio-keyboard-response","319","168026","0.0-1.0-318.0","",""
"null","sound/msl/door.wav","null","audio-keyboard-response","320","168526","0.0-1.0-319.0","",""
"null","sound/msl/goat.wav","null","audio-keyboard-response","321","169066","0.0-1.0-320.0","",""
"null","sound/msl/cat.wav","null","audio-keyboard-response","322","169565","0.0-1.0-321.0","",""
"null","sound/msl/Water.wav","null","audio-keyboard-response","323","170076","0.0-1.0-322.0","",""
"null","sound/msl/ding.wav","null","audio-keyboard-response","324","170576","0.0-1.0-323.0","",""
"null","sound/msl/bird.wav","null","audio-keyboard-response","325","171086","0.0-1.0-324.0","",""
"null","sound/msl/organ.wav","null","audio-keyboard-response","326","171586","0.0-1.0-325.0","",""
"null","sound/msl/slide_whistle.wav","null","audio-keyboard-response","327","172086","0.0-1.0-326.0","",""
"null","sound/msl/duck.wav","null","audio-keyboard-response","328","172596","0.0-1.0-327.0","",""
"null","sound/msl/cow.wav","null","audio-keyboard-response","329","173096","0.0-1.0-328.0","",""
"null","sound/msl/clock.wav","null","audio-keyboard-response","330","173646","0.0-1.0-329.0","",""
"null","sound/msl/door_bell.wav","null","audio-keyboard-response","331","174156","0.0-1.0-330.0","",""
"null","sound/msl/dog.wav","null","audio-keyboard-response","332","174656","0.0-1.0-331.0","",""
"null","sound/msl/frog.wav","null","audio-keyboard-response","333","175166","0.0-1.0-332.0","",""
"null","sound/msl/boing.wav","null","audio-keyboard-response","334","175666","0.0-1.0-333.0","",""
"null","sound/msl/door.wav","null","audio-keyboard-response","335","176167","0.0-1.0-334.0","",""
"null","sound/msl/goat.wav","null","audio-keyboard-response","336","176707","0.0-1.0-335.0","",""
"null","sound/msl/duck.wav","null","audio-keyboard-response","337","177207","0.0-1.0-336.0","",""
"null","sound/msl/cow.wav","null","audio-keyboard-response","338","177717","0.0-1.0-337.0","",""
"null","sound/msl/clock.wav","null","audio-keyboard-response","339","178267","0.0-1.0-338.0","",""
"null","sound/msl/cat.wav","null","audio-keyboard-response","340","178767","0.0-1.0-339.0","",""
"null","sound/msl/Water.wav","null","audio-keyboard-response","341","179277","0.0-1.0-340.0","",""
"null","sound/msl/ding.wav","null","audio-keyboard-response","342","179777","0.0-1.0-341.0","",""
"null","sound/msl/boing.wav","null","audio-keyboard-response","343","180277","0.0-1.0-342.0","",""
"null","sound/msl/door.wav","null","audio-keyboard-response","344","180777","0.0-1.0-343.0","",""
"null","sound/msl/goat.wav","null","audio-keyboard-response","345","181317","0.0-1.0-344.0","",""
"null","sound/msl/cat.wav","null","audio-keyboard-response","346","181817","0.0-1.0-345.0","",""
"null","sound/msl/Water.wav","null","audio-keyboard-response","347","182328","0.0-1.0-346.0","",""
"null","sound/msl/ding.wav","null","audio-keyboard-response","348","182837","0.0-1.0-347.0","",""
"null","sound/msl/duck.wav","null","audio-keyboard-response","349","183338","0.0-1.0-348.0","",""
"null","sound/msl/cow.wav","null","audio-keyboard-response","350","183847","0.0-1.0-349.0","",""
"null","sound/msl/clock.wav","null","audio-keyboard-response","351","184398","0.0-1.0-350.0","",""
"null","sound/msl/door_bell.wav","null","audio-keyboard-response","352","184898","0.0-1.0-351.0","",""
"null","sound/msl/dog.wav","null","audio-keyboard-response","353","185408","0.0-1.0-352.0","",""
"null","sound/msl/frog.wav","null","audio-keyboard-response","354","185918","0.0-1.0-353.0","",""
"null","sound/msl/boing.wav","null","audio-keyboard-response","355","186419","0.0-1.0-354.0","",""
"null","sound/msl/door.wav","null","audio-keyboard-response","356","186918","0.0-1.0-355.0","",""
"null","sound/msl/goat.wav","null","audio-keyboard-response","357","187458","0.0-1.0-356.0","",""
"null","sound/msl/cat.wav","null","audio-keyboard-response","358","187958","0.0-1.0-357.0","",""
"null","sound/msl/Water.wav","null","audio-keyboard-response","359","188469","0.0-1.0-358.0","",""
"null","sound/msl/ding.wav","null","audio-keyboard-response","360","188968","0.0-1.0-359.0","",""
"5475","Instructions2-eng.png","49","image-keyboard-response","361","194445","0.0-2.0","",""
"null","sound/msl/cat.wav","null","audio-keyboard-response","362","194939","0.0-3.0-0.0","",""
"null","sound/msl/organ.wav","null","audio-keyboard-response","363","195439","0.0-3.0-1.0","",""
"null","sound/msl/clock.wav","null","audio-keyboard-response","364","195989","0.0-3.0-2.0","",""
"null","sound/asl/silence.wav","null","audio-keyboard-response","365","196492","0.0-3.0-3.0","",""
"null","sound/msl/boing.wav","null","audio-keyboard-response","366","196989","0.0-3.0-4.0","",""
"null","sound/msl/door.wav","null","audio-keyboard-response","367","197490","0.0-3.0-5.0","",""
"null","sound/msl/goat.wav","null","audio-keyboard-response","368","198029","0.0-3.0-6.0","",""
"352","sound/asl/silence.wav","50","audio-keyboard-response","369","198379","0.0-3.0-7.0","true",""
"null","sound/msl/bird.wav","null","audio-keyboard-response","370","198889","0.0-4.0-0.0","",""
"null","sound/msl/organ.wav","null","audio-keyboard-response","371","199390","0.0-4.0-1.0","",""
"null","sound/msl/slide_whistle.wav","null","audio-keyboard-response","372","199890","0.0-4.0-2.0","",""
"null","sound/asl/silence.wav","null","audio-keyboard-response","373","200393","0.0-4.0-3.0","",""
"null","sound/msl/duck.wav","null","audio-keyboard-response","374","200890","0.0-4.0-4.0","",""
"null","sound/msl/door.wav","null","audio-keyboard-response","375","201390","0.0-4.0-5.0","",""
"null","sound/msl/frog.wav","null","audio-keyboard-response","376","201890","0.0-4.0-6.0","",""
"280","sound/asl/silence.wav","49","audio-keyboard-response","377","202180","0.0-4.0-7.0","true",""
"null","sound/msl/boing.wav","null","audio-keyboard-response","378","202681","0.0-5.0-0.0","",""
"null","sound/msl/dog.wav","null","audio-keyboard-response","379","203180","0.0-5.0-1.0","",""
"null","sound/msl/ding.wav","null","audio-keyboard-response","380","203691","0.0-5.0-2.0","",""
"null","sound/asl/silence.wav","null","audio-keyboard-response","381","204191","0.0-5.0-3.0","",""
"null","sound/msl/bird.wav","null","audio-keyboard-response","382","204685","0.0-5.0-4.0","",""
"null","sound/msl/organ.wav","null","audio-keyboard-response","383","205186","0.0-5.0-5.0","",""
"null","sound/msl/slide_whistle.wav","null","audio-keyboard-response","384","205686","0.0-5.0-6.0","",""
"739","sound/asl/silence.wav","49","audio-keyboard-response","385","206429","0.0-5.0-7.0","false",""
"null","sound/msl/bird.wav","null","audio-keyboard-response","386","206926","0.0-6.0-0.0","",""
"null","sound/msl/cow.wav","null","audio-keyboard-response","387","207436","0.0-6.0-1.0","",""
"null","sound/msl/goat.wav","null","audio-keyboard-response","388","207976","0.0-6.0-2.0","",""
"null","sound/asl/silence.wav","null","audio-keyboard-response","389","208478","0.0-6.0-3.0","",""
"null","sound/msl/cat.wav","null","audio-keyboard-response","390","208976","0.0-6.0-4.0","",""
"null","sound/msl/Water.wav","null","audio-keyboard-response","391","209487","0.0-6.0-5.0","",""
"null","sound/msl/ding.wav","null","audio-keyboard-response","392","209996","0.0-6.0-6.0","",""
"269","sound/asl/silence.wav","49","audio-keyboard-response","393","210268","0.0-6.0-7.0","false",""
"null","sound/msl/cat.wav","null","audio-keyboard-response","394","210767","0.0-7.0-0.0","",""
"null","sound/msl/organ.wav","null","audio-keyboard-response","395","211267","0.0-7.0-1.0","",""
"null","sound/msl/clock.wav","null","audio-keyboard-response","396","211817","0.0-7.0-2.0","",""
"null","sound/asl/silence.wav","null","audio-keyboard-response","397","212318","0.0-7.0-3.0","",""
"null","sound/msl/cat.wav","null","audio-keyboard-response","398","212816","0.0-7.0-4.0","",""
"null","sound/msl/Water.wav","null","audio-keyboard-response","399","213327","0.0-7.0-5.0","",""
"null","sound/msl/ding.wav","null","audio-keyboard-response","400","213838","0.0-7.0-6.0","",""
"349","sound/asl/silence.wav","49","audio-keyboard-response","401","214188","0.0-7.0-7.0","false",""
"null","sound/msl/duck.wav","null","audio-keyboard-response","402","214687","0.0-8.0-0.0","",""
"null","sound/msl/door.wav","null","audio-keyboard-response","403","215187","0.0-8.0-1.0","",""
"null","sound/msl/frog.wav","null","audio-keyboard-response","404","215687","0.0-8.0-2.0","",""
"null","sound/asl/silence.wav","null","audio-keyboard-response","405","216188","0.0-8.0-3.0","",""
"null","sound/msl/door_bell.wav","null","audio-keyboard-response","406","216687","0.0-8.0-4.0","",""
"null","sound/msl/dog.wav","null","audio-keyboard-response","407","217198","0.0-8.0-5.0","",""
"null","sound/msl/frog.wav","null","audio-keyboard-response","408","217697","0.0-8.0-6.0","",""
"328","sound/asl/silence.wav","49","audio-keyboard-response","409","218036","0.0-8.0-7.0","false",""
"null","sound/msl/bird.wav","null","audio-keyboard-response","410","218538","0.0-9.0-0.0","",""
"null","sound/msl/cow.wav","null","audio-keyboard-response","411","219048","0.0-9.0-1.0","",""
"null","sound/msl/goat.wav","null","audio-keyboard-response","412","219587","0.0-9.0-2.0","",""
"null","sound/asl/silence.wav","null","audio-keyboard-response","413","220089","0.0-9.0-3.0","",""
"null","sound/msl/boing.wav","null","audio-keyboard-response","414","220587","0.0-9.0-4.0","",""
"null","sound/msl/door.wav","null","audio-keyboard-response","415","221088","0.0-9.0-5.0","",""
"null","sound/msl/goat.wav","null","audio-keyboard-response","416","221627","0.0-9.0-6.0","",""
"320","sound/asl/silence.wav","49","audio-keyboard-response","417","221948","0.0-9.0-7.0","false",""
"null","sound/msl/boing.wav","null","audio-keyboard-response","418","222448","0.0-10.0-0.0","",""
"null","sound/msl/door.wav","null","audio-keyboard-response","419","222948","0.0-10.0-1.0","",""
"null","sound/msl/goat.wav","null","audio-keyboard-response","420","223488","0.0-10.0-2.0","",""
"null","sound/asl/silence.wav","null","audio-keyboard-response","421","223989","0.0-10.0-3.0","",""
"null","sound/msl/boing.wav","null","audio-keyboard-response","422","224488","0.0-10.0-4.0","",""
"null","sound/msl/dog.wav","null","audio-keyboard-response","423","224999","0.0-10.0-5.0","",""
"null","sound/msl/ding.wav","null","audio-keyboard-response","424","225499","0.0-10.0-6.0","",""
"269","sound/asl/silence.wav","50","audio-keyboard-response","425","225772","0.0-10.0-7.0","false",""
"null","sound/msl/door_bell.wav","null","audio-keyboard-response","426","226278","0.0-11.0-0.0","",""
"null","sound/msl/dog.wav","null","audio-keyboard-response","427","226778","0.0-11.0-1.0","",""
"null","sound/msl/frog.wav","null","audio-keyboard-response","428","227288","0.0-11.0-2.0","",""
"null","sound/asl/silence.wav","null","audio-keyboard-response","429","227791","0.0-11.0-3.0","",""
"null","sound/msl/boing.wav","null","audio-keyboard-response","430","228289","0.0-11.0-4.0","",""
"null","sound/msl/dog.wav","null","audio-keyboard-response","431","228799","0.0-11.0-5.0","",""
"null","sound/msl/ding.wav","null","audio-keyboard-response","432","229299","0.0-11.0-6.0","",""
"488","sound/asl/silence.wav","49","audio-keyboard-response","433","229796","0.0-11.0-7.0","true",""
"null","sound/msl/door_bell.wav","null","audio-keyboard-response","434","230289","0.0-12.0-0.0","",""
"null","sound/msl/dog.wav","null","audio-keyboard-response","435","230799","0.0-12.0-1.0","",""
"null","sound/msl/frog.wav","null","audio-keyboard-response","436","231300","0.0-12.0-2.0","",""
"null","sound/asl/silence.wav","null","audio-keyboard-response","437","231801","0.0-12.0-3.0","",""
"null","sound/msl/door_bell.wav","null","audio-keyboard-response","438","232300","0.0-12.0-4.0","",""
"null","sound/msl/Water.wav","null","audio-keyboard-response","439","232809","0.0-12.0-5.0","",""
"null","sound/msl/slide_whistle.wav","null","audio-keyboard-response","440","233310","0.0-12.0-6.0","",""
"371","sound/asl/silence.wav","50","audio-keyboard-response","441","233684","0.0-12.0-7.0","false",""
"null","sound/msl/cat.wav","null","audio-keyboard-response","442","234180","0.0-13.0-0.0","",""
"null","sound/msl/organ.wav","null","audio-keyboard-response","443","234679","0.0-13.0-1.0","",""
"null","sound/msl/clock.wav","null","audio-keyboard-response","444","235230","0.0-13.0-2.0","",""
"null","sound/asl/silence.wav","null","audio-keyboard-response","445","235730","0.0-13.0-3.0","",""
"null","sound/msl/door_bell.wav","null","audio-keyboard-response","446","236239","0.0-13.0-4.0","",""
"null","sound/msl/dog.wav","null","audio-keyboard-response","447","236739","0.0-13.0-5.0","",""
"null","sound/msl/frog.wav","null","audio-keyboard-response","448","237249","0.0-13.0-6.0","",""
"280","sound/asl/silence.wav","49","audio-keyboard-response","449","237539","0.0-13.0-7.0","false",""
"null","sound/msl/door_bell.wav","null","audio-keyboard-response","450","238050","0.0-14.0-0.0","",""
"null","sound/msl/dog.wav","null","audio-keyboard-response","451","238560","0.0-14.0-1.0","",""
"null","sound/msl/frog.wav","null","audio-keyboard-response","452","239060","0.0-14.0-2.0","",""
"null","sound/asl/silence.wav","null","audio-keyboard-response","453","239562","0.0-14.0-3.0","",""
"null","sound/msl/bird.wav","null","audio-keyboard-response","454","240061","0.0-14.0-4.0","",""
"null","sound/msl/cow.wav","null","audio-keyboard-response","455","240570","0.0-14.0-5.0","",""
"null","sound/msl/goat.wav","null","audio-keyboard-response","456","241110","0.0-14.0-6.0","",""
"381","sound/asl/silence.wav","50","audio-keyboard-response","457","241492","0.0-14.0-7.0","false",""
"null","sound/msl/cat.wav","null","audio-keyboard-response","458","241990","0.0-15.0-0.0","",""
"null","sound/msl/Water.wav","null","audio-keyboard-response","459","242501","0.0-15.0-1.0","",""
"null","sound/msl/ding.wav","null","audio-keyboard-response","460","243010","0.0-15.0-2.0","",""
"null","sound/asl/silence.wav","null","audio-keyboard-response","461","243512","0.0-15.0-3.0","",""
"null","sound/msl/boing.wav","null","audio-keyboard-response","462","244010","0.0-15.0-4.0","",""
"null","sound/msl/dog.wav","null","audio-keyboard-response","463","244521","0.0-15.0-5.0","",""
"null","sound/msl/ding.wav","null","audio-keyboard-response","464","245020","0.0-15.0-6.0","",""
"360","sound/asl/silence.wav","49","audio-keyboard-response","465","245380","0.0-15.0-7.0","true",""
"null","sound/msl/bird.wav","null","audio-keyboard-response","466","245886","0.0-16.0-0.0","",""
"null","sound/msl/cow.wav","null","audio-keyboard-response","467","246396","0.0-16.0-1.0","",""
"null","sound/msl/goat.wav","null","audio-keyboard-response","468","246936","0.0-16.0-2.0","",""
"null","sound/asl/silence.wav","null","audio-keyboard-response","469","247438","0.0-16.0-3.0","",""
"null","sound/msl/duck.wav","null","audio-keyboard-response","470","247937","0.0-16.0-4.0","",""
"null","sound/msl/cow.wav","null","audio-keyboard-response","471","248446","0.0-16.0-5.0","",""
"null","sound/msl/clock.wav","null","audio-keyboard-response","472","248996","0.0-16.0-6.0","",""
"429","sound/asl/silence.wav","49","audio-keyboard-response","473","249436","0.0-16.0-7.0","false",""
"null","sound/msl/bird.wav","null","audio-keyboard-response","474","249936","0.0-17.0-0.0","",""
"null","sound/msl/organ.wav","null","audio-keyboard-response","475","250436","0.0-17.0-1.0","",""
"null","sound/msl/slide_whistle.wav","null","audio-keyboard-response","476","250936","0.0-17.0-2.0","",""
"null","sound/asl/silence.wav","null","audio-keyboard-response","477","251438","0.0-17.0-3.0","",""
"null","sound/msl/bird.wav","null","audio-keyboard-response","478","251937","0.0-17.0-4.0","",""
"null","sound/msl/cow.wav","null","audio-keyboard-response","479","252447","0.0-17.0-5.0","",""
"null","sound/msl/goat.wav","null","audio-keyboard-response","480","252987","0.0-17.0-6.0","",""
"272","sound/asl/silence.wav","49","audio-keyboard-response","481","253260","0.0-17.0-7.0","true",""
"null","sound/msl/cat.wav","null","audio-keyboard-response","482","253757","0.0-18.0-0.0","",""
"null","sound/msl/Water.wav","null","audio-keyboard-response","483","254267","0.0-18.0-1.0","",""
"null","sound/msl/ding.wav","null","audio-keyboard-response","484","254767","0.0-18.0-2.0","",""
"null","sound/asl/silence.wav","null","audio-keyboard-response","485","255268","0.0-18.0-3.0","",""
"null","sound/msl/door_bell.wav","null","audio-keyboard-response","486","255767","0.0-18.0-4.0","",""
"null","sound/msl/Water.wav","null","audio-keyboard-response","487","256278","0.0-18.0-5.0","",""
"null","sound/msl/slide_whistle.wav","null","audio-keyboard-response","488","256777","0.0-18.0-6.0","",""
"328","sound/asl/silence.wav","49","audio-keyboard-response","489","257116","0.0-18.0-7.0","true",""
"null","sound/msl/duck.wav","null","audio-keyboard-response","490","257607","0.0-19.0-0.0","",""
"null","sound/msl/door.wav","null","audio-keyboard-response","491","258107","0.0-19.0-1.0","",""
"null","sound/msl/frog.wav","null","audio-keyboard-response","492","258608","0.0-19.0-2.0","",""
"null","sound/asl/silence.wav","null","audio-keyboard-response","493","259109","0.0-19.0-3.0","",""
"null","sound/msl/duck.wav","null","audio-keyboard-response","494","259608","0.0-19.0-4.0","",""
"null","sound/msl/cow.wav","null","audio-keyboard-response","495","260118","0.0-19.0-5.0","",""
"null","sound/msl/clock.wav","null","audio-keyboard-response","496","260668","0.0-19.0-6.0","",""
"272","sound/asl/silence.wav","50","audio-keyboard-response","497","260940","0.0-19.0-7.0","true",""
"null","sound/msl/bird.wav","null","audio-keyboard-response","498","261448","0.0-20.0-0.0","",""
"null","sound/msl/organ.wav","null","audio-keyboard-response","499","261948","0.0-20.0-1.0","",""
"null","sound/msl/slide_whistle.wav","null","audio-keyboard-response","500","262448","0.0-20.0-2.0","",""
"null","sound/asl/silence.wav","null","audio-keyboard-response","501","262950","0.0-20.0-3.0","",""
"null","sound/msl/cat.wav","null","audio-keyboard-response","502","263449","0.0-20.0-4.0","",""
"null","sound/msl/organ.wav","null","audio-keyboard-response","503","263948","0.0-20.0-5.0","",""
"null","sound/msl/clock.wav","null","audio-keyboard-response","504","264499","0.0-20.0-6.0","",""
"219","sound/asl/silence.wav","49","audio-keyboard-response","505","264724","0.0-20.0-7.0","true",""
"null","sound/msl/door_bell.wav","null","audio-keyboard-response","506","265219","0.0-21.0-0.0","",""
"null","sound/msl/Water.wav","null","audio-keyboard-response","507","265729","0.0-21.0-1.0","",""
"null","sound/msl/slide_whistle.wav","null","audio-keyboard-response","508","266228","0.0-21.0-2.0","",""
"null","sound/asl/silence.wav","null","audio-keyboard-response","509","266730","0.0-21.0-3.0","",""
"null","sound/msl/bird.wav","null","audio-keyboard-response","510","267239","0.0-21.0-4.0","",""
"null","sound/msl/organ.wav","null","audio-keyboard-response","511","267739","0.0-21.0-5.0","",""
"null","sound/msl/slide_whistle.wav","null","audio-keyboard-response","512","268239","0.0-21.0-6.0","",""
"371","sound/asl/silence.wav","50","audio-keyboard-response","513","268612","0.0-21.0-7.0","true",""
"null","sound/msl/duck.wav","null","audio-keyboard-response","514","269119","0.0-22.0-0.0","",""
"null","sound/msl/cow.wav","null","audio-keyboard-response","515","269619","0.0-22.0-1.0","",""
"null","sound/msl/clock.wav","null","audio-keyboard-response","516","270169","0.0-22.0-2.0","",""
"null","sound/asl/silence.wav","null","audio-keyboard-response","517","270670","0.0-22.0-3.0","",""
"null","sound/msl/cat.wav","null","audio-keyboard-response","518","271170","0.0-22.0-4.0","",""
"null","sound/msl/organ.wav","null","audio-keyboard-response","519","271669","0.0-22.0-5.0","",""
"null","sound/msl/clock.wav","null","audio-keyboard-response","520","272219","0.0-22.0-6.0","",""
"259","sound/asl/silence.wav","50","audio-keyboard-response","521","272484","0.0-22.0-7.0","false",""
"null","sound/msl/duck.wav","null","audio-keyboard-response","522","272980","0.0-23.0-0.0","",""
"null","sound/msl/cow.wav","null","audio-keyboard-response","523","273490","0.0-23.0-1.0","",""
"null","sound/msl/clock.wav","null","audio-keyboard-response","524","274040","0.0-23.0-2.0","",""
"null","sound/asl/silence.wav","null","audio-keyboard-response","525","274541","0.0-23.0-3.0","",""
"null","sound/msl/door_bell.wav","null","audio-keyboard-response","526","275050","0.0-23.0-4.0","",""
"null","sound/msl/Water.wav","null","audio-keyboard-response","527","275560","0.0-23.0-5.0","",""
"null","sound/msl/slide_whistle.wav","null","audio-keyboard-response","528","276060","0.0-23.0-6.0","",""
"539","sound/asl/silence.wav","50","audio-keyboard-response","529","276604","0.0-23.0-7.0","false",""
"null","sound/msl/duck.wav","null","audio-keyboard-response","530","277100","0.0-24.0-0.0","",""
"null","sound/msl/door.wav","null","audio-keyboard-response","531","277600","0.0-24.0-1.0","",""
"null","sound/msl/frog.wav","null","audio-keyboard-response","532","278100","0.0-24.0-2.0","",""
"null","sound/asl/silence.wav","null","audio-keyboard-response","533","278602","0.0-24.0-3.0","",""
"null","sound/msl/cat.wav","null","audio-keyboard-response","534","279100","0.0-24.0-4.0","",""
"null","sound/msl/Water.wav","null","audio-keyboard-response","535","279610","0.0-24.0-5.0","",""
"null","sound/msl/ding.wav","null","audio-keyboard-response","536","280120","0.0-24.0-6.0","",""
"451","sound/asl/silence.wav","49","audio-keyboard-response","537","280572","0.0-24.0-7.0","false",""
"null","sound/msl/duck.wav","null","audio-keyboard-response","538","281081","0.0-25.0-0.0","",""
"null","sound/msl/door.wav","null","audio-keyboard-response","539","281580","0.0-25.0-1.0","",""
"null","sound/msl/frog.wav","null","audio-keyboard-response","540","282091","0.0-25.0-2.0","",""
"null","sound/asl/silence.wav","null","audio-keyboard-response","541","282593","0.0-25.0-3.0","",""
"null","sound/msl/boing.wav","null","audio-keyboard-response","542","283090","0.0-25.0-4.0","",""
"null","sound/msl/door.wav","null","audio-keyboard-response","543","283591","0.0-25.0-5.0","",""
"null","sound/msl/goat.wav","null","audio-keyboard-response","544","284131","0.0-25.0-6.0","",""
"269","sound/asl/silence.wav","50","audio-keyboard-response","545","284404","0.0-25.0-7.0","true",""
"null","sound/msl/boing.wav","null","audio-keyboard-response","546","284902","0.0-26.0-0.0","",""
"null","sound/msl/dog.wav","null","audio-keyboard-response","547","285407","0.0-26.0-1.0","",""
"null","sound/msl/ding.wav","null","audio-keyboard-response","548","285916","0.0-26.0-2.0","",""
"null","sound/asl/silence.wav","null","audio-keyboard-response","549","286417","0.0-26.0-3.0","",""
"null","sound/msl/duck.wav","null","audio-keyboard-response","550","286926","0.0-26.0-4.0","",""
"null","sound/msl/cow.wav","null","audio-keyboard-response","551","287437","0.0-26.0-5.0","",""
"null","sound/msl/clock.wav","null","audio-keyboard-response","552","287986","0.0-26.0-6.0","",""
"352","sound/asl/silence.wav","50","audio-keyboard-response","553","288340","0.0-26.0-7.0","true",""
"null","sound/msl/boing.wav","null","audio-keyboard-response","554","288837","0.0-27.0-0.0","",""
"null","sound/msl/door.wav","null","audio-keyboard-response","555","289337","0.0-27.0-1.0","",""
"null","sound/msl/goat.wav","null","audio-keyboard-response","556","289877","0.0-27.0-2.0","",""
"null","sound/asl/silence.wav","null","audio-keyboard-response","557","290380","0.0-27.0-3.0","",""
"null","sound/msl/door_bell.wav","null","audio-keyboard-response","558","290887","0.0-27.0-4.0","",""
"null","sound/msl/Water.wav","null","audio-keyboard-response","559","291397","0.0-27.0-5.0","",""
"null","sound/msl/slide_whistle.wav","null","audio-keyboard-response","560","291897","0.0-27.0-6.0","",""
"328","sound/asl/silence.wav","49","audio-keyboard-response","561","292236","0.0-27.0-7.0","true",""
"2928","","","instructions","562","295164","0.0-28.0","","[{""page_index"":0,""viewing_time"":2928}]"
