"rt","stimulus","key_press","trial_type","trial_index","time_elapsed","internal_node_id","correct","view_history"
"13277","alien.jpg","49","image-keyboard-response","0","13284","0.0-0.0","",""
"null","sound/msl/boing.wav","null","audio-keyboard-response","1","13781","0.0-1.0-0.0","",""
"null","sound/msl/clock.wav","null","audio-keyboard-response","2","14331","0.0-1.0-1.0","",""
"null","sound/msl/cow.wav","null","audio-keyboard-response","3","14831","0.0-1.0-2.0","",""
"null","sound/msl/ding.wav","null","audio-keyboard-response","4","15342","0.0-1.0-3.0","",""
"null","sound/msl/door.wav","null","audio-keyboard-response","5","15841","0.0-1.0-4.0","",""
"null","sound/msl/organ.wav","null","audio-keyboard-response","6","16341","0.0-1.0-5.0","",""
"null","sound/msl/duck.wav","null","audio-keyboard-response","7","16850","0.0-1.0-6.0","",""
"null","sound/msl/door_bell.wav","null","audio-keyboard-response","8","17351","0.0-1.0-7.0","",""
"null","sound/msl/cat.wav","null","audio-keyboard-response","9","17851","0.0-1.0-8.0","",""
"null","sound/msl/bird.wav","null","audio-keyboard-response","10","18350","0.0-1.0-9.0","",""
"null","sound/msl/Water.wav","null","audio-keyboard-response","11","18861","0.0-1.0-10.0","",""
"null","sound/msl/goat.wav","null","audio-keyboard-response","12","19401","0.0-1.0-11.0","",""
"null","sound/msl/ding.wav","null","audio-keyboard-response","13","19901","0.0-1.0-12.0","",""
"null","sound/msl/door.wav","null","audio-keyboard-response","14","20402","0.0-1.0-13.0","",""
"null","sound/msl/organ.wav","null","audio-keyboard-response","15","20901","0.0-1.0-14.0","",""
"null","sound/msl/boing.wav","null","audio-keyboard-response","16","21401","0.0-1.0-15.0","",""
"null","sound/msl/clock.wav","null","audio-keyboard-response","17","21951","0.0-1.0-16.0","",""
"null","sound/msl/cow.wav","null","audio-keyboard-response","18","22462","0.0-1.0-17.0","",""
"null","sound/msl/frog.wav","null","audio-keyboard-response","19","22972","0.0-1.0-18.0","",""
"null","sound/msl/slide_whistle.wav","null","audio-keyboard-response","20","23472","0.0-1.0-19.0","",""
"null","sound/msl/dog.wav","null","audio-keyboard-response","21","23982","0.0-1.0-20.0","",""
"null","sound/msl/bird.wav","null","audio-keyboard-response","22","24491","0.0-1.0-21.0","",""
"null","sound/msl/Water.wav","null","audio-keyboard-response","23","25002","0.0-1.0-22.0","",""
"null","sound/msl/goat.wav","null","audio-keyboard-response","24","25542","0.0-1.0-23.0","",""
"null","sound/msl/duck.wav","null","audio-keyboard-response","25","26052","0.0-1.0-24.0","",""
"null","sound/msl/door_bell.wav","null","audio-keyboard-response","26","26552","0.0-1.0-25.0","",""
"null","sound/msl/cat.wav","null","audio-keyboard-response","27","27052","0.0-1.0-26.0","",""
"null","sound/msl/boing.wav","null","audio-keyboard-response","28","27552","0.0-1.0-27.0","",""
"null","sound/msl/clock.wav","null","audio-keyboard-response","29","28102","0.0-1.0-28.0","",""
"null","sound/msl/cow.wav","null","audio-keyboard-response","30","28612","0.0-1.0-29.0","",""
"null","sound/msl/ding.wav","null","audio-keyboard-response","31","29113","0.0-1.0-30.0","",""
"null","sound/msl/door.wav","null","audio-keyboard-response","32","29613","0.0-1.0-31.0","",""
"null","sound/msl/organ.wav","null","audio-keyboard-response","33","30113","0.0-1.0-32.0","",""
"null","sound/msl/frog.wav","null","audio-keyboard-response","34","30622","0.0-1.0-33.0","",""
"null","sound/msl/slide_whistle.wav","null","audio-keyboard-response","35","31122","0.0-1.0-34.0","",""
"null","sound/msl/dog.wav","null","audio-keyboard-response","36","31623","0.0-1.0-35.0","",""
"null","sound/msl/duck.wav","null","audio-keyboard-response","37","32132","0.0-1.0-36.0","",""
"null","sound/msl/door_bell.wav","null","audio-keyboard-response","38","32633","0.0-1.0-37.0","",""
"null","sound/msl/cat.wav","null","audio-keyboard-response","39","33133","0.0-1.0-38.0","",""
"null","sound/msl/bird.wav","null","audio-keyboard-response","40","33634","0.0-1.0-39.0","",""
"null","sound/msl/Water.wav","null","audio-keyboard-response","41","34143","0.0-1.0-40.0","",""
"null","sound/msl/goat.wav","null","audio-keyboard-response","42","34684","0.0-1.0-41.0","",""
"null","sound/msl/frog.wav","null","audio-keyboard-response","43","35184","0.0-1.0-42.0","",""
"null","sound/msl/slide_whistle.wav","null","audio-keyboard-response","44","35683","0.0-1.0-43.0","",""
"null","sound/msl/dog.wav","null","audio-keyboard-response","45","36184","0.0-1.0-44.0","",""
"null","sound/msl/ding.wav","null","audio-keyboard-response","46","36694","0.0-1.0-45.0","",""
"null","sound/msl/door.wav","null","audio-keyboard-response","47","37194","0.0-1.0-46.0","",""
"null","sound/msl/organ.wav","null","audio-keyboard-response","48","37694","0.0-1.0-47.0","",""
"null","sound/msl/duck.wav","null","audio-keyboard-response","49","38194","0.0-1.0-48.0","",""
"null","sound/msl/door_bell.wav","null","audio-keyboard-response","50","38704","0.0-1.0-49.0","",""
"null","sound/msl/cat.wav","null","audio-keyboard-response","51","39204","0.0-1.0-50.0","",""
"null","sound/msl/boing.wav","null","audio-keyboard-response","52","39704","0.0-1.0-51.0","",""
"null","sound/msl/clock.wav","null","audio-keyboard-response","53","40254","0.0-1.0-52.0","",""
"null","sound/msl/cow.wav","null","audio-keyboard-response","54","40749","0.0-1.0-53.0","",""
"null","sound/msl/ding.wav","null","audio-keyboard-response","55","41259","0.0-1.0-54.0","",""
"null","sound/msl/door.wav","null","audio-keyboard-response","56","41759","0.0-1.0-55.0","",""
"null","sound/msl/organ.wav","null","audio-keyboard-response","57","42260","0.0-1.0-56.0","",""
"null","sound/msl/duck.wav","null","audio-keyboard-response","58","42769","0.0-1.0-57.0","",""
"null","sound/msl/door_bell.wav","null","audio-keyboard-response","59","43269","0.0-1.0-58.0","",""
"null","sound/msl/cat.wav","null","audio-keyboard-response","60","43770","0.0-1.0-59.0","",""
"null","sound/msl/bird.wav","null","audio-keyboard-response","61","44270","0.0-1.0-60.0","",""
"null","sound/msl/Water.wav","null","audio-keyboard-response","62","44780","0.0-1.0-61.0","",""
"null","sound/msl/goat.wav","null","audio-keyboard-response","63","45320","0.0-1.0-62.0","",""
"null","sound/msl/frog.wav","null","audio-keyboard-response","64","45819","0.0-1.0-63.0","",""
"null","sound/msl/slide_whistle.wav","null","audio-keyboard-response","65","46320","0.0-1.0-64.0","",""
"null","sound/msl/dog.wav","null","audio-keyboard-response","66","46819","0.0-1.0-65.0","",""
"null","sound/msl/ding.wav","null","audio-keyboard-response","67","47329","0.0-1.0-66.0","",""
"null","sound/msl/door.wav","null","audio-keyboard-response","68","47830","0.0-1.0-67.0","",""
"null","sound/msl/organ.wav","null","audio-keyboard-response","69","48330","0.0-1.0-68.0","",""
"null","sound/msl/boing.wav","null","audio-keyboard-response","70","48830","0.0-1.0-69.0","",""
"null","sound/msl/clock.wav","null","audio-keyboard-response","71","49380","0.0-1.0-70.0","",""
"null","sound/msl/cow.wav","null","audio-keyboard-response","72","49890","0.0-1.0-71.0","",""
"null","sound/msl/duck.wav","null","audio-keyboard-response","73","50391","0.0-1.0-72.0","",""
"null","sound/msl/door_bell.wav","null","audio-keyboard-response","74","50901","0.0-1.0-73.0","",""
"null","sound/msl/cat.wav","null","audio-keyboard-response","75","51400","0.0-1.0-74.0","",""
"null","sound/msl/bird.wav","null","audio-keyboard-response","76","51900","0.0-1.0-75.0","",""
"null","sound/msl/Water.wav","null","audio-keyboard-response","77","52410","0.0-1.0-76.0","",""
"null","sound/msl/goat.wav","null","audio-keyboard-response","78","52951","0.0-1.0-77.0","",""
"null","sound/msl/duck.wav","null","audio-keyboard-response","79","53461","0.0-1.0-78.0","",""
"null","sound/msl/door_bell.wav","null","audio-keyboard-response","80","53971","0.0-1.0-79.0","",""
"null","sound/msl/cat.wav","null","audio-keyboard-response","81","54471","0.0-1.0-80.0","",""
"null","sound/msl/frog.wav","null","audio-keyboard-response","82","54981","0.0-1.0-81.0","",""
"null","sound/msl/slide_whistle.wav","null","audio-keyboard-response","83","55481","0.0-1.0-82.0","",""
"null","sound/msl/dog.wav","null","audio-keyboard-response","84","55981","0.0-1.0-83.0","",""
"null","sound/msl/boing.wav","null","audio-keyboard-response","85","56482","0.0-1.0-84.0","",""
"null","sound/msl/clock.wav","null","audio-keyboard-response","86","57031","0.0-1.0-85.0","",""
"null","sound/msl/cow.wav","null","audio-keyboard-response","87","57542","0.0-1.0-86.0","",""
"null","sound/msl/ding.wav","null","audio-keyboard-response","88","58051","0.0-1.0-87.0","",""
"null","sound/msl/door.wav","null","audio-keyboard-response","89","58551","0.0-1.0-88.0","",""
"null","sound/msl/organ.wav","null","audio-keyboard-response","90","59051","0.0-1.0-89.0","",""
"null","sound/msl/frog.wav","null","audio-keyboard-response","91","59552","0.0-1.0-90.0","",""
"null","sound/msl/slide_whistle.wav","null","audio-keyboard-response","92","60051","0.0-1.0-91.0","",""
"null","sound/msl/dog.wav","null","audio-keyboard-response","93","60552","0.0-1.0-92.0","",""
"null","sound/msl/bird.wav","null","audio-keyboard-response","94","61061","0.0-1.0-93.0","",""
"null","sound/msl/Water.wav","null","audio-keyboard-response","95","61572","0.0-1.0-94.0","",""
"null","sound/msl/goat.wav","null","audio-keyboard-response","96","62112","0.0-1.0-95.0","",""
"null","sound/msl/duck.wav","null","audio-keyboard-response","97","62622","0.0-1.0-96.0","",""
"null","sound/msl/door_bell.wav","null","audio-keyboard-response","98","63132","0.0-1.0-97.0","",""
"null","sound/msl/cat.wav","null","audio-keyboard-response","99","63633","0.0-1.0-98.0","",""
"null","sound/msl/ding.wav","null","audio-keyboard-response","100","64142","0.0-1.0-99.0","",""
"null","sound/msl/door.wav","null","audio-keyboard-response","101","64642","0.0-1.0-100.0","",""
"null","sound/msl/organ.wav","null","audio-keyboard-response","102","65143","0.0-1.0-101.0","",""
"null","sound/msl/frog.wav","null","audio-keyboard-response","103","65653","0.0-1.0-102.0","",""
"null","sound/msl/slide_whistle.wav","null","audio-keyboard-response","104","66153","0.0-1.0-103.0","",""
"null","sound/msl/dog.wav","null","audio-keyboard-response","105","66663","0.0-1.0-104.0","",""
"null","sound/msl/boing.wav","null","audio-keyboard-response","106","67163","0.0-1.0-105.0","",""
"null","sound/msl/clock.wav","null","audio-keyboard-response","107","67713","0.0-1.0-106.0","",""
"null","sound/msl/cow.wav","null","audio-keyboard-response","108","68223","0.0-1.0-107.0","",""
"null","sound/msl/ding.wav","null","audio-keyboard-response","109","68733","0.0-1.0-108.0","",""
"null","sound/msl/door.wav","null","audio-keyboard-response","110","69233","0.0-1.0-109.0","",""
"null","sound/msl/organ.wav","null","audio-keyboard-response","111","69733","0.0-1.0-110.0","",""
"null","sound/msl/bird.wav","null","audio-keyboard-response","112","70233","0.0-1.0-111.0","",""
"null","sound/msl/Water.wav","null","audio-keyboard-response","113","70743","0.0-1.0-112.0","",""
"null","sound/msl/goat.wav","null","audio-keyboard-response","114","71284","0.0-1.0-113.0","",""
"null","sound/msl/frog.wav","null","audio-keyboard-response","115","71783","0.0-1.0-114.0","",""
"null","sound/msl/slide_whistle.wav","null","audio-keyboard-response","116","72283","0.0-1.0-115.0","",""
"null","sound/msl/dog.wav","null","audio-keyboard-response","117","72784","0.0-1.0-116.0","",""
"null","sound/msl/duck.wav","null","audio-keyboard-response","118","73294","0.0-1.0-117.0","",""
"null","sound/msl/door_bell.wav","null","audio-keyboard-response","119","73794","0.0-1.0-118.0","",""
"null","sound/msl/cat.wav","null","audio-keyboard-response","120","74294","0.0-1.0-119.0","",""
"null","sound/msl/boing.wav","null","audio-keyboard-response","121","74793","0.0-1.0-120.0","",""
"null","sound/msl/clock.wav","null","audio-keyboard-response","122","75344","0.0-1.0-121.0","",""
"null","sound/msl/cow.wav","null","audio-keyboard-response","123","75854","0.0-1.0-122.0","",""
"null","sound/msl/ding.wav","null","audio-keyboard-response","124","76354","0.0-1.0-123.0","",""
"null","sound/msl/door.wav","null","audio-keyboard-response","125","76854","0.0-1.0-124.0","",""
"null","sound/msl/organ.wav","null","audio-keyboard-response","126","77354","0.0-1.0-125.0","",""
"null","sound/msl/frog.wav","null","audio-keyboard-response","127","77864","0.0-1.0-126.0","",""
"null","sound/msl/slide_whistle.wav","null","audio-keyboard-response","128","78364","0.0-1.0-127.0","",""
"null","sound/msl/dog.wav","null","audio-keyboard-response","129","78864","0.0-1.0-128.0","",""
"null","sound/msl/bird.wav","null","audio-keyboard-response","130","79374","0.0-1.0-129.0","",""
"null","sound/msl/Water.wav","null","audio-keyboard-response","131","79884","0.0-1.0-130.0","",""
"null","sound/msl/goat.wav","null","audio-keyboard-response","132","80424","0.0-1.0-131.0","",""
"null","sound/msl/ding.wav","null","audio-keyboard-response","133","80934","0.0-1.0-132.0","",""
"null","sound/msl/door.wav","null","audio-keyboard-response","134","81429","0.0-1.0-133.0","",""
"null","sound/msl/organ.wav","null","audio-keyboard-response","135","81929","0.0-1.0-134.0","",""
"null","sound/msl/duck.wav","null","audio-keyboard-response","136","82430","0.0-1.0-135.0","",""
"null","sound/msl/door_bell.wav","null","audio-keyboard-response","137","82940","0.0-1.0-136.0","",""
"null","sound/msl/cat.wav","null","audio-keyboard-response","138","83440","0.0-1.0-137.0","",""
"null","sound/msl/bird.wav","null","audio-keyboard-response","139","83940","0.0-1.0-138.0","",""
"null","sound/msl/Water.wav","null","audio-keyboard-response","140","84450","0.0-1.0-139.0","",""
"null","sound/msl/goat.wav","null","audio-keyboard-response","141","84990","0.0-1.0-140.0","",""
"null","sound/msl/boing.wav","null","audio-keyboard-response","142","85490","0.0-1.0-141.0","",""
"null","sound/msl/clock.wav","null","audio-keyboard-response","143","86040","0.0-1.0-142.0","",""
"null","sound/msl/cow.wav","null","audio-keyboard-response","144","86541","0.0-1.0-143.0","",""
"null","sound/msl/frog.wav","null","audio-keyboard-response","145","87050","0.0-1.0-144.0","",""
"null","sound/msl/slide_whistle.wav","null","audio-keyboard-response","146","87551","0.0-1.0-145.0","",""
"null","sound/msl/dog.wav","null","audio-keyboard-response","147","88060","0.0-1.0-146.0","",""
"null","sound/msl/duck.wav","null","audio-keyboard-response","148","88570","0.0-1.0-147.0","",""
"null","sound/msl/door_bell.wav","null","audio-keyboard-response","149","89070","0.0-1.0-148.0","",""
"null","sound/msl/cat.wav","null","audio-keyboard-response","150","89570","0.0-1.0-149.0","",""
"null","sound/msl/boing.wav","null","audio-keyboard-response","151","90070","0.0-1.0-150.0","",""
"null","sound/msl/clock.wav","null","audio-keyboard-response","152","90621","0.0-1.0-151.0","",""
"null","sound/msl/cow.wav","null","audio-keyboard-response","153","91131","0.0-1.0-152.0","",""
"null","sound/msl/ding.wav","null","audio-keyboard-response","154","91631","0.0-1.0-153.0","",""
"null","sound/msl/door.wav","null","audio-keyboard-response","155","92131","0.0-1.0-154.0","",""
"null","sound/msl/organ.wav","null","audio-keyboard-response","156","92631","0.0-1.0-155.0","",""
"null","sound/msl/bird.wav","null","audio-keyboard-response","157","93140","0.0-1.0-156.0","",""
"null","sound/msl/Water.wav","null","audio-keyboard-response","158","93651","0.0-1.0-157.0","",""
"null","sound/msl/goat.wav","null","audio-keyboard-response","159","94191","0.0-1.0-158.0","",""
"null","sound/msl/frog.wav","null","audio-keyboard-response","160","94701","0.0-1.0-159.0","",""
"null","sound/msl/slide_whistle.wav","null","audio-keyboard-response","161","95202","0.0-1.0-160.0","",""
"null","sound/msl/dog.wav","null","audio-keyboard-response","162","95701","0.0-1.0-161.0","",""
"null","sound/msl/ding.wav","null","audio-keyboard-response","163","96211","0.0-1.0-162.0","",""
"null","sound/msl/door.wav","null","audio-keyboard-response","164","96711","0.0-1.0-163.0","",""
"null","sound/msl/organ.wav","null","audio-keyboard-response","165","97212","0.0-1.0-164.0","",""
"null","sound/msl/bird.wav","null","audio-keyboard-response","166","97711","0.0-1.0-165.0","",""
"null","sound/msl/Water.wav","null","audio-keyboard-response","167","98222","0.0-1.0-166.0","",""
"null","sound/msl/goat.wav","null","audio-keyboard-response","168","98762","0.0-1.0-167.0","",""
"null","sound/msl/boing.wav","null","audio-keyboard-response","169","99262","0.0-1.0-168.0","",""
"null","sound/msl/clock.wav","null","audio-keyboard-response","170","99812","0.0-1.0-169.0","",""
"null","sound/msl/cow.wav","null","audio-keyboard-response","171","100312","0.0-1.0-170.0","",""
"null","sound/msl/duck.wav","null","audio-keyboard-response","172","100822","0.0-1.0-171.0","",""
"null","sound/msl/door_bell.wav","null","audio-keyboard-response","173","101332","0.0-1.0-172.0","",""
"null","sound/msl/cat.wav","null","audio-keyboard-response","174","101832","0.0-1.0-173.0","",""
"null","sound/msl/frog.wav","null","audio-keyboard-response","175","102342","0.0-1.0-174.0","",""
"null","sound/msl/slide_whistle.wav","null","audio-keyboard-response","176","102842","0.0-1.0-175.0","",""
"null","sound/msl/dog.wav","null","audio-keyboard-response","177","103342","0.0-1.0-176.0","",""
"null","sound/msl/ding.wav","null","audio-keyboard-response","178","103852","0.0-1.0-177.0","",""
"null","sound/msl/door.wav","null","audio-keyboard-response","179","104352","0.0-1.0-178.0","",""
"null","sound/msl/organ.wav","null","audio-keyboard-response","180","104852","0.0-1.0-179.0","",""
"null","sound/msl/duck.wav","null","audio-keyboard-response","181","105352","0.0-1.0-180.0","",""
"null","sound/msl/door_bell.wav","null","audio-keyboard-response","182","105863","0.0-1.0-181.0","",""
"null","sound/msl/cat.wav","null","audio-keyboard-response","183","106363","0.0-1.0-182.0","",""
"null","sound/msl/bird.wav","null","audio-keyboard-response","184","106862","0.0-1.0-183.0","",""
"null","sound/msl/Water.wav","null","audio-keyboard-response","185","107373","0.0-1.0-184.0","",""
"null","sound/msl/goat.wav","null","audio-keyboard-response","186","107912","0.0-1.0-185.0","",""
"null","sound/msl/boing.wav","null","audio-keyboard-response","187","108413","0.0-1.0-186.0","",""
"null","sound/msl/clock.wav","null","audio-keyboard-response","188","108963","0.0-1.0-187.0","",""
"null","sound/msl/cow.wav","null","audio-keyboard-response","189","109463","0.0-1.0-188.0","",""
"null","sound/msl/frog.wav","null","audio-keyboard-response","190","109973","0.0-1.0-189.0","",""
"null","sound/msl/slide_whistle.wav","null","audio-keyboard-response","191","110473","0.0-1.0-190.0","",""
"null","sound/msl/dog.wav","null","audio-keyboard-response","192","110983","0.0-1.0-191.0","",""
"null","sound/msl/ding.wav","null","audio-keyboard-response","193","111493","0.0-1.0-192.0","",""
"null","sound/msl/door.wav","null","audio-keyboard-response","194","111993","0.0-1.0-193.0","",""
"null","sound/msl/organ.wav","null","audio-keyboard-response","195","112493","0.0-1.0-194.0","",""
"null","sound/msl/duck.wav","null","audio-keyboard-response","196","112994","0.0-1.0-195.0","",""
"null","sound/msl/door_bell.wav","null","audio-keyboard-response","197","113504","0.0-1.0-196.0","",""
"null","sound/msl/cat.wav","null","audio-keyboard-response","198","114004","0.0-1.0-197.0","",""
"null","sound/msl/boing.wav","null","audio-keyboard-response","199","114504","0.0-1.0-198.0","",""
"null","sound/msl/clock.wav","null","audio-keyboard-response","200","115054","0.0-1.0-199.0","",""
"null","sound/msl/cow.wav","null","audio-keyboard-response","201","115554","0.0-1.0-200.0","",""
"null","sound/msl/bird.wav","null","audio-keyboard-response","202","116064","0.0-1.0-201.0","",""
"null","sound/msl/Water.wav","null","audio-keyboard-response","203","116574","0.0-1.0-202.0","",""
"null","sound/msl/goat.wav","null","audio-keyboard-response","204","117114","0.0-1.0-203.0","",""
"null","sound/msl/frog.wav","null","audio-keyboard-response","205","117624","0.0-1.0-204.0","",""
"null","sound/msl/slide_whistle.wav","null","audio-keyboard-response","206","118124","0.0-1.0-205.0","",""
"null","sound/msl/dog.wav","null","audio-keyboard-response","207","118625","0.0-1.0-206.0","",""
"null","sound/msl/ding.wav","null","audio-keyboard-response","208","119135","0.0-1.0-207.0","",""
"null","sound/msl/door.wav","null","audio-keyboard-response","209","119635","0.0-1.0-208.0","",""
"null","sound/msl/organ.wav","null","audio-keyboard-response","210","120134","0.0-1.0-209.0","",""
"null","sound/msl/boing.wav","null","audio-keyboard-response","211","120634","0.0-1.0-210.0","",""
"null","sound/msl/clock.wav","null","audio-keyboard-response","212","121185","0.0-1.0-211.0","",""
"null","sound/msl/cow.wav","null","audio-keyboard-response","213","121694","0.0-1.0-212.0","",""
"null","sound/msl/frog.wav","null","audio-keyboard-response","214","122190","0.0-1.0-213.0","",""
"null","sound/msl/slide_whistle.wav","null","audio-keyboard-response","215","122689","0.0-1.0-214.0","",""
"null","sound/msl/dog.wav","null","audio-keyboard-response","216","123190","0.0-1.0-215.0","",""
"null","sound/msl/duck.wav","null","audio-keyboard-response","217","123700","0.0-1.0-216.0","",""
"null","sound/msl/door_bell.wav","null","audio-keyboard-response","218","124210","0.0-1.0-217.0","",""
"null","sound/msl/cat.wav","null","audio-keyboard-response","219","124710","0.0-1.0-218.0","",""
"null","sound/msl/bird.wav","null","audio-keyboard-response","220","125220","0.0-1.0-219.0","",""
"null","sound/msl/Water.wav","null","audio-keyboard-response","221","125730","0.0-1.0-220.0","",""
"null","sound/msl/goat.wav","null","audio-keyboard-response","222","126271","0.0-1.0-221.0","",""
"null","sound/msl/ding.wav","null","audio-keyboard-response","223","126781","0.0-1.0-222.0","",""
"null","sound/msl/door.wav","null","audio-keyboard-response","224","127281","0.0-1.0-223.0","",""
"null","sound/msl/organ.wav","null","audio-keyboard-response","225","127781","0.0-1.0-224.0","",""
"null","sound/msl/duck.wav","null","audio-keyboard-response","226","128291","0.0-1.0-225.0","",""
"null","sound/msl/door_bell.wav","null","audio-keyboard-response","227","128790","0.0-1.0-226.0","",""
"null","sound/msl/cat.wav","null","audio-keyboard-response","228","129291","0.0-1.0-227.0","",""
"null","sound/msl/frog.wav","null","audio-keyboard-response","229","129791","0.0-1.0-228.0","",""
"null","sound/msl/slide_whistle.wav","null","audio-keyboard-response","230","130291","0.0-1.0-229.0","",""
"null","sound/msl/dog.wav","null","audio-keyboard-response","231","130791","0.0-1.0-230.0","",""
"null","sound/msl/duck.wav","null","audio-keyboard-response","232","131301","0.0-1.0-231.0","",""
"null","sound/msl/door_bell.wav","null","audio-keyboard-response","233","131811","0.0-1.0-232.0","",""
"null","sound/msl/cat.wav","null","audio-keyboard-response","234","132312","0.0-1.0-233.0","",""
"null","sound/msl/ding.wav","null","audio-keyboard-response","235","132821","0.0-1.0-234.0","",""
"null","sound/msl/door.wav","null","audio-keyboard-response","236","133321","0.0-1.0-235.0","",""
"null","sound/msl/organ.wav","null","audio-keyboard-response","237","133821","0.0-1.0-236.0","",""
"null","sound/msl/bird.wav","null","audio-keyboard-response","238","134331","0.0-1.0-237.0","",""
"null","sound/msl/Water.wav","null","audio-keyboard-response","239","134841","0.0-1.0-238.0","",""
"null","sound/msl/goat.wav","null","audio-keyboard-response","240","135381","0.0-1.0-239.0","",""
"null","sound/msl/boing.wav","null","audio-keyboard-response","241","135881","0.0-1.0-240.0","",""
"null","sound/msl/clock.wav","null","audio-keyboard-response","242","136432","0.0-1.0-241.0","",""
"null","sound/msl/cow.wav","null","audio-keyboard-response","243","136942","0.0-1.0-242.0","",""
"null","sound/msl/frog.wav","null","audio-keyboard-response","244","137452","0.0-1.0-243.0","",""
"null","sound/msl/slide_whistle.wav","null","audio-keyboard-response","245","137952","0.0-1.0-244.0","",""
"null","sound/msl/dog.wav","null","audio-keyboard-response","246","138462","0.0-1.0-245.0","",""
"null","sound/msl/ding.wav","null","audio-keyboard-response","247","138972","0.0-1.0-246.0","",""
"null","sound/msl/door.wav","null","audio-keyboard-response","248","139472","0.0-1.0-247.0","",""
"null","sound/msl/organ.wav","null","audio-keyboard-response","249","139972","0.0-1.0-248.0","",""
"null","sound/msl/bird.wav","null","audio-keyboard-response","250","140473","0.0-1.0-249.0","",""
"null","sound/msl/Water.wav","null","audio-keyboard-response","251","140983","0.0-1.0-250.0","",""
"null","sound/msl/goat.wav","null","audio-keyboard-response","252","141523","0.0-1.0-251.0","",""
"null","sound/msl/boing.wav","null","audio-keyboard-response","253","142022","0.0-1.0-252.0","",""
"null","sound/msl/clock.wav","null","audio-keyboard-response","254","142572","0.0-1.0-253.0","",""
"null","sound/msl/cow.wav","null","audio-keyboard-response","255","143073","0.0-1.0-254.0","",""
"null","sound/msl/duck.wav","null","audio-keyboard-response","256","143582","0.0-1.0-255.0","",""
"null","sound/msl/door_bell.wav","null","audio-keyboard-response","257","144093","0.0-1.0-256.0","",""
"null","sound/msl/cat.wav","null","audio-keyboard-response","258","144593","0.0-1.0-257.0","",""
"null","sound/msl/frog.wav","null","audio-keyboard-response","259","145102","0.0-1.0-258.0","",""
"null","sound/msl/slide_whistle.wav","null","audio-keyboard-response","260","145603","0.0-1.0-259.0","",""
"null","sound/msl/dog.wav","null","audio-keyboard-response","261","146103","0.0-1.0-260.0","",""
"null","sound/msl/boing.wav","null","audio-keyboard-response","262","146603","0.0-1.0-261.0","",""
"null","sound/msl/clock.wav","null","audio-keyboard-response","263","147153","0.0-1.0-262.0","",""
"null","sound/msl/cow.wav","null","audio-keyboard-response","264","147663","0.0-1.0-263.0","",""
"null","sound/msl/bird.wav","null","audio-keyboard-response","265","148173","0.0-1.0-264.0","",""
"null","sound/msl/Water.wav","null","audio-keyboard-response","266","148684","0.0-1.0-265.0","",""
"null","sound/msl/goat.wav","null","audio-keyboard-response","267","149224","0.0-1.0-266.0","",""
"null","sound/msl/duck.wav","null","audio-keyboard-response","268","149733","0.0-1.0-267.0","",""
"null","sound/msl/door_bell.wav","null","audio-keyboard-response","269","150233","0.0-1.0-268.0","",""
"null","sound/msl/cat.wav","null","audio-keyboard-response","270","150734","0.0-1.0-269.0","",""
"null","sound/msl/ding.wav","null","audio-keyboard-response","271","151234","0.0-1.0-270.0","",""
"null","sound/msl/door.wav","null","audio-keyboard-response","272","151734","0.0-1.0-271.0","",""
"null","sound/msl/organ.wav","null","audio-keyboard-response","273","152234","0.0-1.0-272.0","",""
"null","sound/msl/frog.wav","null","audio-keyboard-response","274","152744","0.0-1.0-273.0","",""
"null","sound/msl/slide_whistle.wav","null","audio-keyboard-response","275","153243","0.0-1.0-274.0","",""
"null","sound/msl/dog.wav","null","audio-keyboard-response","276","153744","0.0-1.0-275.0","",""
"null","sound/msl/boing.wav","null","audio-keyboard-response","277","154244","0.0-1.0-276.0","",""
"null","sound/msl/clock.wav","null","audio-keyboard-response","278","154794","0.0-1.0-277.0","",""
"null","sound/msl/cow.wav","null","audio-keyboard-response","279","155304","0.0-1.0-278.0","",""
"null","sound/msl/bird.wav","null","audio-keyboard-response","280","155814","0.0-1.0-279.0","",""
"null","sound/msl/Water.wav","null","audio-keyboard-response","281","156325","0.0-1.0-280.0","",""
"null","sound/msl/goat.wav","null","audio-keyboard-response","282","156864","0.0-1.0-281.0","",""
"null","sound/msl/ding.wav","null","audio-keyboard-response","283","157374","0.0-1.0-282.0","",""
"null","sound/msl/door.wav","null","audio-keyboard-response","284","157875","0.0-1.0-283.0","",""
"null","sound/msl/organ.wav","null","audio-keyboard-response","285","158374","0.0-1.0-284.0","",""
"null","sound/msl/duck.wav","null","audio-keyboard-response","286","158874","0.0-1.0-285.0","",""
"null","sound/msl/door_bell.wav","null","audio-keyboard-response","287","159384","0.0-1.0-286.0","",""
"null","sound/msl/cat.wav","null","audio-keyboard-response","288","159884","0.0-1.0-287.0","",""
"null","sound/msl/frog.wav","null","audio-keyboard-response","289","160385","0.0-1.0-288.0","",""
"null","sound/msl/slide_whistle.wav","null","audio-keyboard-response","290","160885","0.0-1.0-289.0","",""
"null","sound/msl/dog.wav","null","audio-keyboard-response","291","161385","0.0-1.0-290.0","",""
"null","sound/msl/bird.wav","null","audio-keyboard-response","292","161895","0.0-1.0-291.0","",""
"null","sound/msl/Water.wav","null","audio-keyboard-response","293","162405","0.0-1.0-292.0","",""
"null","sound/msl/goat.wav","null","audio-keyboard-response","294","162940","0.0-1.0-293.0","",""
"null","sound/msl/boing.wav","null","audio-keyboard-response","295","163440","0.0-1.0-294.0","",""
"null","sound/msl/clock.wav","null","audio-keyboard-response","296","163990","0.0-1.0-295.0","",""
"null","sound/msl/cow.wav","null","audio-keyboard-response","297","164500","0.0-1.0-296.0","",""
"null","sound/msl/frog.wav","null","audio-keyboard-response","298","165010","0.0-1.0-297.0","",""
"null","sound/msl/slide_whistle.wav","null","audio-keyboard-response","299","165510","0.0-1.0-298.0","",""
"null","sound/msl/dog.wav","null","audio-keyboard-response","300","166020","0.0-1.0-299.0","",""
"null","sound/msl/ding.wav","null","audio-keyboard-response","301","166530","0.0-1.0-300.0","",""
"null","sound/msl/door.wav","null","audio-keyboard-response","302","167031","0.0-1.0-301.0","",""
"null","sound/msl/organ.wav","null","audio-keyboard-response","303","167530","0.0-1.0-302.0","",""
"null","sound/msl/bird.wav","null","audio-keyboard-response","304","168031","0.0-1.0-303.0","",""
"null","sound/msl/Water.wav","null","audio-keyboard-response","305","168541","0.0-1.0-304.0","",""
"null","sound/msl/goat.wav","null","audio-keyboard-response","306","169081","0.0-1.0-305.0","",""
"null","sound/msl/duck.wav","null","audio-keyboard-response","307","169581","0.0-1.0-306.0","",""
"null","sound/msl/door_bell.wav","null","audio-keyboard-response","308","170091","0.0-1.0-307.0","",""
"null","sound/msl/cat.wav","null","audio-keyboard-response","309","170591","0.0-1.0-308.0","",""
"null","sound/msl/boing.wav","null","audio-keyboard-response","310","171091","0.0-1.0-309.0","",""
"null","sound/msl/clock.wav","null","audio-keyboard-response","311","171640","0.0-1.0-310.0","",""
"null","sound/msl/cow.wav","null","audio-keyboard-response","312","172141","0.0-1.0-311.0","",""
"null","sound/msl/frog.wav","null","audio-keyboard-response","313","172651","0.0-1.0-312.0","",""
"null","sound/msl/slide_whistle.wav","null","audio-keyboard-response","314","173151","0.0-1.0-313.0","",""
"null","sound/msl/dog.wav","null","audio-keyboard-response","315","173662","0.0-1.0-314.0","",""
"null","sound/msl/ding.wav","null","audio-keyboard-response","316","174171","0.0-1.0-315.0","",""
"null","sound/msl/door.wav","null","audio-keyboard-response","317","174672","0.0-1.0-316.0","",""
"null","sound/msl/organ.wav","null","audio-keyboard-response","318","175172","0.0-1.0-317.0","",""
"null","sound/msl/bird.wav","null","audio-keyboard-response","319","175672","0.0-1.0-318.0","",""
"null","sound/msl/Water.wav","null","audio-keyboard-response","320","176181","0.0-1.0-319.0","",""
"null","sound/msl/goat.wav","null","audio-keyboard-response","321","176722","0.0-1.0-320.0","",""
"null","sound/msl/boing.wav","null","audio-keyboard-response","322","177222","0.0-1.0-321.0","",""
"null","sound/msl/clock.wav","null","audio-keyboard-response","323","177772","0.0-1.0-322.0","",""
"null","sound/msl/cow.wav","null","audio-keyboard-response","324","178272","0.0-1.0-323.0","",""
"null","sound/msl/ding.wav","null","audio-keyboard-response","325","178782","0.0-1.0-324.0","",""
"null","sound/msl/door.wav","null","audio-keyboard-response","326","179282","0.0-1.0-325.0","",""
"null","sound/msl/organ.wav","null","audio-keyboard-response","327","179782","0.0-1.0-326.0","",""
"null","sound/msl/duck.wav","null","audio-keyboard-response","328","180293","0.0-1.0-327.0","",""
"null","sound/msl/door_bell.wav","null","audio-keyboard-response","329","180793","0.0-1.0-328.0","",""
"null","sound/msl/cat.wav","null","audio-keyboard-response","330","181292","0.0-1.0-329.0","",""
"null","sound/msl/frog.wav","null","audio-keyboard-response","331","181793","0.0-1.0-330.0","",""
"null","sound/msl/slide_whistle.wav","null","audio-keyboard-response","332","182293","0.0-1.0-331.0","",""
"null","sound/msl/dog.wav","null","audio-keyboard-response","333","182793","0.0-1.0-332.0","",""
"null","sound/msl/bird.wav","null","audio-keyboard-response","334","183303","0.0-1.0-333.0","",""
"null","sound/msl/Water.wav","null","audio-keyboard-response","335","183813","0.0-1.0-334.0","",""
"null","sound/msl/goat.wav","null","audio-keyboard-response","336","184353","0.0-1.0-335.0","",""
"null","sound/msl/duck.wav","null","audio-keyboard-response","337","184863","0.0-1.0-336.0","",""
"null","sound/msl/door_bell.wav","null","audio-keyboard-response","338","185373","0.0-1.0-337.0","",""
"null","sound/msl/cat.wav","null","audio-keyboard-response","339","185873","0.0-1.0-338.0","",""
"null","sound/msl/boing.wav","null","audio-keyboard-response","340","186373","0.0-1.0-339.0","",""
"null","sound/msl/clock.wav","null","audio-keyboard-response","341","186923","0.0-1.0-340.0","",""
"null","sound/msl/cow.wav","null","audio-keyboard-response","342","187423","0.0-1.0-341.0","",""
"null","sound/msl/bird.wav","null","audio-keyboard-response","343","187933","0.0-1.0-342.0","",""
"null","sound/msl/Water.wav","null","audio-keyboard-response","344","188444","0.0-1.0-343.0","",""
"null","sound/msl/goat.wav","null","audio-keyboard-response","345","188984","0.0-1.0-344.0","",""
"null","sound/msl/boing.wav","null","audio-keyboard-response","346","189483","0.0-1.0-345.0","",""
"null","sound/msl/clock.wav","null","audio-keyboard-response","347","190033","0.0-1.0-346.0","",""
"null","sound/msl/cow.wav","null","audio-keyboard-response","348","190544","0.0-1.0-347.0","",""
"null","sound/msl/duck.wav","null","audio-keyboard-response","349","191053","0.0-1.0-348.0","",""
"null","sound/msl/door_bell.wav","null","audio-keyboard-response","350","191554","0.0-1.0-349.0","",""
"null","sound/msl/cat.wav","null","audio-keyboard-response","351","192054","0.0-1.0-350.0","",""
"null","sound/msl/frog.wav","null","audio-keyboard-response","352","192554","0.0-1.0-351.0","",""
"null","sound/msl/slide_whistle.wav","null","audio-keyboard-response","353","193053","0.0-1.0-352.0","",""
"null","sound/msl/dog.wav","null","audio-keyboard-response","354","193554","0.0-1.0-353.0","",""
"null","sound/msl/bird.wav","null","audio-keyboard-response","355","194064","0.0-1.0-354.0","",""
"null","sound/msl/Water.wav","null","audio-keyboard-response","356","194575","0.0-1.0-355.0","",""
"null","sound/msl/goat.wav","null","audio-keyboard-response","357","195114","0.0-1.0-356.0","",""
"null","sound/msl/boing.wav","null","audio-keyboard-response","358","195614","0.0-1.0-357.0","",""
"null","sound/msl/clock.wav","null","audio-keyboard-response","359","196164","0.0-1.0-358.0","",""
"null","sound/msl/cow.wav","null","audio-keyboard-response","360","196664","0.0-1.0-359.0","",""
"12276","Instructions2-eng.png","49","image-keyboard-response","361","208942","0.0-2.0","",""
"null","sound/msl/duck.wav","null","audio-keyboard-response","362","209451","0.0-3.0-0.0","",""
"null","sound/msl/Water.wav","null","audio-keyboard-response","363","209961","0.0-3.0-1.0","",""
"null","sound/msl/dog.wav","null","audio-keyboard-response","364","210461","0.0-3.0-2.0","",""
"null","sound/asl/silence.wav","null","audio-keyboard-response","365","210963","0.0-3.0-3.0","",""
"null","sound/msl/bird.wav","null","audio-keyboard-response","366","211461","0.0-3.0-4.0","",""
"null","sound/msl/Water.wav","null","audio-keyboard-response","367","211972","0.0-3.0-5.0","",""
"null","sound/msl/goat.wav","null","audio-keyboard-response","368","212512","0.0-3.0-6.0","",""
"2459","sound/asl/silence.wav","50","audio-keyboard-response","369","214981","0.0-3.0-7.0","true",""
"null","sound/msl/frog.wav","null","audio-keyboard-response","370","215492","0.0-4.0-0.0","",""
"null","sound/msl/clock.wav","null","audio-keyboard-response","371","216042","0.0-4.0-1.0","",""
"null","sound/msl/organ.wav","null","audio-keyboard-response","372","216542","0.0-4.0-2.0","",""
"null","sound/asl/silence.wav","null","audio-keyboard-response","373","217045","0.0-4.0-3.0","",""
"null","sound/msl/ding.wav","null","audio-keyboard-response","374","217543","0.0-4.0-4.0","",""
"null","sound/msl/door.wav","null","audio-keyboard-response","375","218043","0.0-4.0-5.0","",""
"null","sound/msl/organ.wav","null","audio-keyboard-response","376","218542","0.0-4.0-6.0","",""
"1069","sound/asl/silence.wav","49","audio-keyboard-response","377","219614","0.0-4.0-7.0","false",""
"null","sound/msl/ding.wav","null","audio-keyboard-response","378","220113","0.0-5.0-0.0","",""
"null","sound/msl/door_bell.wav","null","audio-keyboard-response","379","220623","0.0-5.0-1.0","",""
"null","sound/msl/goat.wav","null","audio-keyboard-response","380","221162","0.0-5.0-2.0","",""
"null","sound/asl/silence.wav","null","audio-keyboard-response","381","221666","0.0-5.0-3.0","",""
"null","sound/msl/bird.wav","null","audio-keyboard-response","382","222173","0.0-5.0-4.0","",""
"null","sound/msl/Water.wav","null","audio-keyboard-response","383","222683","0.0-5.0-5.0","",""
"null","sound/msl/goat.wav","null","audio-keyboard-response","384","223223","0.0-5.0-6.0","",""
"1000","sound/asl/silence.wav","50","audio-keyboard-response","385","224228","0.0-5.0-7.0","true",""
"null","sound/msl/duck.wav","null","audio-keyboard-response","386","224733","0.0-6.0-0.0","",""
"null","sound/msl/Water.wav","null","audio-keyboard-response","387","225244","0.0-6.0-1.0","",""
"null","sound/msl/dog.wav","null","audio-keyboard-response","388","225743","0.0-6.0-2.0","",""
"null","sound/asl/silence.wav","null","audio-keyboard-response","389","226246","0.0-6.0-3.0","",""
"null","sound/msl/frog.wav","null","audio-keyboard-response","390","226743","0.0-6.0-4.0","",""
"null","sound/msl/slide_whistle.wav","null","audio-keyboard-response","391","227244","0.0-6.0-5.0","",""
"null","sound/msl/dog.wav","null","audio-keyboard-response","392","227744","0.0-6.0-6.0","",""
"1280","sound/asl/silence.wav","49","audio-keyboard-response","393","229032","0.0-6.0-7.0","false",""
"null","sound/msl/boing.wav","null","audio-keyboard-response","394","229525","0.0-7.0-0.0","",""
"null","sound/msl/door.wav","null","audio-keyboard-response","395","230024","0.0-7.0-1.0","",""
"null","sound/msl/cat.wav","null","audio-keyboard-response","396","230524","0.0-7.0-2.0","",""
"null","sound/asl/silence.wav","null","audio-keyboard-response","397","231026","0.0-7.0-3.0","",""
"null","sound/msl/boing.wav","null","audio-keyboard-response","398","231524","0.0-7.0-4.0","",""
"null","sound/msl/clock.wav","null","audio-keyboard-response","399","232074","0.0-7.0-5.0","",""
"null","sound/msl/cow.wav","null","audio-keyboard-response","400","232584","0.0-7.0-6.0","",""
"1229","sound/asl/silence.wav","50","audio-keyboard-response","401","233818","0.0-7.0-7.0","true",""
"null","sound/msl/bird.wav","null","audio-keyboard-response","402","234315","0.0-8.0-0.0","",""
"null","sound/msl/slide_whistle.wav","null","audio-keyboard-response","403","234815","0.0-8.0-1.0","",""
"null","sound/msl/cow.wav","null","audio-keyboard-response","404","235315","0.0-8.0-2.0","",""
"null","sound/asl/silence.wav","null","audio-keyboard-response","405","235817","0.0-8.0-3.0","",""
"null","sound/msl/ding.wav","null","audio-keyboard-response","406","236316","0.0-8.0-4.0","",""
"null","sound/msl/door.wav","null","audio-keyboard-response","407","236815","0.0-8.0-5.0","",""
"null","sound/msl/organ.wav","null","audio-keyboard-response","408","237316","0.0-8.0-6.0","",""
"589","sound/asl/silence.wav","50","audio-keyboard-response","409","237906","0.0-8.0-7.0","true",""
"null","sound/msl/ding.wav","null","audio-keyboard-response","410","238415","0.0-9.0-0.0","",""
"null","sound/msl/door.wav","null","audio-keyboard-response","411","238915","0.0-9.0-1.0","",""
"null","sound/msl/organ.wav","null","audio-keyboard-response","412","239415","0.0-9.0-2.0","",""
"null","sound/asl/silence.wav","null","audio-keyboard-response","413","239916","0.0-9.0-3.0","",""
"null","sound/msl/boing.wav","null","audio-keyboard-response","414","240416","0.0-9.0-4.0","",""
"null","sound/msl/door.wav","null","audio-keyboard-response","415","240915","0.0-9.0-5.0","",""
"null","sound/msl/cat.wav","null","audio-keyboard-response","416","241416","0.0-9.0-6.0","",""
"1581","sound/asl/silence.wav","49","audio-keyboard-response","417","243000","0.0-9.0-7.0","true",""
"null","sound/msl/duck.wav","null","audio-keyboard-response","418","243506","0.0-10.0-0.0","",""
"null","sound/msl/Water.wav","null","audio-keyboard-response","419","244016","0.0-10.0-1.0","",""
"null","sound/msl/dog.wav","null","audio-keyboard-response","420","244511","0.0-10.0-2.0","",""
"null","sound/asl/silence.wav","null","audio-keyboard-response","421","245013","0.0-10.0-3.0","",""
"null","sound/msl/boing.wav","null","audio-keyboard-response","422","245511","0.0-10.0-4.0","",""
"null","sound/msl/clock.wav","null","audio-keyboard-response","423","246062","0.0-10.0-5.0","",""
"null","sound/msl/cow.wav","null","audio-keyboard-response","424","246571","0.0-10.0-6.0","",""
"651","sound/asl/silence.wav","50","audio-keyboard-response","425","247222","0.0-10.0-7.0","true",""
"null","sound/msl/duck.wav","null","audio-keyboard-response","426","247731","0.0-11.0-0.0","",""
"null","sound/msl/door_bell.wav","null","audio-keyboard-response","427","248232","0.0-11.0-1.0","",""
"null","sound/msl/cat.wav","null","audio-keyboard-response","428","248732","0.0-11.0-2.0","",""
"null","sound/asl/silence.wav","null","audio-keyboard-response","429","249233","0.0-11.0-3.0","",""
"null","sound/msl/boing.wav","null","audio-keyboard-response","430","249731","0.0-11.0-4.0","",""
"null","sound/msl/door.wav","null","audio-keyboard-response","431","250232","0.0-11.0-5.0","",""
"null","sound/msl/cat.wav","null","audio-keyboard-response","432","250732","0.0-11.0-6.0","",""
"867","sound/asl/silence.wav","49","audio-keyboard-response","433","251601","0.0-11.0-7.0","true",""
"null","sound/msl/ding.wav","null","audio-keyboard-response","434","252102","0.0-12.0-0.0","",""
"null","sound/msl/door.wav","null","audio-keyboard-response","435","252602","0.0-12.0-1.0","",""
"null","sound/msl/organ.wav","null","audio-keyboard-response","436","253102","0.0-12.0-2.0","",""
"null","sound/asl/silence.wav","null","audio-keyboard-response","437","253604","0.0-12.0-3.0","",""
"null","sound/msl/duck.wav","null","audio-keyboard-response","438","254102","0.0-12.0-4.0","",""
"null","sound/msl/Water.wav","null","audio-keyboard-response","439","254612","0.0-12.0-5.0","",""
"null","sound/msl/dog.wav","null","audio-keyboard-response","440","255112","0.0-12.0-6.0","",""
"1579","sound/asl/silence.wav","50","audio-keyboard-response","441","256702","0.0-12.0-7.0","false",""
"null","sound/msl/ding.wav","null","audio-keyboard-response","442","257213","0.0-13.0-0.0","",""
"null","sound/msl/door.wav","null","audio-keyboard-response","443","257713","0.0-13.0-1.0","",""
"null","sound/msl/organ.wav","null","audio-keyboard-response","444","258213","0.0-13.0-2.0","",""
"null","sound/asl/silence.wav","null","audio-keyboard-response","445","258714","0.0-13.0-3.0","",""
"null","sound/msl/ding.wav","null","audio-keyboard-response","446","259223","0.0-13.0-4.0","",""
"null","sound/msl/door_bell.wav","null","audio-keyboard-response","447","259733","0.0-13.0-5.0","",""
"null","sound/msl/goat.wav","null","audio-keyboard-response","448","260273","0.0-13.0-6.0","",""
"579","sound/asl/silence.wav","49","audio-keyboard-response","449","260855","0.0-13.0-7.0","true",""
"null","sound/msl/frog.wav","null","audio-keyboard-response","450","261353","0.0-14.0-0.0","",""
"null","sound/msl/slide_whistle.wav","null","audio-keyboard-response","451","261853","0.0-14.0-1.0","",""
"null","sound/msl/dog.wav","null","audio-keyboard-response","452","262354","0.0-14.0-2.0","",""
"null","sound/asl/silence.wav","null","audio-keyboard-response","453","262855","0.0-14.0-3.0","",""
"null","sound/msl/bird.wav","null","audio-keyboard-response","454","263354","0.0-14.0-4.0","",""
"null","sound/msl/slide_whistle.wav","null","audio-keyboard-response","455","263854","0.0-14.0-5.0","",""
"null","sound/msl/cow.wav","null","audio-keyboard-response","456","264354","0.0-14.0-6.0","",""
"1339","sound/asl/silence.wav","50","audio-keyboard-response","457","265695","0.0-14.0-7.0","false",""
"null","sound/msl/boing.wav","null","audio-keyboard-response","458","266194","0.0-15.0-0.0","",""
"null","sound/msl/door.wav","null","audio-keyboard-response","459","266694","0.0-15.0-1.0","",""
"null","sound/msl/cat.wav","null","audio-keyboard-response","460","267194","0.0-15.0-2.0","",""
"null","sound/asl/silence.wav","null","audio-keyboard-response","461","267695","0.0-15.0-3.0","",""
"null","sound/msl/frog.wav","null","audio-keyboard-response","462","268194","0.0-15.0-4.0","",""
"null","sound/msl/slide_whistle.wav","null","audio-keyboard-response","463","268694","0.0-15.0-5.0","",""
"null","sound/msl/dog.wav","null","audio-keyboard-response","464","269195","0.0-15.0-6.0","",""
"1019","sound/asl/silence.wav","50","audio-keyboard-response","465","270222","0.0-15.0-7.0","true",""
"null","sound/msl/boing.wav","null","audio-keyboard-response","466","270714","0.0-16.0-0.0","",""
"null","sound/msl/clock.wav","null","audio-keyboard-response","467","271265","0.0-16.0-1.0","",""
"null","sound/msl/cow.wav","null","audio-keyboard-response","468","271775","0.0-16.0-2.0","",""
"null","sound/asl/silence.wav","null","audio-keyboard-response","469","272276","0.0-16.0-3.0","",""
"null","sound/msl/frog.wav","null","audio-keyboard-response","470","272785","0.0-16.0-4.0","",""
"null","sound/msl/clock.wav","null","audio-keyboard-response","471","273335","0.0-16.0-5.0","",""
"null","sound/msl/organ.wav","null","audio-keyboard-response","472","273835","0.0-16.0-6.0","",""
"979","sound/asl/silence.wav","49","audio-keyboard-response","473","274817","0.0-16.0-7.0","true",""
"null","sound/msl/boing.wav","null","audio-keyboard-response","474","275315","0.0-17.0-0.0","",""
"null","sound/msl/clock.wav","null","audio-keyboard-response","475","275865","0.0-17.0-1.0","",""
"null","sound/msl/cow.wav","null","audio-keyboard-response","476","276376","0.0-17.0-2.0","",""
"null","sound/asl/silence.wav","null","audio-keyboard-response","477","276877","0.0-17.0-3.0","",""
"null","sound/msl/bird.wav","null","audio-keyboard-response","478","277386","0.0-17.0-4.0","",""
"null","sound/msl/slide_whistle.wav","null","audio-keyboard-response","479","277886","0.0-17.0-5.0","",""
"null","sound/msl/cow.wav","null","audio-keyboard-response","480","278386","0.0-17.0-6.0","",""
"800","sound/asl/silence.wav","49","audio-keyboard-response","481","279188","0.0-17.0-7.0","true",""
"null","sound/msl/frog.wav","null","audio-keyboard-response","482","279696","0.0-18.0-0.0","",""
"null","sound/msl/slide_whistle.wav","null","audio-keyboard-response","483","280196","0.0-18.0-1.0","",""
"null","sound/msl/dog.wav","null","audio-keyboard-response","484","280706","0.0-18.0-2.0","",""
"null","sound/asl/silence.wav","null","audio-keyboard-response","485","281209","0.0-18.0-3.0","",""
"null","sound/msl/frog.wav","null","audio-keyboard-response","486","281706","0.0-18.0-4.0","",""
"null","sound/msl/clock.wav","null","audio-keyboard-response","487","282256","0.0-18.0-5.0","",""
"null","sound/msl/organ.wav","null","audio-keyboard-response","488","282756","0.0-18.0-6.0","",""
"600","sound/asl/silence.wav","50","audio-keyboard-response","489","283356","0.0-18.0-7.0","false",""
"null","sound/msl/frog.wav","null","audio-keyboard-response","490","283866","0.0-19.0-0.0","",""
"null","sound/msl/slide_whistle.wav","null","audio-keyboard-response","491","284366","0.0-19.0-1.0","",""
"null","sound/msl/dog.wav","null","audio-keyboard-response","492","284866","0.0-19.0-2.0","",""
"null","sound/asl/silence.wav","null","audio-keyboard-response","493","285369","0.0-19.0-3.0","",""
"null","sound/msl/ding.wav","null","audio-keyboard-response","494","285861","0.0-19.0-4.0","",""
"null","sound/msl/door_bell.wav","null","audio-keyboard-response","495","286372","0.0-19.0-5.0","",""
"null","sound/msl/goat.wav","null","audio-keyboard-response","496","286912","0.0-19.0-6.0","",""
"848","sound/asl/silence.wav","50","audio-keyboard-response","497","287767","0.0-19.0-7.0","false",""
"null","sound/msl/boing.wav","null","audio-keyboard-response","498","288262","0.0-20.0-0.0","",""
"null","sound/msl/door.wav","null","audio-keyboard-response","499","288762","0.0-20.0-1.0","",""
"null","sound/msl/cat.wav","null","audio-keyboard-response","500","289262","0.0-20.0-2.0","",""
"null","sound/asl/silence.wav","null","audio-keyboard-response","501","289764","0.0-20.0-3.0","",""
"null","sound/msl/bird.wav","null","audio-keyboard-response","502","290262","0.0-20.0-4.0","",""
"null","sound/msl/Water.wav","null","audio-keyboard-response","503","290772","0.0-20.0-5.0","",""
"null","sound/msl/goat.wav","null","audio-keyboard-response","504","291312","0.0-20.0-6.0","",""
"1419","sound/asl/silence.wav","49","audio-keyboard-response","505","292741","0.0-20.0-7.0","false",""
"null","sound/msl/duck.wav","null","audio-keyboard-response","506","293233","0.0-21.0-0.0","",""
"null","sound/msl/door_bell.wav","null","audio-keyboard-response","507","293742","0.0-21.0-1.0","",""
"null","sound/msl/cat.wav","null","audio-keyboard-response","508","294244","0.0-21.0-2.0","",""
"null","sound/asl/silence.wav","null","audio-keyboard-response","509","294744","0.0-21.0-3.0","",""
"null","sound/msl/frog.wav","null","audio-keyboard-response","510","295253","0.0-21.0-4.0","",""
"null","sound/msl/clock.wav","null","audio-keyboard-response","511","295803","0.0-21.0-5.0","",""
"null","sound/msl/organ.wav","null","audio-keyboard-response","512","296302","0.0-21.0-6.0","",""
"979","sound/asl/silence.wav","50","audio-keyboard-response","513","297284","0.0-21.0-7.0","false",""
"null","sound/msl/ding.wav","null","audio-keyboard-response","514","297783","0.0-22.0-0.0","",""
"null","sound/msl/door_bell.wav","null","audio-keyboard-response","515","298293","0.0-22.0-1.0","",""
"null","sound/msl/goat.wav","null","audio-keyboard-response","516","298834","0.0-22.0-2.0","",""
"null","sound/asl/silence.wav","null","audio-keyboard-response","517","299335","0.0-22.0-3.0","",""
"null","sound/msl/boing.wav","null","audio-keyboard-response","518","299833","0.0-22.0-4.0","",""
"null","sound/msl/clock.wav","null","audio-keyboard-response","519","300384","0.0-22.0-5.0","",""
"null","sound/msl/cow.wav","null","audio-keyboard-response","520","300894","0.0-22.0-6.0","",""
"520","sound/asl/silence.wav","50","audio-keyboard-response","521","301413","0.0-22.0-7.0","true",""
"null","sound/msl/ding.wav","null","audio-keyboard-response","522","301914","0.0-23.0-0.0","",""
"null","sound/msl/door_bell.wav","null","audio-keyboard-response","523","302424","0.0-23.0-1.0","",""
"null","sound/msl/goat.wav","null","audio-keyboard-response","524","302963","0.0-23.0-2.0","",""
"null","sound/asl/silence.wav","null","audio-keyboard-response","525","303465","0.0-23.0-3.0","",""
"null","sound/msl/duck.wav","null","audio-keyboard-response","526","303974","0.0-23.0-4.0","",""
"null","sound/msl/door_bell.wav","null","audio-keyboard-response","527","304474","0.0-23.0-5.0","",""
"null","sound/msl/cat.wav","null","audio-keyboard-response","528","304975","0.0-23.0-6.0","",""
"709","sound/asl/silence.wav","49","audio-keyboard-response","529","305684","0.0-23.0-7.0","false",""
"null","sound/msl/bird.wav","null","audio-keyboard-response","530","306184","0.0-24.0-0.0","",""
"null","sound/msl/slide_whistle.wav","null","audio-keyboard-response","531","306684","0.0-24.0-1.0","",""
"null","sound/msl/cow.wav","null","audio-keyboard-response","532","307185","0.0-24.0-2.0","",""
"null","sound/asl/silence.wav","null","audio-keyboard-response","533","307687","0.0-24.0-3.0","",""
"null","sound/msl/duck.wav","null","audio-keyboard-response","534","308185","0.0-24.0-4.0","",""
"null","sound/msl/door_bell.wav","null","audio-keyboard-response","535","308695","0.0-24.0-5.0","",""
"null","sound/msl/cat.wav","null","audio-keyboard-response","536","309195","0.0-24.0-6.0","",""
"520","sound/asl/silence.wav","49","audio-keyboard-response","537","309723","0.0-24.0-7.0","false",""
"null","sound/msl/bird.wav","null","audio-keyboard-response","538","310225","0.0-25.0-0.0","",""
"null","sound/msl/Water.wav","null","audio-keyboard-response","539","310735","0.0-25.0-1.0","",""
"null","sound/msl/goat.wav","null","audio-keyboard-response","540","311275","0.0-25.0-2.0","",""
"null","sound/asl/silence.wav","null","audio-keyboard-response","541","311777","0.0-25.0-3.0","",""
"null","sound/msl/bird.wav","null","audio-keyboard-response","542","312275","0.0-25.0-4.0","",""
"null","sound/msl/slide_whistle.wav","null","audio-keyboard-response","543","312775","0.0-25.0-5.0","",""
"null","sound/msl/cow.wav","null","audio-keyboard-response","544","313276","0.0-25.0-6.0","",""
"568","sound/asl/silence.wav","50","audio-keyboard-response","545","313852","0.0-25.0-7.0","false",""
"null","sound/msl/bird.wav","null","audio-keyboard-response","546","314345","0.0-26.0-0.0","",""
"null","sound/msl/Water.wav","null","audio-keyboard-response","547","314856","0.0-26.0-1.0","",""
"null","sound/msl/goat.wav","null","audio-keyboard-response","548","315396","0.0-26.0-2.0","",""
"null","sound/asl/silence.wav","null","audio-keyboard-response","549","315897","0.0-26.0-3.0","",""
"null","sound/msl/frog.wav","null","audio-keyboard-response","550","316396","0.0-26.0-4.0","",""
"null","sound/msl/clock.wav","null","audio-keyboard-response","551","316946","0.0-26.0-5.0","",""
"null","sound/msl/organ.wav","null","audio-keyboard-response","552","317446","0.0-26.0-6.0","",""
"851","sound/asl/silence.wav","50","audio-keyboard-response","553","318301","0.0-26.0-7.0","false",""
"null","sound/msl/duck.wav","null","audio-keyboard-response","554","318796","0.0-27.0-0.0","",""
"null","sound/msl/Water.wav","null","audio-keyboard-response","555","319306","0.0-27.0-1.0","",""
"null","sound/msl/dog.wav","null","audio-keyboard-response","556","319816","0.0-27.0-2.0","",""
"null","sound/asl/silence.wav","null","audio-keyboard-response","557","320318","0.0-27.0-3.0","",""
"null","sound/msl/duck.wav","null","audio-keyboard-response","558","320827","0.0-27.0-4.0","",""
"null","sound/msl/door_bell.wav","null","audio-keyboard-response","559","321336","0.0-27.0-5.0","",""
"null","sound/msl/cat.wav","null","audio-keyboard-response","560","321836","0.0-27.0-6.0","",""
"600","sound/asl/silence.wav","50","audio-keyboard-response","561","322442","0.0-27.0-7.0","true",""
"2899","","","instructions","562","325341","0.0-28.0","","[{""page_index"":0,""viewing_time"":2899}]"
