"rt","stimulus","key_press","trial_type","trial_index","time_elapsed","internal_node_id","correct","view_history"
"12431","alien.jpg","49","image-keyboard-response","0","12437","0.0-0.0","",""
"null","sound/msl/boing.wav","null","audio-keyboard-response","1","12944","0.0-1.0-0.0","",""
"null","sound/msl/Water.wav","null","audio-keyboard-response","2","13463","0.0-1.0-1.0","",""
"null","sound/msl/door.wav","null","audio-keyboard-response","3","13973","0.0-1.0-2.0","",""
"null","sound/msl/ding.wav","null","audio-keyboard-response","4","14493","0.0-1.0-3.0","",""
"null","sound/msl/goat.wav","null","audio-keyboard-response","5","15043","0.0-1.0-4.0","",""
"null","sound/msl/slide_whistle.wav","null","audio-keyboard-response","6","15563","0.0-1.0-5.0","",""
"null","sound/msl/dog.wav","null","audio-keyboard-response","7","16083","0.0-1.0-6.0","",""
"null","sound/msl/cow.wav","null","audio-keyboard-response","8","16603","0.0-1.0-7.0","",""
"null","sound/msl/door_bell.wav","null","audio-keyboard-response","9","17124","0.0-1.0-8.0","",""
"null","sound/msl/bird.wav","null","audio-keyboard-response","10","17643","0.0-1.0-9.0","",""
"null","sound/msl/clock.wav","null","audio-keyboard-response","11","18204","0.0-1.0-10.0","",""
"null","sound/msl/organ.wav","null","audio-keyboard-response","12","18713","0.0-1.0-11.0","",""
"null","sound/msl/ding.wav","null","audio-keyboard-response","13","19223","0.0-1.0-12.0","",""
"null","sound/msl/goat.wav","null","audio-keyboard-response","14","19774","0.0-1.0-13.0","",""
"null","sound/msl/slide_whistle.wav","null","audio-keyboard-response","15","20294","0.0-1.0-14.0","",""
"null","sound/msl/boing.wav","null","audio-keyboard-response","16","20803","0.0-1.0-15.0","",""
"null","sound/msl/Water.wav","null","audio-keyboard-response","17","21323","0.0-1.0-16.0","",""
"null","sound/msl/door.wav","null","audio-keyboard-response","18","21833","0.0-1.0-17.0","",""
"null","sound/msl/duck.wav","null","audio-keyboard-response","19","22344","0.0-1.0-18.0","",""
"null","sound/msl/cat.wav","null","audio-keyboard-response","20","22854","0.0-1.0-19.0","",""
"null","sound/msl/frog.wav","null","audio-keyboard-response","21","23374","0.0-1.0-20.0","",""
"null","sound/msl/bird.wav","null","audio-keyboard-response","22","23894","0.0-1.0-21.0","",""
"null","sound/msl/clock.wav","null","audio-keyboard-response","23","24454","0.0-1.0-22.0","",""
"null","sound/msl/organ.wav","null","audio-keyboard-response","24","24964","0.0-1.0-23.0","",""
"null","sound/msl/dog.wav","null","audio-keyboard-response","25","25485","0.0-1.0-24.0","",""
"null","sound/msl/cow.wav","null","audio-keyboard-response","26","26004","0.0-1.0-25.0","",""
"null","sound/msl/door_bell.wav","null","audio-keyboard-response","27","26525","0.0-1.0-26.0","",""
"null","sound/msl/boing.wav","null","audio-keyboard-response","28","27035","0.0-1.0-27.0","",""
"null","sound/msl/Water.wav","null","audio-keyboard-response","29","27555","0.0-1.0-28.0","",""
"null","sound/msl/door.wav","null","audio-keyboard-response","30","28065","0.0-1.0-29.0","",""
"null","sound/msl/ding.wav","null","audio-keyboard-response","31","28575","0.0-1.0-30.0","",""
"null","sound/msl/goat.wav","null","audio-keyboard-response","32","29126","0.0-1.0-31.0","",""
"null","sound/msl/slide_whistle.wav","null","audio-keyboard-response","33","29645","0.0-1.0-32.0","",""
"null","sound/msl/duck.wav","null","audio-keyboard-response","34","30165","0.0-1.0-33.0","",""
"null","sound/msl/cat.wav","null","audio-keyboard-response","35","30675","0.0-1.0-34.0","",""
"null","sound/msl/frog.wav","null","audio-keyboard-response","36","31185","0.0-1.0-35.0","",""
"null","sound/msl/dog.wav","null","audio-keyboard-response","37","31695","0.0-1.0-36.0","",""
"null","sound/msl/cow.wav","null","audio-keyboard-response","38","32216","0.0-1.0-37.0","",""
"null","sound/msl/door_bell.wav","null","audio-keyboard-response","39","32735","0.0-1.0-38.0","",""
"null","sound/msl/bird.wav","null","audio-keyboard-response","40","33251","0.0-1.0-39.0","",""
"null","sound/msl/clock.wav","null","audio-keyboard-response","41","33810","0.0-1.0-40.0","",""
"null","sound/msl/organ.wav","null","audio-keyboard-response","42","34320","0.0-1.0-41.0","",""
"null","sound/msl/duck.wav","null","audio-keyboard-response","43","34841","0.0-1.0-42.0","",""
"null","sound/msl/cat.wav","null","audio-keyboard-response","44","35350","0.0-1.0-43.0","",""
"null","sound/msl/frog.wav","null","audio-keyboard-response","45","35861","0.0-1.0-44.0","",""
"null","sound/msl/ding.wav","null","audio-keyboard-response","46","36371","0.0-1.0-45.0","",""
"null","sound/msl/goat.wav","null","audio-keyboard-response","47","36921","0.0-1.0-46.0","",""
"null","sound/msl/slide_whistle.wav","null","audio-keyboard-response","48","37443","0.0-1.0-47.0","",""
"null","sound/msl/dog.wav","null","audio-keyboard-response","49","37962","0.0-1.0-48.0","",""
"null","sound/msl/cow.wav","null","audio-keyboard-response","50","38482","0.0-1.0-49.0","",""
"null","sound/msl/door_bell.wav","null","audio-keyboard-response","51","39002","0.0-1.0-50.0","",""
"null","sound/msl/boing.wav","null","audio-keyboard-response","52","39512","0.0-1.0-51.0","",""
"null","sound/msl/Water.wav","null","audio-keyboard-response","53","40032","0.0-1.0-52.0","",""
"null","sound/msl/door.wav","null","audio-keyboard-response","54","40541","0.0-1.0-53.0","",""
"null","sound/msl/ding.wav","null","audio-keyboard-response","55","41051","0.0-1.0-54.0","",""
"null","sound/msl/goat.wav","null","audio-keyboard-response","56","41604","0.0-1.0-55.0","",""
"null","sound/msl/slide_whistle.wav","null","audio-keyboard-response","57","42122","0.0-1.0-56.0","",""
"null","sound/msl/dog.wav","null","audio-keyboard-response","58","42643","0.0-1.0-57.0","",""
"null","sound/msl/cow.wav","null","audio-keyboard-response","59","43162","0.0-1.0-58.0","",""
"null","sound/msl/door_bell.wav","null","audio-keyboard-response","60","43682","0.0-1.0-59.0","",""
"null","sound/msl/bird.wav","null","audio-keyboard-response","61","44203","0.0-1.0-60.0","",""
"null","sound/msl/clock.wav","null","audio-keyboard-response","62","44763","0.0-1.0-61.0","",""
"null","sound/msl/organ.wav","null","audio-keyboard-response","63","45273","0.0-1.0-62.0","",""
"null","sound/msl/duck.wav","null","audio-keyboard-response","64","45783","0.0-1.0-63.0","",""
"null","sound/msl/cat.wav","null","audio-keyboard-response","65","46292","0.0-1.0-64.0","",""
"null","sound/msl/frog.wav","null","audio-keyboard-response","66","46814","0.0-1.0-65.0","",""
"null","sound/msl/ding.wav","null","audio-keyboard-response","67","47333","0.0-1.0-66.0","",""
"null","sound/msl/goat.wav","null","audio-keyboard-response","68","47883","0.0-1.0-67.0","",""
"null","sound/msl/slide_whistle.wav","null","audio-keyboard-response","69","48403","0.0-1.0-68.0","",""
"null","sound/msl/boing.wav","null","audio-keyboard-response","70","48912","0.0-1.0-69.0","",""
"null","sound/msl/Water.wav","null","audio-keyboard-response","71","49433","0.0-1.0-70.0","",""
"null","sound/msl/door.wav","null","audio-keyboard-response","72","49943","0.0-1.0-71.0","",""
"null","sound/msl/dog.wav","null","audio-keyboard-response","73","50453","0.0-1.0-72.0","",""
"null","sound/msl/cow.wav","null","audio-keyboard-response","74","50973","0.0-1.0-73.0","",""
"null","sound/msl/door_bell.wav","null","audio-keyboard-response","75","51493","0.0-1.0-74.0","",""
"null","sound/msl/bird.wav","null","audio-keyboard-response","76","52014","0.0-1.0-75.0","",""
"null","sound/msl/clock.wav","null","audio-keyboard-response","77","52574","0.0-1.0-76.0","",""
"null","sound/msl/organ.wav","null","audio-keyboard-response","78","53083","0.0-1.0-77.0","",""
"null","sound/msl/dog.wav","null","audio-keyboard-response","79","53604","0.0-1.0-78.0","",""
"null","sound/msl/cow.wav","null","audio-keyboard-response","80","54123","0.0-1.0-79.0","",""
"null","sound/msl/door_bell.wav","null","audio-keyboard-response","81","54643","0.0-1.0-80.0","",""
"null","sound/msl/duck.wav","null","audio-keyboard-response","82","55164","0.0-1.0-81.0","",""
"null","sound/msl/cat.wav","null","audio-keyboard-response","83","55674","0.0-1.0-82.0","",""
"null","sound/msl/frog.wav","null","audio-keyboard-response","84","56184","0.0-1.0-83.0","",""
"null","sound/msl/boing.wav","null","audio-keyboard-response","85","56694","0.0-1.0-84.0","",""
"null","sound/msl/Water.wav","null","audio-keyboard-response","86","57214","0.0-1.0-85.0","",""
"null","sound/msl/door.wav","null","audio-keyboard-response","87","57724","0.0-1.0-86.0","",""
"null","sound/msl/ding.wav","null","audio-keyboard-response","88","58245","0.0-1.0-87.0","",""
"null","sound/msl/goat.wav","null","audio-keyboard-response","89","58795","0.0-1.0-88.0","",""
"null","sound/msl/slide_whistle.wav","null","audio-keyboard-response","90","59305","0.0-1.0-89.0","",""
"null","sound/msl/duck.wav","null","audio-keyboard-response","91","59814","0.0-1.0-90.0","",""
"null","sound/msl/cat.wav","null","audio-keyboard-response","92","60325","0.0-1.0-91.0","",""
"null","sound/msl/frog.wav","null","audio-keyboard-response","93","60844","0.0-1.0-92.0","",""
"null","sound/msl/bird.wav","null","audio-keyboard-response","94","61365","0.0-1.0-93.0","",""
"null","sound/msl/clock.wav","null","audio-keyboard-response","95","61925","0.0-1.0-94.0","",""
"null","sound/msl/organ.wav","null","audio-keyboard-response","96","62434","0.0-1.0-95.0","",""
"null","sound/msl/dog.wav","null","audio-keyboard-response","97","62945","0.0-1.0-96.0","",""
"null","sound/msl/cow.wav","null","audio-keyboard-response","98","63454","0.0-1.0-97.0","",""
"null","sound/msl/door_bell.wav","null","audio-keyboard-response","99","63975","0.0-1.0-98.0","",""
"null","sound/msl/ding.wav","null","audio-keyboard-response","100","64495","0.0-1.0-99.0","",""
"null","sound/msl/goat.wav","null","audio-keyboard-response","101","65046","0.0-1.0-100.0","",""
"null","sound/msl/slide_whistle.wav","null","audio-keyboard-response","102","65565","0.0-1.0-101.0","",""
"null","sound/msl/duck.wav","null","audio-keyboard-response","103","66085","0.0-1.0-102.0","",""
"null","sound/msl/cat.wav","null","audio-keyboard-response","104","66595","0.0-1.0-103.0","",""
"null","sound/msl/frog.wav","null","audio-keyboard-response","105","67106","0.0-1.0-104.0","",""
"null","sound/msl/boing.wav","null","audio-keyboard-response","106","67616","0.0-1.0-105.0","",""
"null","sound/msl/Water.wav","null","audio-keyboard-response","107","68136","0.0-1.0-106.0","",""
"null","sound/msl/door.wav","null","audio-keyboard-response","108","68646","0.0-1.0-107.0","",""
"null","sound/msl/ding.wav","null","audio-keyboard-response","109","69165","0.0-1.0-108.0","",""
"null","sound/msl/goat.wav","null","audio-keyboard-response","110","69715","0.0-1.0-109.0","",""
"null","sound/msl/slide_whistle.wav","null","audio-keyboard-response","111","70226","0.0-1.0-110.0","",""
"null","sound/msl/bird.wav","null","audio-keyboard-response","112","70736","0.0-1.0-111.0","",""
"null","sound/msl/clock.wav","null","audio-keyboard-response","113","71295","0.0-1.0-112.0","",""
"null","sound/msl/organ.wav","null","audio-keyboard-response","114","71806","0.0-1.0-113.0","",""
"null","sound/msl/duck.wav","null","audio-keyboard-response","115","72326","0.0-1.0-114.0","",""
"null","sound/msl/cat.wav","null","audio-keyboard-response","116","72836","0.0-1.0-115.0","",""
"null","sound/msl/frog.wav","null","audio-keyboard-response","117","73346","0.0-1.0-116.0","",""
"null","sound/msl/dog.wav","null","audio-keyboard-response","118","73851","0.0-1.0-117.0","",""
"null","sound/msl/cow.wav","null","audio-keyboard-response","119","74371","0.0-1.0-118.0","",""
"null","sound/msl/door_bell.wav","null","audio-keyboard-response","120","74891","0.0-1.0-119.0","",""
"null","sound/msl/boing.wav","null","audio-keyboard-response","121","75402","0.0-1.0-120.0","",""
"null","sound/msl/Water.wav","null","audio-keyboard-response","122","75922","0.0-1.0-121.0","",""
"null","sound/msl/door.wav","null","audio-keyboard-response","123","76431","0.0-1.0-122.0","",""
"null","sound/msl/ding.wav","null","audio-keyboard-response","124","76942","0.0-1.0-123.0","",""
"null","sound/msl/goat.wav","null","audio-keyboard-response","125","77492","0.0-1.0-124.0","",""
"null","sound/msl/slide_whistle.wav","null","audio-keyboard-response","126","78012","0.0-1.0-125.0","",""
"null","sound/msl/duck.wav","null","audio-keyboard-response","127","78532","0.0-1.0-126.0","",""
"null","sound/msl/cat.wav","null","audio-keyboard-response","128","79042","0.0-1.0-127.0","",""
"null","sound/msl/frog.wav","null","audio-keyboard-response","129","79562","0.0-1.0-128.0","",""
"null","sound/msl/bird.wav","null","audio-keyboard-response","130","80083","0.0-1.0-129.0","",""
"null","sound/msl/clock.wav","null","audio-keyboard-response","131","80642","0.0-1.0-130.0","",""
"null","sound/msl/organ.wav","null","audio-keyboard-response","132","81153","0.0-1.0-131.0","",""
"null","sound/msl/ding.wav","null","audio-keyboard-response","133","81662","0.0-1.0-132.0","",""
"null","sound/msl/goat.wav","null","audio-keyboard-response","134","82212","0.0-1.0-133.0","",""
"null","sound/msl/slide_whistle.wav","null","audio-keyboard-response","135","82732","0.0-1.0-134.0","",""
"null","sound/msl/dog.wav","null","audio-keyboard-response","136","83253","0.0-1.0-135.0","",""
"null","sound/msl/cow.wav","null","audio-keyboard-response","137","83773","0.0-1.0-136.0","",""
"null","sound/msl/door_bell.wav","null","audio-keyboard-response","138","84292","0.0-1.0-137.0","",""
"null","sound/msl/bird.wav","null","audio-keyboard-response","139","84813","0.0-1.0-138.0","",""
"null","sound/msl/clock.wav","null","audio-keyboard-response","140","85372","0.0-1.0-139.0","",""
"null","sound/msl/organ.wav","null","audio-keyboard-response","141","85883","0.0-1.0-140.0","",""
"null","sound/msl/boing.wav","null","audio-keyboard-response","142","86393","0.0-1.0-141.0","",""
"null","sound/msl/Water.wav","null","audio-keyboard-response","143","86913","0.0-1.0-142.0","",""
"null","sound/msl/door.wav","null","audio-keyboard-response","144","87423","0.0-1.0-143.0","",""
"null","sound/msl/duck.wav","null","audio-keyboard-response","145","87933","0.0-1.0-144.0","",""
"null","sound/msl/cat.wav","null","audio-keyboard-response","146","88443","0.0-1.0-145.0","",""
"null","sound/msl/frog.wav","null","audio-keyboard-response","147","88963","0.0-1.0-146.0","",""
"null","sound/msl/dog.wav","null","audio-keyboard-response","148","89483","0.0-1.0-147.0","",""
"null","sound/msl/cow.wav","null","audio-keyboard-response","149","90004","0.0-1.0-148.0","",""
"null","sound/msl/door_bell.wav","null","audio-keyboard-response","150","90524","0.0-1.0-149.0","",""
"null","sound/msl/boing.wav","null","audio-keyboard-response","151","91034","0.0-1.0-150.0","",""
"null","sound/msl/Water.wav","null","audio-keyboard-response","152","91553","0.0-1.0-151.0","",""
"null","sound/msl/door.wav","null","audio-keyboard-response","153","92063","0.0-1.0-152.0","",""
"null","sound/msl/ding.wav","null","audio-keyboard-response","154","92574","0.0-1.0-153.0","",""
"null","sound/msl/goat.wav","null","audio-keyboard-response","155","93124","0.0-1.0-154.0","",""
"null","sound/msl/slide_whistle.wav","null","audio-keyboard-response","156","93644","0.0-1.0-155.0","",""
"null","sound/msl/bird.wav","null","audio-keyboard-response","157","94164","0.0-1.0-156.0","",""
"null","sound/msl/clock.wav","null","audio-keyboard-response","158","94724","0.0-1.0-157.0","",""
"null","sound/msl/organ.wav","null","audio-keyboard-response","159","95234","0.0-1.0-158.0","",""
"null","sound/msl/duck.wav","null","audio-keyboard-response","160","95744","0.0-1.0-159.0","",""
"null","sound/msl/cat.wav","null","audio-keyboard-response","161","96255","0.0-1.0-160.0","",""
"null","sound/msl/frog.wav","null","audio-keyboard-response","162","96774","0.0-1.0-161.0","",""
"null","sound/msl/ding.wav","null","audio-keyboard-response","163","97295","0.0-1.0-162.0","",""
"null","sound/msl/goat.wav","null","audio-keyboard-response","164","97845","0.0-1.0-163.0","",""
"null","sound/msl/slide_whistle.wav","null","audio-keyboard-response","165","98364","0.0-1.0-164.0","",""
"null","sound/msl/bird.wav","null","audio-keyboard-response","166","98885","0.0-1.0-165.0","",""
"null","sound/msl/clock.wav","null","audio-keyboard-response","167","99445","0.0-1.0-166.0","",""
"null","sound/msl/organ.wav","null","audio-keyboard-response","168","99955","0.0-1.0-167.0","",""
"null","sound/msl/boing.wav","null","audio-keyboard-response","169","100465","0.0-1.0-168.0","",""
"null","sound/msl/Water.wav","null","audio-keyboard-response","170","100985","0.0-1.0-169.0","",""
"null","sound/msl/door.wav","null","audio-keyboard-response","171","101497","0.0-1.0-170.0","",""
"null","sound/msl/dog.wav","null","audio-keyboard-response","172","102016","0.0-1.0-171.0","",""
"null","sound/msl/cow.wav","null","audio-keyboard-response","173","102535","0.0-1.0-172.0","",""
"null","sound/msl/door_bell.wav","null","audio-keyboard-response","174","103056","0.0-1.0-173.0","",""
"null","sound/msl/duck.wav","null","audio-keyboard-response","175","103575","0.0-1.0-174.0","",""
"null","sound/msl/cat.wav","null","audio-keyboard-response","176","104086","0.0-1.0-175.0","",""
"null","sound/msl/frog.wav","null","audio-keyboard-response","177","104606","0.0-1.0-176.0","",""
"null","sound/msl/ding.wav","null","audio-keyboard-response","178","105125","0.0-1.0-177.0","",""
"null","sound/msl/goat.wav","null","audio-keyboard-response","179","105676","0.0-1.0-178.0","",""
"null","sound/msl/slide_whistle.wav","null","audio-keyboard-response","180","106186","0.0-1.0-179.0","",""
"null","sound/msl/dog.wav","null","audio-keyboard-response","181","106696","0.0-1.0-180.0","",""
"null","sound/msl/cow.wav","null","audio-keyboard-response","182","107216","0.0-1.0-181.0","",""
"null","sound/msl/door_bell.wav","null","audio-keyboard-response","183","107736","0.0-1.0-182.0","",""
"null","sound/msl/bird.wav","null","audio-keyboard-response","184","108256","0.0-1.0-183.0","",""
"null","sound/msl/clock.wav","null","audio-keyboard-response","185","108816","0.0-1.0-184.0","",""
"null","sound/msl/organ.wav","null","audio-keyboard-response","186","109326","0.0-1.0-185.0","",""
"null","sound/msl/boing.wav","null","audio-keyboard-response","187","109836","0.0-1.0-186.0","",""
"null","sound/msl/Water.wav","null","audio-keyboard-response","188","110356","0.0-1.0-187.0","",""
"null","sound/msl/door.wav","null","audio-keyboard-response","189","110867","0.0-1.0-188.0","",""
"null","sound/msl/duck.wav","null","audio-keyboard-response","190","111377","0.0-1.0-189.0","",""
"null","sound/msl/cat.wav","null","audio-keyboard-response","191","111887","0.0-1.0-190.0","",""
"null","sound/msl/frog.wav","null","audio-keyboard-response","192","112407","0.0-1.0-191.0","",""
"null","sound/msl/ding.wav","null","audio-keyboard-response","193","112927","0.0-1.0-192.0","",""
"null","sound/msl/goat.wav","null","audio-keyboard-response","194","113477","0.0-1.0-193.0","",""
"null","sound/msl/slide_whistle.wav","null","audio-keyboard-response","195","113987","0.0-1.0-194.0","",""
"null","sound/msl/dog.wav","null","audio-keyboard-response","196","114496","0.0-1.0-195.0","",""
"null","sound/msl/cow.wav","null","audio-keyboard-response","197","115012","0.0-1.0-196.0","",""
"null","sound/msl/door_bell.wav","null","audio-keyboard-response","198","115532","0.0-1.0-197.0","",""
"null","sound/msl/boing.wav","null","audio-keyboard-response","199","116042","0.0-1.0-198.0","",""
"null","sound/msl/Water.wav","null","audio-keyboard-response","200","116562","0.0-1.0-199.0","",""
"null","sound/msl/door.wav","null","audio-keyboard-response","201","117072","0.0-1.0-200.0","",""
"null","sound/msl/bird.wav","null","audio-keyboard-response","202","117582","0.0-1.0-201.0","",""
"null","sound/msl/clock.wav","null","audio-keyboard-response","203","118143","0.0-1.0-202.0","",""
"null","sound/msl/organ.wav","null","audio-keyboard-response","204","118652","0.0-1.0-203.0","",""
"null","sound/msl/duck.wav","null","audio-keyboard-response","205","119173","0.0-1.0-204.0","",""
"null","sound/msl/cat.wav","null","audio-keyboard-response","206","119683","0.0-1.0-205.0","",""
"null","sound/msl/frog.wav","null","audio-keyboard-response","207","120203","0.0-1.0-206.0","",""
"null","sound/msl/ding.wav","null","audio-keyboard-response","208","120722","0.0-1.0-207.0","",""
"null","sound/msl/goat.wav","null","audio-keyboard-response","209","121273","0.0-1.0-208.0","",""
"null","sound/msl/slide_whistle.wav","null","audio-keyboard-response","210","121783","0.0-1.0-209.0","",""
"null","sound/msl/boing.wav","null","audio-keyboard-response","211","122293","0.0-1.0-210.0","",""
"null","sound/msl/Water.wav","null","audio-keyboard-response","212","122813","0.0-1.0-211.0","",""
"null","sound/msl/door.wav","null","audio-keyboard-response","213","123323","0.0-1.0-212.0","",""
"null","sound/msl/duck.wav","null","audio-keyboard-response","214","123843","0.0-1.0-213.0","",""
"null","sound/msl/cat.wav","null","audio-keyboard-response","215","124353","0.0-1.0-214.0","",""
"null","sound/msl/frog.wav","null","audio-keyboard-response","216","124863","0.0-1.0-215.0","",""
"null","sound/msl/dog.wav","null","audio-keyboard-response","217","125373","0.0-1.0-216.0","",""
"null","sound/msl/cow.wav","null","audio-keyboard-response","218","125894","0.0-1.0-217.0","",""
"null","sound/msl/door_bell.wav","null","audio-keyboard-response","219","126413","0.0-1.0-218.0","",""
"null","sound/msl/bird.wav","null","audio-keyboard-response","220","126934","0.0-1.0-219.0","",""
"null","sound/msl/clock.wav","null","audio-keyboard-response","221","127494","0.0-1.0-220.0","",""
"null","sound/msl/organ.wav","null","audio-keyboard-response","222","128004","0.0-1.0-221.0","",""
"null","sound/msl/ding.wav","null","audio-keyboard-response","223","128524","0.0-1.0-222.0","",""
"null","sound/msl/goat.wav","null","audio-keyboard-response","224","129074","0.0-1.0-223.0","",""
"null","sound/msl/slide_whistle.wav","null","audio-keyboard-response","225","129584","0.0-1.0-224.0","",""
"null","sound/msl/dog.wav","null","audio-keyboard-response","226","130094","0.0-1.0-225.0","",""
"null","sound/msl/cow.wav","null","audio-keyboard-response","227","130614","0.0-1.0-226.0","",""
"null","sound/msl/door_bell.wav","null","audio-keyboard-response","228","131134","0.0-1.0-227.0","",""
"null","sound/msl/duck.wav","null","audio-keyboard-response","229","131654","0.0-1.0-228.0","",""
"null","sound/msl/cat.wav","null","audio-keyboard-response","230","132164","0.0-1.0-229.0","",""
"null","sound/msl/frog.wav","null","audio-keyboard-response","231","132684","0.0-1.0-230.0","",""
"null","sound/msl/dog.wav","null","audio-keyboard-response","232","133204","0.0-1.0-231.0","",""
"null","sound/msl/cow.wav","null","audio-keyboard-response","233","133724","0.0-1.0-232.0","",""
"null","sound/msl/door_bell.wav","null","audio-keyboard-response","234","134245","0.0-1.0-233.0","",""
"null","sound/msl/ding.wav","null","audio-keyboard-response","235","134765","0.0-1.0-234.0","",""
"null","sound/msl/goat.wav","null","audio-keyboard-response","236","135315","0.0-1.0-235.0","",""
"null","sound/msl/slide_whistle.wav","null","audio-keyboard-response","237","135825","0.0-1.0-236.0","",""
"null","sound/msl/bird.wav","null","audio-keyboard-response","238","136335","0.0-1.0-237.0","",""
"null","sound/msl/clock.wav","null","audio-keyboard-response","239","136895","0.0-1.0-238.0","",""
"null","sound/msl/organ.wav","null","audio-keyboard-response","240","137405","0.0-1.0-239.0","",""
"null","sound/msl/boing.wav","null","audio-keyboard-response","241","137915","0.0-1.0-240.0","",""
"null","sound/msl/Water.wav","null","audio-keyboard-response","242","138435","0.0-1.0-241.0","",""
"null","sound/msl/door.wav","null","audio-keyboard-response","243","138946","0.0-1.0-242.0","",""
"null","sound/msl/duck.wav","null","audio-keyboard-response","244","139455","0.0-1.0-243.0","",""
"null","sound/msl/cat.wav","null","audio-keyboard-response","245","139966","0.0-1.0-244.0","",""
"null","sound/msl/frog.wav","null","audio-keyboard-response","246","140486","0.0-1.0-245.0","",""
"null","sound/msl/ding.wav","null","audio-keyboard-response","247","141006","0.0-1.0-246.0","",""
"null","sound/msl/goat.wav","null","audio-keyboard-response","248","141556","0.0-1.0-247.0","",""
"null","sound/msl/slide_whistle.wav","null","audio-keyboard-response","249","142066","0.0-1.0-248.0","",""
"null","sound/msl/bird.wav","null","audio-keyboard-response","250","142576","0.0-1.0-249.0","",""
"null","sound/msl/clock.wav","null","audio-keyboard-response","251","143136","0.0-1.0-250.0","",""
"null","sound/msl/organ.wav","null","audio-keyboard-response","252","143646","0.0-1.0-251.0","",""
"null","sound/msl/boing.wav","null","audio-keyboard-response","253","144156","0.0-1.0-252.0","",""
"null","sound/msl/Water.wav","null","audio-keyboard-response","254","144677","0.0-1.0-253.0","",""
"null","sound/msl/door.wav","null","audio-keyboard-response","255","145186","0.0-1.0-254.0","",""
"null","sound/msl/dog.wav","null","audio-keyboard-response","256","145696","0.0-1.0-255.0","",""
"null","sound/msl/cow.wav","null","audio-keyboard-response","257","146216","0.0-1.0-256.0","",""
"null","sound/msl/door_bell.wav","null","audio-keyboard-response","258","146736","0.0-1.0-257.0","",""
"null","sound/msl/duck.wav","null","audio-keyboard-response","259","147256","0.0-1.0-258.0","",""
"null","sound/msl/cat.wav","null","audio-keyboard-response","260","147766","0.0-1.0-259.0","",""
"null","sound/msl/frog.wav","null","audio-keyboard-response","261","148286","0.0-1.0-260.0","",""
"null","sound/msl/boing.wav","null","audio-keyboard-response","262","148796","0.0-1.0-261.0","",""
"null","sound/msl/Water.wav","null","audio-keyboard-response","263","149317","0.0-1.0-262.0","",""
"null","sound/msl/door.wav","null","audio-keyboard-response","264","149826","0.0-1.0-263.0","",""
"null","sound/msl/bird.wav","null","audio-keyboard-response","265","150337","0.0-1.0-264.0","",""
"null","sound/msl/clock.wav","null","audio-keyboard-response","266","150897","0.0-1.0-265.0","",""
"null","sound/msl/organ.wav","null","audio-keyboard-response","267","151408","0.0-1.0-266.0","",""
"null","sound/msl/dog.wav","null","audio-keyboard-response","268","151927","0.0-1.0-267.0","",""
"null","sound/msl/cow.wav","null","audio-keyboard-response","269","152447","0.0-1.0-268.0","",""
"null","sound/msl/door_bell.wav","null","audio-keyboard-response","270","152967","0.0-1.0-269.0","",""
"null","sound/msl/ding.wav","null","audio-keyboard-response","271","153488","0.0-1.0-270.0","",""
"null","sound/msl/goat.wav","null","audio-keyboard-response","272","154038","0.0-1.0-271.0","",""
"null","sound/msl/slide_whistle.wav","null","audio-keyboard-response","273","154547","0.0-1.0-272.0","",""
"null","sound/msl/duck.wav","null","audio-keyboard-response","274","155058","0.0-1.0-273.0","",""
"null","sound/msl/cat.wav","null","audio-keyboard-response","275","155567","0.0-1.0-274.0","",""
"null","sound/msl/frog.wav","null","audio-keyboard-response","276","156082","0.0-1.0-275.0","",""
"null","sound/msl/boing.wav","null","audio-keyboard-response","277","156593","0.0-1.0-276.0","",""
"null","sound/msl/Water.wav","null","audio-keyboard-response","278","157113","0.0-1.0-277.0","",""
"null","sound/msl/door.wav","null","audio-keyboard-response","279","157623","0.0-1.0-278.0","",""
"null","sound/msl/bird.wav","null","audio-keyboard-response","280","158133","0.0-1.0-279.0","",""
"null","sound/msl/clock.wav","null","audio-keyboard-response","281","158693","0.0-1.0-280.0","",""
"null","sound/msl/organ.wav","null","audio-keyboard-response","282","159203","0.0-1.0-281.0","",""
"null","sound/msl/ding.wav","null","audio-keyboard-response","283","159723","0.0-1.0-282.0","",""
"null","sound/msl/goat.wav","null","audio-keyboard-response","284","160273","0.0-1.0-283.0","",""
"null","sound/msl/slide_whistle.wav","null","audio-keyboard-response","285","160784","0.0-1.0-284.0","",""
"null","sound/msl/dog.wav","null","audio-keyboard-response","286","161294","0.0-1.0-285.0","",""
"null","sound/msl/cow.wav","null","audio-keyboard-response","287","161814","0.0-1.0-286.0","",""
"null","sound/msl/door_bell.wav","null","audio-keyboard-response","288","162333","0.0-1.0-287.0","",""
"null","sound/msl/duck.wav","null","audio-keyboard-response","289","162854","0.0-1.0-288.0","",""
"null","sound/msl/cat.wav","null","audio-keyboard-response","290","163364","0.0-1.0-289.0","",""
"null","sound/msl/frog.wav","null","audio-keyboard-response","291","163884","0.0-1.0-290.0","",""
"null","sound/msl/bird.wav","null","audio-keyboard-response","292","164404","0.0-1.0-291.0","",""
"null","sound/msl/clock.wav","null","audio-keyboard-response","293","164964","0.0-1.0-292.0","",""
"null","sound/msl/organ.wav","null","audio-keyboard-response","294","165473","0.0-1.0-293.0","",""
"null","sound/msl/boing.wav","null","audio-keyboard-response","295","165986","0.0-1.0-294.0","",""
"null","sound/msl/Water.wav","null","audio-keyboard-response","296","166505","0.0-1.0-295.0","",""
"null","sound/msl/door.wav","null","audio-keyboard-response","297","167015","0.0-1.0-296.0","",""
"null","sound/msl/duck.wav","null","audio-keyboard-response","298","167534","0.0-1.0-297.0","",""
"null","sound/msl/cat.wav","null","audio-keyboard-response","299","168045","0.0-1.0-298.0","",""
"null","sound/msl/frog.wav","null","audio-keyboard-response","300","168565","0.0-1.0-299.0","",""
"null","sound/msl/ding.wav","null","audio-keyboard-response","301","169085","0.0-1.0-300.0","",""
"null","sound/msl/goat.wav","null","audio-keyboard-response","302","169635","0.0-1.0-301.0","",""
"null","sound/msl/slide_whistle.wav","null","audio-keyboard-response","303","170146","0.0-1.0-302.0","",""
"null","sound/msl/bird.wav","null","audio-keyboard-response","304","170655","0.0-1.0-303.0","",""
"null","sound/msl/clock.wav","null","audio-keyboard-response","305","171215","0.0-1.0-304.0","",""
"null","sound/msl/organ.wav","null","audio-keyboard-response","306","171725","0.0-1.0-305.0","",""
"null","sound/msl/dog.wav","null","audio-keyboard-response","307","172245","0.0-1.0-306.0","",""
"null","sound/msl/cow.wav","null","audio-keyboard-response","308","172765","0.0-1.0-307.0","",""
"null","sound/msl/door_bell.wav","null","audio-keyboard-response","309","173285","0.0-1.0-308.0","",""
"null","sound/msl/boing.wav","null","audio-keyboard-response","310","173795","0.0-1.0-309.0","",""
"null","sound/msl/Water.wav","null","audio-keyboard-response","311","174315","0.0-1.0-310.0","",""
"null","sound/msl/door.wav","null","audio-keyboard-response","312","174825","0.0-1.0-311.0","",""
"null","sound/msl/duck.wav","null","audio-keyboard-response","313","175336","0.0-1.0-312.0","",""
"null","sound/msl/cat.wav","null","audio-keyboard-response","314","175846","0.0-1.0-313.0","",""
"null","sound/msl/frog.wav","null","audio-keyboard-response","315","176366","0.0-1.0-314.0","",""
"null","sound/msl/ding.wav","null","audio-keyboard-response","316","176886","0.0-1.0-315.0","",""
"null","sound/msl/goat.wav","null","audio-keyboard-response","317","177436","0.0-1.0-316.0","",""
"null","sound/msl/slide_whistle.wav","null","audio-keyboard-response","318","177946","0.0-1.0-317.0","",""
"null","sound/msl/bird.wav","null","audio-keyboard-response","319","178456","0.0-1.0-318.0","",""
"null","sound/msl/clock.wav","null","audio-keyboard-response","320","179016","0.0-1.0-319.0","",""
"null","sound/msl/organ.wav","null","audio-keyboard-response","321","179526","0.0-1.0-320.0","",""
"null","sound/msl/boing.wav","null","audio-keyboard-response","322","180036","0.0-1.0-321.0","",""
"null","sound/msl/Water.wav","null","audio-keyboard-response","323","180556","0.0-1.0-322.0","",""
"null","sound/msl/door.wav","null","audio-keyboard-response","324","181066","0.0-1.0-323.0","",""
"null","sound/msl/ding.wav","null","audio-keyboard-response","325","181577","0.0-1.0-324.0","",""
"null","sound/msl/goat.wav","null","audio-keyboard-response","326","182126","0.0-1.0-325.0","",""
"null","sound/msl/slide_whistle.wav","null","audio-keyboard-response","327","182647","0.0-1.0-326.0","",""
"null","sound/msl/dog.wav","null","audio-keyboard-response","328","183166","0.0-1.0-327.0","",""
"null","sound/msl/cow.wav","null","audio-keyboard-response","329","183686","0.0-1.0-328.0","",""
"null","sound/msl/door_bell.wav","null","audio-keyboard-response","330","184206","0.0-1.0-329.0","",""
"null","sound/msl/duck.wav","null","audio-keyboard-response","331","184727","0.0-1.0-330.0","",""
"null","sound/msl/cat.wav","null","audio-keyboard-response","332","185237","0.0-1.0-331.0","",""
"null","sound/msl/frog.wav","null","audio-keyboard-response","333","185746","0.0-1.0-332.0","",""
"null","sound/msl/bird.wav","null","audio-keyboard-response","334","186257","0.0-1.0-333.0","",""
"null","sound/msl/clock.wav","null","audio-keyboard-response","335","186817","0.0-1.0-334.0","",""
"null","sound/msl/organ.wav","null","audio-keyboard-response","336","187328","0.0-1.0-335.0","",""
"null","sound/msl/dog.wav","null","audio-keyboard-response","337","187848","0.0-1.0-336.0","",""
"null","sound/msl/cow.wav","null","audio-keyboard-response","338","188367","0.0-1.0-337.0","",""
"null","sound/msl/door_bell.wav","null","audio-keyboard-response","339","188888","0.0-1.0-338.0","",""
"null","sound/msl/boing.wav","null","audio-keyboard-response","340","189398","0.0-1.0-339.0","",""
"null","sound/msl/Water.wav","null","audio-keyboard-response","341","189917","0.0-1.0-340.0","",""
"null","sound/msl/door.wav","null","audio-keyboard-response","342","190427","0.0-1.0-341.0","",""
"null","sound/msl/bird.wav","null","audio-keyboard-response","343","190937","0.0-1.0-342.0","",""
"null","sound/msl/clock.wav","null","audio-keyboard-response","344","191497","0.0-1.0-343.0","",""
"null","sound/msl/organ.wav","null","audio-keyboard-response","345","192008","0.0-1.0-344.0","",""
"null","sound/msl/boing.wav","null","audio-keyboard-response","346","192517","0.0-1.0-345.0","",""
"null","sound/msl/Water.wav","null","audio-keyboard-response","347","193038","0.0-1.0-346.0","",""
"null","sound/msl/door.wav","null","audio-keyboard-response","348","193548","0.0-1.0-347.0","",""
"null","sound/msl/dog.wav","null","audio-keyboard-response","349","194058","0.0-1.0-348.0","",""
"null","sound/msl/cow.wav","null","audio-keyboard-response","350","194578","0.0-1.0-349.0","",""
"null","sound/msl/door_bell.wav","null","audio-keyboard-response","351","195098","0.0-1.0-350.0","",""
"null","sound/msl/duck.wav","null","audio-keyboard-response","352","195618","0.0-1.0-351.0","",""
"null","sound/msl/cat.wav","null","audio-keyboard-response","353","196124","0.0-1.0-352.0","",""
"null","sound/msl/frog.wav","null","audio-keyboard-response","354","196643","0.0-1.0-353.0","",""
"null","sound/msl/bird.wav","null","audio-keyboard-response","355","197163","0.0-1.0-354.0","",""
"null","sound/msl/clock.wav","null","audio-keyboard-response","356","197724","0.0-1.0-355.0","",""
"null","sound/msl/organ.wav","null","audio-keyboard-response","357","198233","0.0-1.0-356.0","",""
"null","sound/msl/boing.wav","null","audio-keyboard-response","358","198744","0.0-1.0-357.0","",""
"null","sound/msl/Water.wav","null","audio-keyboard-response","359","199264","0.0-1.0-358.0","",""
"null","sound/msl/door.wav","null","audio-keyboard-response","360","199773","0.0-1.0-359.0","",""
"14792","Instructions2-eng.png","49","image-keyboard-response","361","214569","0.0-2.0","",""
"null","sound/msl/dog.wav","null","audio-keyboard-response","362","215086","0.0-3.0-0.0","",""
"null","sound/msl/clock.wav","null","audio-keyboard-response","363","215646","0.0-3.0-1.0","",""
"null","sound/msl/frog.wav","null","audio-keyboard-response","364","216166","0.0-3.0-2.0","",""
"null","sound/asl/silence.wav","null","audio-keyboard-response","365","216667","0.0-3.0-3.0","",""
"null","sound/msl/dog.wav","null","audio-keyboard-response","366","217176","0.0-3.0-4.0","",""
"null","sound/msl/cow.wav","null","audio-keyboard-response","367","217697","0.0-3.0-5.0","",""
"null","sound/msl/door_bell.wav","null","audio-keyboard-response","368","218217","0.0-3.0-6.0","",""
"960","sound/asl/silence.wav","49","audio-keyboard-response","369","219183","0.0-3.0-7.0","false",""
"null","sound/msl/ding.wav","null","audio-keyboard-response","370","219696","0.0-4.0-0.0","",""
"null","sound/msl/cow.wav","null","audio-keyboard-response","371","220216","0.0-4.0-1.0","",""
"null","sound/msl/organ.wav","null","audio-keyboard-response","372","220726","0.0-4.0-2.0","",""
"null","sound/asl/silence.wav","null","audio-keyboard-response","373","221228","0.0-4.0-3.0","",""
"null","sound/msl/dog.wav","null","audio-keyboard-response","374","221737","0.0-4.0-4.0","",""
"null","sound/msl/cow.wav","null","audio-keyboard-response","375","222257","0.0-4.0-5.0","",""
"null","sound/msl/door_bell.wav","null","audio-keyboard-response","376","222776","0.0-4.0-6.0","",""
"171","sound/asl/silence.wav","49","audio-keyboard-response","377","222951","0.0-4.0-7.0","false",""
"null","sound/msl/boing.wav","null","audio-keyboard-response","378","223457","0.0-5.0-0.0","",""
"null","sound/msl/Water.wav","null","audio-keyboard-response","379","223977","0.0-5.0-1.0","",""
"null","sound/msl/door.wav","null","audio-keyboard-response","380","224487","0.0-5.0-2.0","",""
"null","sound/asl/silence.wav","null","audio-keyboard-response","381","224988","0.0-5.0-3.0","",""
"null","sound/msl/duck.wav","null","audio-keyboard-response","382","225497","0.0-5.0-4.0","",""
"null","sound/msl/Water.wav","null","audio-keyboard-response","383","226018","0.0-5.0-5.0","",""
"null","sound/msl/slide_whistle.wav","null","audio-keyboard-response","384","226538","0.0-5.0-6.0","",""
"269","sound/asl/silence.wav","49","audio-keyboard-response","385","226808","0.0-5.0-7.0","true",""
"null","sound/msl/ding.wav","null","audio-keyboard-response","386","227328","0.0-6.0-0.0","",""
"null","sound/msl/goat.wav","null","audio-keyboard-response","387","227878","0.0-6.0-1.0","",""
"null","sound/msl/slide_whistle.wav","null","audio-keyboard-response","388","228388","0.0-6.0-2.0","",""
"448","sound/asl/silence.wav","49","audio-keyboard-response","389","228838","0.0-6.0-3.0","",""
"null","sound/msl/ding.wav","null","audio-keyboard-response","390","229347","0.0-6.0-4.0","",""
"null","sound/msl/cow.wav","null","audio-keyboard-response","391","229858","0.0-6.0-5.0","",""
"null","sound/msl/organ.wav","null","audio-keyboard-response","392","230370","0.0-6.0-6.0","",""
"949","sound/asl/silence.wav","49","audio-keyboard-response","393","231327","0.0-6.0-7.0","true",""
"null","sound/msl/ding.wav","null","audio-keyboard-response","394","231849","0.0-7.0-0.0","",""
"null","sound/msl/cow.wav","null","audio-keyboard-response","395","232369","0.0-7.0-1.0","",""
"null","sound/msl/organ.wav","null","audio-keyboard-response","396","232878","0.0-7.0-2.0","",""
"null","sound/asl/silence.wav","null","audio-keyboard-response","397","233380","0.0-7.0-3.0","",""
"null","sound/msl/bird.wav","null","audio-keyboard-response","398","233899","0.0-7.0-4.0","",""
"null","sound/msl/clock.wav","null","audio-keyboard-response","399","234461","0.0-7.0-5.0","",""
"null","sound/msl/organ.wav","null","audio-keyboard-response","400","234969","0.0-7.0-6.0","",""
"309","sound/asl/silence.wav","50","audio-keyboard-response","401","235280","0.0-7.0-7.0","true",""
"null","sound/msl/duck.wav","null","audio-keyboard-response","402","235789","0.0-8.0-0.0","",""
"null","sound/msl/Water.wav","null","audio-keyboard-response","403","236309","0.0-8.0-1.0","",""
"null","sound/msl/slide_whistle.wav","null","audio-keyboard-response","404","236819","0.0-8.0-2.0","",""
"null","sound/asl/silence.wav","null","audio-keyboard-response","405","237320","0.0-8.0-3.0","",""
"null","sound/msl/ding.wav","null","audio-keyboard-response","406","237824","0.0-8.0-4.0","",""
"null","sound/msl/goat.wav","null","audio-keyboard-response","407","238375","0.0-8.0-5.0","",""
"null","sound/msl/slide_whistle.wav","null","audio-keyboard-response","408","238894","0.0-8.0-6.0","",""
"949","sound/asl/silence.wav","50","audio-keyboard-response","409","239848","0.0-8.0-7.0","true",""
"null","sound/msl/bird.wav","null","audio-keyboard-response","410","240364","0.0-9.0-0.0","",""
"null","sound/msl/cat.wav","null","audio-keyboard-response","411","240875","0.0-9.0-1.0","",""
"null","sound/msl/door.wav","null","audio-keyboard-response","412","241385","0.0-9.0-2.0","",""
"null","sound/asl/silence.wav","null","audio-keyboard-response","413","241886","0.0-9.0-3.0","",""
"null","sound/msl/dog.wav","null","audio-keyboard-response","414","242405","0.0-9.0-4.0","",""
"null","sound/msl/cow.wav","null","audio-keyboard-response","415","242925","0.0-9.0-5.0","",""
"null","sound/msl/door_bell.wav","null","audio-keyboard-response","416","243445","0.0-9.0-6.0","",""
"1261","sound/asl/silence.wav","49","audio-keyboard-response","417","244710","0.0-9.0-7.0","false",""
"null","sound/msl/ding.wav","null","audio-keyboard-response","418","245215","0.0-10.0-0.0","",""
"null","sound/msl/goat.wav","null","audio-keyboard-response","419","245766","0.0-10.0-1.0","",""
"null","sound/msl/slide_whistle.wav","null","audio-keyboard-response","420","246285","0.0-10.0-2.0","",""
"null","sound/asl/silence.wav","null","audio-keyboard-response","421","246787","0.0-10.0-3.0","",""
"null","sound/msl/boing.wav","null","audio-keyboard-response","422","247296","0.0-10.0-4.0","",""
"null","sound/msl/goat.wav","null","audio-keyboard-response","423","247845","0.0-10.0-5.0","",""
"null","sound/msl/door_bell.wav","null","audio-keyboard-response","424","248365","0.0-10.0-6.0","",""
"21","sound/asl/silence.wav","49","audio-keyboard-response","425","248391","0.0-10.0-7.0","true",""
"null","sound/msl/ding.wav","null","audio-keyboard-response","426","248896","0.0-11.0-0.0","",""
"null","sound/msl/goat.wav","null","audio-keyboard-response","427","249446","0.0-11.0-1.0","",""
"null","sound/msl/slide_whistle.wav","null","audio-keyboard-response","428","249966","0.0-11.0-2.0","",""
"null","sound/asl/silence.wav","null","audio-keyboard-response","429","250468","0.0-11.0-3.0","",""
"null","sound/msl/dog.wav","null","audio-keyboard-response","430","250976","0.0-11.0-4.0","",""
"null","sound/msl/clock.wav","null","audio-keyboard-response","431","251536","0.0-11.0-5.0","",""
"null","sound/msl/frog.wav","null","audio-keyboard-response","432","252056","0.0-11.0-6.0","",""
"789","sound/asl/silence.wav","49","audio-keyboard-response","433","252848","0.0-11.0-7.0","true",""
"null","sound/msl/boing.wav","null","audio-keyboard-response","434","253356","0.0-12.0-0.0","",""
"null","sound/msl/goat.wav","null","audio-keyboard-response","435","253906","0.0-12.0-1.0","",""
"null","sound/msl/door_bell.wav","null","audio-keyboard-response","436","254416","0.0-12.0-2.0","",""
"null","sound/asl/silence.wav","null","audio-keyboard-response","437","254918","0.0-12.0-3.0","",""
"null","sound/msl/boing.wav","null","audio-keyboard-response","438","255426","0.0-12.0-4.0","",""
"null","sound/msl/Water.wav","null","audio-keyboard-response","439","255947","0.0-12.0-5.0","",""
"null","sound/msl/door.wav","null","audio-keyboard-response","440","256456","0.0-12.0-6.0","",""
"1109","sound/asl/silence.wav","50","audio-keyboard-response","441","257567","0.0-12.0-7.0","true",""
"null","sound/msl/boing.wav","null","audio-keyboard-response","442","258077","0.0-13.0-0.0","",""
"null","sound/msl/Water.wav","null","audio-keyboard-response","443","258597","0.0-13.0-1.0","",""
"null","sound/msl/door.wav","null","audio-keyboard-response","444","259106","0.0-13.0-2.0","",""
"null","sound/asl/silence.wav","null","audio-keyboard-response","445","259608","0.0-13.0-3.0","",""
"null","sound/msl/bird.wav","null","audio-keyboard-response","446","260127","0.0-13.0-4.0","",""
"null","sound/msl/cat.wav","null","audio-keyboard-response","447","260637","0.0-13.0-5.0","",""
"null","sound/msl/door.wav","null","audio-keyboard-response","448","261147","0.0-13.0-6.0","",""
"219","sound/asl/silence.wav","50","audio-keyboard-response","449","261367","0.0-13.0-7.0","false",""
"null","sound/msl/dog.wav","null","audio-keyboard-response","450","261887","0.0-14.0-0.0","",""
"null","sound/msl/clock.wav","null","audio-keyboard-response","451","262447","0.0-14.0-1.0","",""
"null","sound/msl/frog.wav","null","audio-keyboard-response","452","262967","0.0-14.0-2.0","",""
"null","sound/asl/silence.wav","null","audio-keyboard-response","453","263469","0.0-14.0-3.0","",""
"null","sound/msl/bird.wav","null","audio-keyboard-response","454","263978","0.0-14.0-4.0","",""
"null","sound/msl/clock.wav","null","audio-keyboard-response","455","264538","0.0-14.0-5.0","",""
"null","sound/msl/organ.wav","null","audio-keyboard-response","456","265048","0.0-14.0-6.0","",""
"669","sound/asl/silence.wav","50","audio-keyboard-response","457","265719","0.0-14.0-7.0","true",""
"null","sound/msl/duck.wav","null","audio-keyboard-response","458","266228","0.0-15.0-0.0","",""
"null","sound/msl/cat.wav","null","audio-keyboard-response","459","266739","0.0-15.0-1.0","",""
"null","sound/msl/frog.wav","null","audio-keyboard-response","460","267258","0.0-15.0-2.0","",""
"null","sound/asl/silence.wav","null","audio-keyboard-response","461","267760","0.0-15.0-3.0","",""
"null","sound/msl/bird.wav","null","audio-keyboard-response","462","268268","0.0-15.0-4.0","",""
"null","sound/msl/cat.wav","null","audio-keyboard-response","463","268778","0.0-15.0-5.0","",""
"null","sound/msl/door.wav","null","audio-keyboard-response","464","269288","0.0-15.0-6.0","",""
"440","sound/asl/silence.wav","49","audio-keyboard-response","465","269735","0.0-15.0-7.0","true",""
"null","sound/msl/duck.wav","null","audio-keyboard-response","466","270248","0.0-16.0-0.0","",""
"null","sound/msl/cat.wav","null","audio-keyboard-response","467","270759","0.0-16.0-1.0","",""
"null","sound/msl/frog.wav","null","audio-keyboard-response","468","271268","0.0-16.0-2.0","",""
"null","sound/asl/silence.wav","null","audio-keyboard-response","469","271770","0.0-16.0-3.0","",""
"null","sound/msl/ding.wav","null","audio-keyboard-response","470","272289","0.0-16.0-4.0","",""
"null","sound/msl/cow.wav","null","audio-keyboard-response","471","272809","0.0-16.0-5.0","",""
"null","sound/msl/organ.wav","null","audio-keyboard-response","472","273319","0.0-16.0-6.0","",""
"1312","sound/asl/silence.wav","49","audio-keyboard-response","473","274631","0.0-16.0-7.0","true",""
"null","sound/msl/boing.wav","null","audio-keyboard-response","474","275140","0.0-17.0-0.0","",""
"null","sound/msl/goat.wav","null","audio-keyboard-response","475","275689","0.0-17.0-1.0","",""
"null","sound/msl/door_bell.wav","null","audio-keyboard-response","476","276210","0.0-17.0-2.0","",""
"null","sound/asl/silence.wav","null","audio-keyboard-response","477","276710","0.0-17.0-3.0","",""
"null","sound/msl/duck.wav","null","audio-keyboard-response","478","277219","0.0-17.0-4.0","",""
"null","sound/msl/cat.wav","null","audio-keyboard-response","479","277729","0.0-17.0-5.0","",""
"null","sound/msl/frog.wav","null","audio-keyboard-response","480","278245","0.0-17.0-6.0","",""
"2200","sound/asl/silence.wav","49","audio-keyboard-response","481","280448","0.0-17.0-7.0","false",""
"null","sound/msl/dog.wav","null","audio-keyboard-response","482","280966","0.0-18.0-0.0","",""
"null","sound/msl/cow.wav","null","audio-keyboard-response","483","281485","0.0-18.0-1.0","",""
"null","sound/msl/door_bell.wav","null","audio-keyboard-response","484","282005","0.0-18.0-2.0","",""
"null","sound/asl/silence.wav","null","audio-keyboard-response","485","282507","0.0-18.0-3.0","",""
"null","sound/msl/duck.wav","null","audio-keyboard-response","486","283015","0.0-18.0-4.0","",""
"null","sound/msl/Water.wav","null","audio-keyboard-response","487","283536","0.0-18.0-5.0","",""
"null","sound/msl/slide_whistle.wav","null","audio-keyboard-response","488","284056","0.0-18.0-6.0","",""
"419","sound/asl/silence.wav","49","audio-keyboard-response","489","284480","0.0-18.0-7.0","true",""
"null","sound/msl/bird.wav","null","audio-keyboard-response","490","284985","0.0-19.0-0.0","",""
"null","sound/msl/clock.wav","null","audio-keyboard-response","491","285546","0.0-19.0-1.0","",""
"null","sound/msl/organ.wav","null","audio-keyboard-response","492","286056","0.0-19.0-2.0","",""
"null","sound/asl/silence.wav","null","audio-keyboard-response","493","286557","0.0-19.0-3.0","",""
"null","sound/msl/bird.wav","null","audio-keyboard-response","494","287066","0.0-19.0-4.0","",""
"null","sound/msl/cat.wav","null","audio-keyboard-response","495","287576","0.0-19.0-5.0","",""
"null","sound/msl/door.wav","null","audio-keyboard-response","496","288086","0.0-19.0-6.0","",""
"229","sound/asl/silence.wav","49","audio-keyboard-response","497","288319","0.0-19.0-7.0","true",""
"null","sound/msl/bird.wav","null","audio-keyboard-response","498","288826","0.0-20.0-0.0","",""
"null","sound/msl/cat.wav","null","audio-keyboard-response","499","289336","0.0-20.0-1.0","",""
"null","sound/msl/door.wav","null","audio-keyboard-response","500","289846","0.0-20.0-2.0","",""
"null","sound/asl/silence.wav","null","audio-keyboard-response","501","290347","0.0-20.0-3.0","",""
"null","sound/msl/ding.wav","null","audio-keyboard-response","502","290857","0.0-20.0-4.0","",""
"null","sound/msl/goat.wav","null","audio-keyboard-response","503","291407","0.0-20.0-5.0","",""
"null","sound/msl/slide_whistle.wav","null","audio-keyboard-response","504","291927","0.0-20.0-6.0","",""
"101","sound/asl/silence.wav","50","audio-keyboard-response","505","292031","0.0-20.0-7.0","true",""
"null","sound/msl/dog.wav","null","audio-keyboard-response","506","292536","0.0-21.0-0.0","",""
"null","sound/msl/clock.wav","null","audio-keyboard-response","507","293096","0.0-21.0-1.0","",""
"null","sound/msl/frog.wav","null","audio-keyboard-response","508","293617","0.0-21.0-2.0","",""
"null","sound/asl/silence.wav","null","audio-keyboard-response","509","294118","0.0-21.0-3.0","",""
"null","sound/msl/boing.wav","null","audio-keyboard-response","510","294628","0.0-21.0-4.0","",""
"null","sound/msl/Water.wav","null","audio-keyboard-response","511","295147","0.0-21.0-5.0","",""
"null","sound/msl/door.wav","null","audio-keyboard-response","512","295657","0.0-21.0-6.0","",""
"320","sound/asl/silence.wav","49","audio-keyboard-response","513","295983","0.0-21.0-7.0","false",""
"null","sound/msl/duck.wav","null","audio-keyboard-response","514","296497","0.0-22.0-0.0","",""
"null","sound/msl/cat.wav","null","audio-keyboard-response","515","297008","0.0-22.0-1.0","",""
"null","sound/msl/frog.wav","null","audio-keyboard-response","516","297528","0.0-22.0-2.0","",""
"null","sound/asl/silence.wav","null","audio-keyboard-response","517","298029","0.0-22.0-3.0","",""
"null","sound/msl/duck.wav","null","audio-keyboard-response","518","298537","0.0-22.0-4.0","",""
"null","sound/msl/Water.wav","null","audio-keyboard-response","519","299059","0.0-22.0-5.0","",""
"null","sound/msl/slide_whistle.wav","null","audio-keyboard-response","520","299577","0.0-22.0-6.0","",""
"499","sound/asl/silence.wav","50","audio-keyboard-response","521","300080","0.0-22.0-7.0","false",""
"null","sound/msl/boing.wav","null","audio-keyboard-response","522","300588","0.0-23.0-0.0","",""
"null","sound/msl/goat.wav","null","audio-keyboard-response","523","301138","0.0-23.0-1.0","",""
"null","sound/msl/door_bell.wav","null","audio-keyboard-response","524","301659","0.0-23.0-2.0","",""
"null","sound/asl/silence.wav","null","audio-keyboard-response","525","302159","0.0-23.0-3.0","",""
"null","sound/msl/bird.wav","null","audio-keyboard-response","526","302668","0.0-23.0-4.0","",""
"null","sound/msl/clock.wav","null","audio-keyboard-response","527","303228","0.0-23.0-5.0","",""
"null","sound/msl/organ.wav","null","audio-keyboard-response","528","303739","0.0-23.0-6.0","",""
"299","sound/asl/silence.wav","49","audio-keyboard-response","529","304048","0.0-23.0-7.0","false",""
"null","sound/msl/dog.wav","null","audio-keyboard-response","530","304568","0.0-24.0-0.0","",""
"null","sound/msl/cow.wav","null","audio-keyboard-response","531","305089","0.0-24.0-1.0","",""
"null","sound/msl/door_bell.wav","null","audio-keyboard-response","532","305608","0.0-24.0-2.0","",""
"null","sound/asl/silence.wav","null","audio-keyboard-response","533","306110","0.0-24.0-3.0","",""
"null","sound/msl/boing.wav","null","audio-keyboard-response","534","306618","0.0-24.0-4.0","",""
"null","sound/msl/goat.wav","null","audio-keyboard-response","535","307169","0.0-24.0-5.0","",""
"null","sound/msl/door_bell.wav","null","audio-keyboard-response","536","307689","0.0-24.0-6.0","",""
"640","sound/asl/silence.wav","50","audio-keyboard-response","537","308337","0.0-24.0-7.0","false",""
"null","sound/msl/dog.wav","null","audio-keyboard-response","538","308849","0.0-25.0-0.0","",""
"null","sound/msl/clock.wav","null","audio-keyboard-response","539","309409","0.0-25.0-1.0","",""
"null","sound/msl/frog.wav","null","audio-keyboard-response","540","309929","0.0-25.0-2.0","",""
"null","sound/asl/silence.wav","null","audio-keyboard-response","541","310430","0.0-25.0-3.0","",""
"null","sound/msl/duck.wav","null","audio-keyboard-response","542","310939","0.0-25.0-4.0","",""
"null","sound/msl/cat.wav","null","audio-keyboard-response","543","311450","0.0-25.0-5.0","",""
"null","sound/msl/frog.wav","null","audio-keyboard-response","544","311970","0.0-25.0-6.0","",""
"440","sound/asl/silence.wav","49","audio-keyboard-response","545","312416","0.0-25.0-7.0","false",""
"null","sound/msl/ding.wav","null","audio-keyboard-response","546","312930","0.0-26.0-0.0","",""
"null","sound/msl/cow.wav","null","audio-keyboard-response","547","313450","0.0-26.0-1.0","",""
"null","sound/msl/organ.wav","null","audio-keyboard-response","548","313960","0.0-26.0-2.0","",""
"null","sound/asl/silence.wav","null","audio-keyboard-response","549","314460","0.0-26.0-3.0","",""
"null","sound/msl/boing.wav","null","audio-keyboard-response","550","314970","0.0-26.0-4.0","",""
"null","sound/msl/Water.wav","null","audio-keyboard-response","551","315489","0.0-26.0-5.0","",""
"null","sound/msl/door.wav","null","audio-keyboard-response","552","316000","0.0-26.0-6.0","",""
"472","sound/asl/silence.wav","49","audio-keyboard-response","553","316472","0.0-26.0-7.0","false",""
"null","sound/msl/bird.wav","null","audio-keyboard-response","554","316979","0.0-27.0-0.0","",""
"null","sound/msl/clock.wav","null","audio-keyboard-response","555","317540","0.0-27.0-1.0","",""
"null","sound/msl/organ.wav","null","audio-keyboard-response","556","318050","0.0-27.0-2.0","",""
"null","sound/asl/silence.wav","null","audio-keyboard-response","557","318551","0.0-27.0-3.0","",""
"null","sound/msl/duck.wav","null","audio-keyboard-response","558","319055","0.0-27.0-4.0","",""
"null","sound/msl/Water.wav","null","audio-keyboard-response","559","319576","0.0-27.0-5.0","",""
"null","sound/msl/slide_whistle.wav","null","audio-keyboard-response","560","320096","0.0-27.0-6.0","",""
"499","sound/asl/silence.wav","49","audio-keyboard-response","561","320601","0.0-27.0-7.0","true",""
"2917","","","instructions","562","323519","0.0-28.0","","[{""page_index"":0,""viewing_time"":2917}]"
