"rt","stimulus","key_press","trial_type","trial_index","time_elapsed","internal_node_id","correct","view_history"
"5709","alien.jpg","49","image-keyboard-response","0","5710","0.0-0.0","",""
"null","sound/msl/Water.wav","null","audio-keyboard-response","1","6214","0.0-1.0-0.0","",""
"null","sound/msl/door_bell.wav","null","audio-keyboard-response","2","6714","0.0-1.0-1.0","",""
"null","sound/msl/door.wav","null","audio-keyboard-response","3","7215","0.0-1.0-2.0","",""
"null","sound/msl/dog.wav","null","audio-keyboard-response","4","7715","0.0-1.0-3.0","",""
"null","sound/msl/cow.wav","null","audio-keyboard-response","5","8224","0.0-1.0-4.0","",""
"null","sound/msl/clock.wav","null","audio-keyboard-response","6","8774","0.0-1.0-5.0","",""
"null","sound/msl/cat.wav","null","audio-keyboard-response","7","9274","0.0-1.0-6.0","",""
"null","sound/msl/organ.wav","null","audio-keyboard-response","8","9774","0.0-1.0-7.0","",""
"null","sound/msl/duck.wav","null","audio-keyboard-response","9","10274","0.0-1.0-8.0","",""
"null","sound/msl/boing.wav","null","audio-keyboard-response","10","10774","0.0-1.0-9.0","",""
"null","sound/msl/ding.wav","null","audio-keyboard-response","11","11274","0.0-1.0-10.0","",""
"null","sound/msl/frog.wav","null","audio-keyboard-response","12","11785","0.0-1.0-11.0","",""
"null","sound/msl/dog.wav","null","audio-keyboard-response","13","12284","0.0-1.0-12.0","",""
"null","sound/msl/cow.wav","null","audio-keyboard-response","14","12794","0.0-1.0-13.0","",""
"null","sound/msl/clock.wav","null","audio-keyboard-response","15","13344","0.0-1.0-14.0","",""
"null","sound/msl/Water.wav","null","audio-keyboard-response","16","13855","0.0-1.0-15.0","",""
"null","sound/msl/door_bell.wav","null","audio-keyboard-response","17","14355","0.0-1.0-16.0","",""
"null","sound/msl/door.wav","null","audio-keyboard-response","18","14855","0.0-1.0-17.0","",""
"null","sound/msl/goat.wav","null","audio-keyboard-response","19","15395","0.0-1.0-18.0","",""
"null","sound/msl/bird.wav","null","audio-keyboard-response","20","15905","0.0-1.0-19.0","",""
"null","sound/msl/slide_whistle.wav","null","audio-keyboard-response","21","16405","0.0-1.0-20.0","",""
"null","sound/msl/boing.wav","null","audio-keyboard-response","22","16905","0.0-1.0-21.0","",""
"null","sound/msl/ding.wav","null","audio-keyboard-response","23","17405","0.0-1.0-22.0","",""
"null","sound/msl/frog.wav","null","audio-keyboard-response","24","17915","0.0-1.0-23.0","",""
"null","sound/msl/cat.wav","null","audio-keyboard-response","25","18415","0.0-1.0-24.0","",""
"null","sound/msl/organ.wav","null","audio-keyboard-response","26","18915","0.0-1.0-25.0","",""
"null","sound/msl/duck.wav","null","audio-keyboard-response","27","19426","0.0-1.0-26.0","",""
"null","sound/msl/Water.wav","null","audio-keyboard-response","28","19935","0.0-1.0-27.0","",""
"null","sound/msl/door_bell.wav","null","audio-keyboard-response","29","20436","0.0-1.0-28.0","",""
"null","sound/msl/door.wav","null","audio-keyboard-response","30","20936","0.0-1.0-29.0","",""
"null","sound/msl/dog.wav","null","audio-keyboard-response","31","21435","0.0-1.0-30.0","",""
"null","sound/msl/cow.wav","null","audio-keyboard-response","32","21945","0.0-1.0-31.0","",""
"null","sound/msl/clock.wav","null","audio-keyboard-response","33","22496","0.0-1.0-32.0","",""
"null","sound/msl/goat.wav","null","audio-keyboard-response","34","23036","0.0-1.0-33.0","",""
"null","sound/msl/bird.wav","null","audio-keyboard-response","35","23546","0.0-1.0-34.0","",""
"null","sound/msl/slide_whistle.wav","null","audio-keyboard-response","36","24046","0.0-1.0-35.0","",""
"null","sound/msl/cat.wav","null","audio-keyboard-response","37","24546","0.0-1.0-36.0","",""
"null","sound/msl/organ.wav","null","audio-keyboard-response","38","25046","0.0-1.0-37.0","",""
"null","sound/msl/duck.wav","null","audio-keyboard-response","39","25556","0.0-1.0-38.0","",""
"null","sound/msl/boing.wav","null","audio-keyboard-response","40","26057","0.0-1.0-39.0","",""
"null","sound/msl/ding.wav","null","audio-keyboard-response","41","26556","0.0-1.0-40.0","",""
"null","sound/msl/frog.wav","null","audio-keyboard-response","42","27066","0.0-1.0-41.0","",""
"null","sound/msl/goat.wav","null","audio-keyboard-response","43","27606","0.0-1.0-42.0","",""
"null","sound/msl/bird.wav","null","audio-keyboard-response","44","28117","0.0-1.0-43.0","",""
"null","sound/msl/slide_whistle.wav","null","audio-keyboard-response","45","28616","0.0-1.0-44.0","",""
"null","sound/msl/dog.wav","null","audio-keyboard-response","46","29117","0.0-1.0-45.0","",""
"null","sound/msl/cow.wav","null","audio-keyboard-response","47","29626","0.0-1.0-46.0","",""
"null","sound/msl/clock.wav","null","audio-keyboard-response","48","30177","0.0-1.0-47.0","",""
"null","sound/msl/cat.wav","null","audio-keyboard-response","49","30677","0.0-1.0-48.0","",""
"null","sound/msl/organ.wav","null","audio-keyboard-response","50","31177","0.0-1.0-49.0","",""
"null","sound/msl/duck.wav","null","audio-keyboard-response","51","31677","0.0-1.0-50.0","",""
"null","sound/msl/Water.wav","null","audio-keyboard-response","52","32187","0.0-1.0-51.0","",""
"null","sound/msl/door_bell.wav","null","audio-keyboard-response","53","32688","0.0-1.0-52.0","",""
"null","sound/msl/door.wav","null","audio-keyboard-response","54","33187","0.0-1.0-53.0","",""
"null","sound/msl/dog.wav","null","audio-keyboard-response","55","33687","0.0-1.0-54.0","",""
"null","sound/msl/cow.wav","null","audio-keyboard-response","56","34198","0.0-1.0-55.0","",""
"null","sound/msl/clock.wav","null","audio-keyboard-response","57","34748","0.0-1.0-56.0","",""
"null","sound/msl/cat.wav","null","audio-keyboard-response","58","35248","0.0-1.0-57.0","",""
"null","sound/msl/organ.wav","null","audio-keyboard-response","59","35747","0.0-1.0-58.0","",""
"null","sound/msl/duck.wav","null","audio-keyboard-response","60","36248","0.0-1.0-59.0","",""
"null","sound/msl/boing.wav","null","audio-keyboard-response","61","36747","0.0-1.0-60.0","",""
"null","sound/msl/ding.wav","null","audio-keyboard-response","62","37248","0.0-1.0-61.0","",""
"null","sound/msl/frog.wav","null","audio-keyboard-response","63","37757","0.0-1.0-62.0","",""
"null","sound/msl/goat.wav","null","audio-keyboard-response","64","38298","0.0-1.0-63.0","",""
"null","sound/msl/bird.wav","null","audio-keyboard-response","65","38793","0.0-1.0-64.0","",""
"null","sound/msl/slide_whistle.wav","null","audio-keyboard-response","66","39293","0.0-1.0-65.0","",""
"null","sound/msl/dog.wav","null","audio-keyboard-response","67","39794","0.0-1.0-66.0","",""
"null","sound/msl/cow.wav","null","audio-keyboard-response","68","40303","0.0-1.0-67.0","",""
"null","sound/msl/clock.wav","null","audio-keyboard-response","69","40853","0.0-1.0-68.0","",""
"null","sound/msl/Water.wav","null","audio-keyboard-response","70","41363","0.0-1.0-69.0","",""
"null","sound/msl/door_bell.wav","null","audio-keyboard-response","71","41873","0.0-1.0-70.0","",""
"null","sound/msl/door.wav","null","audio-keyboard-response","72","42374","0.0-1.0-71.0","",""
"null","sound/msl/cat.wav","null","audio-keyboard-response","73","42874","0.0-1.0-72.0","",""
"null","sound/msl/organ.wav","null","audio-keyboard-response","74","43373","0.0-1.0-73.0","",""
"null","sound/msl/duck.wav","null","audio-keyboard-response","75","43874","0.0-1.0-74.0","",""
"null","sound/msl/boing.wav","null","audio-keyboard-response","76","44373","0.0-1.0-75.0","",""
"null","sound/msl/ding.wav","null","audio-keyboard-response","77","44874","0.0-1.0-76.0","",""
"null","sound/msl/frog.wav","null","audio-keyboard-response","78","45384","0.0-1.0-77.0","",""
"null","sound/msl/cat.wav","null","audio-keyboard-response","79","45884","0.0-1.0-78.0","",""
"null","sound/msl/organ.wav","null","audio-keyboard-response","80","46384","0.0-1.0-79.0","",""
"null","sound/msl/duck.wav","null","audio-keyboard-response","81","46884","0.0-1.0-80.0","",""
"null","sound/msl/goat.wav","null","audio-keyboard-response","82","47424","0.0-1.0-81.0","",""
"null","sound/msl/bird.wav","null","audio-keyboard-response","83","47924","0.0-1.0-82.0","",""
"null","sound/msl/slide_whistle.wav","null","audio-keyboard-response","84","48425","0.0-1.0-83.0","",""
"null","sound/msl/Water.wav","null","audio-keyboard-response","85","48934","0.0-1.0-84.0","",""
"null","sound/msl/door_bell.wav","null","audio-keyboard-response","86","49434","0.0-1.0-85.0","",""
"null","sound/msl/door.wav","null","audio-keyboard-response","87","49935","0.0-1.0-86.0","",""
"null","sound/msl/dog.wav","null","audio-keyboard-response","88","50434","0.0-1.0-87.0","",""
"null","sound/msl/cow.wav","null","audio-keyboard-response","89","50944","0.0-1.0-88.0","",""
"null","sound/msl/clock.wav","null","audio-keyboard-response","90","51494","0.0-1.0-89.0","",""
"null","sound/msl/goat.wav","null","audio-keyboard-response","91","52035","0.0-1.0-90.0","",""
"null","sound/msl/bird.wav","null","audio-keyboard-response","92","52545","0.0-1.0-91.0","",""
"null","sound/msl/slide_whistle.wav","null","audio-keyboard-response","93","53045","0.0-1.0-92.0","",""
"null","sound/msl/boing.wav","null","audio-keyboard-response","94","53545","0.0-1.0-93.0","",""
"null","sound/msl/ding.wav","null","audio-keyboard-response","95","54045","0.0-1.0-94.0","",""
"null","sound/msl/frog.wav","null","audio-keyboard-response","96","54554","0.0-1.0-95.0","",""
"null","sound/msl/cat.wav","null","audio-keyboard-response","97","55055","0.0-1.0-96.0","",""
"null","sound/msl/organ.wav","null","audio-keyboard-response","98","55555","0.0-1.0-97.0","",""
"null","sound/msl/duck.wav","null","audio-keyboard-response","99","56065","0.0-1.0-98.0","",""
"null","sound/msl/dog.wav","null","audio-keyboard-response","100","56566","0.0-1.0-99.0","",""
"null","sound/msl/cow.wav","null","audio-keyboard-response","101","57075","0.0-1.0-100.0","",""
"null","sound/msl/clock.wav","null","audio-keyboard-response","102","57625","0.0-1.0-101.0","",""
"null","sound/msl/goat.wav","null","audio-keyboard-response","103","58165","0.0-1.0-102.0","",""
"null","sound/msl/bird.wav","null","audio-keyboard-response","104","58676","0.0-1.0-103.0","",""
"null","sound/msl/slide_whistle.wav","null","audio-keyboard-response","105","59175","0.0-1.0-104.0","",""
"null","sound/msl/Water.wav","null","audio-keyboard-response","106","59686","0.0-1.0-105.0","",""
"null","sound/msl/door_bell.wav","null","audio-keyboard-response","107","60195","0.0-1.0-106.0","",""
"null","sound/msl/door.wav","null","audio-keyboard-response","108","60695","0.0-1.0-107.0","",""
"null","sound/msl/dog.wav","null","audio-keyboard-response","109","61196","0.0-1.0-108.0","",""
"null","sound/msl/cow.wav","null","audio-keyboard-response","110","61705","0.0-1.0-109.0","",""
"null","sound/msl/clock.wav","null","audio-keyboard-response","111","62256","0.0-1.0-110.0","",""
"null","sound/msl/boing.wav","null","audio-keyboard-response","112","62756","0.0-1.0-111.0","",""
"null","sound/msl/ding.wav","null","audio-keyboard-response","113","63267","0.0-1.0-112.0","",""
"null","sound/msl/frog.wav","null","audio-keyboard-response","114","63767","0.0-1.0-113.0","",""
"null","sound/msl/goat.wav","null","audio-keyboard-response","115","64306","0.0-1.0-114.0","",""
"null","sound/msl/bird.wav","null","audio-keyboard-response","116","64807","0.0-1.0-115.0","",""
"null","sound/msl/slide_whistle.wav","null","audio-keyboard-response","117","65306","0.0-1.0-116.0","",""
"null","sound/msl/cat.wav","null","audio-keyboard-response","118","65807","0.0-1.0-117.0","",""
"null","sound/msl/organ.wav","null","audio-keyboard-response","119","66307","0.0-1.0-118.0","",""
"null","sound/msl/duck.wav","null","audio-keyboard-response","120","66807","0.0-1.0-119.0","",""
"null","sound/msl/Water.wav","null","audio-keyboard-response","121","67317","0.0-1.0-120.0","",""
"null","sound/msl/door_bell.wav","null","audio-keyboard-response","122","67826","0.0-1.0-121.0","",""
"null","sound/msl/door.wav","null","audio-keyboard-response","123","68327","0.0-1.0-122.0","",""
"null","sound/msl/dog.wav","null","audio-keyboard-response","124","68838","0.0-1.0-123.0","",""
"null","sound/msl/cow.wav","null","audio-keyboard-response","125","69347","0.0-1.0-124.0","",""
"null","sound/msl/clock.wav","null","audio-keyboard-response","126","69897","0.0-1.0-125.0","",""
"null","sound/msl/goat.wav","null","audio-keyboard-response","127","70437","0.0-1.0-126.0","",""
"null","sound/msl/bird.wav","null","audio-keyboard-response","128","70947","0.0-1.0-127.0","",""
"null","sound/msl/slide_whistle.wav","null","audio-keyboard-response","129","71448","0.0-1.0-128.0","",""
"null","sound/msl/boing.wav","null","audio-keyboard-response","130","71948","0.0-1.0-129.0","",""
"null","sound/msl/ding.wav","null","audio-keyboard-response","131","72447","0.0-1.0-130.0","",""
"null","sound/msl/frog.wav","null","audio-keyboard-response","132","72958","0.0-1.0-131.0","",""
"null","sound/msl/dog.wav","null","audio-keyboard-response","133","73468","0.0-1.0-132.0","",""
"null","sound/msl/cow.wav","null","audio-keyboard-response","134","73968","0.0-1.0-133.0","",""
"null","sound/msl/clock.wav","null","audio-keyboard-response","135","74518","0.0-1.0-134.0","",""
"null","sound/msl/cat.wav","null","audio-keyboard-response","136","75018","0.0-1.0-135.0","",""
"null","sound/msl/organ.wav","null","audio-keyboard-response","137","75518","0.0-1.0-136.0","",""
"null","sound/msl/duck.wav","null","audio-keyboard-response","138","76028","0.0-1.0-137.0","",""
"null","sound/msl/boing.wav","null","audio-keyboard-response","139","76528","0.0-1.0-138.0","",""
"null","sound/msl/ding.wav","null","audio-keyboard-response","140","77038","0.0-1.0-139.0","",""
"null","sound/msl/frog.wav","null","audio-keyboard-response","141","77549","0.0-1.0-140.0","",""
"null","sound/msl/Water.wav","null","audio-keyboard-response","142","78058","0.0-1.0-141.0","",""
"null","sound/msl/door_bell.wav","null","audio-keyboard-response","143","78558","0.0-1.0-142.0","",""
"null","sound/msl/door.wav","null","audio-keyboard-response","144","79054","0.0-1.0-143.0","",""
"null","sound/msl/goat.wav","null","audio-keyboard-response","145","79594","0.0-1.0-144.0","",""
"null","sound/msl/bird.wav","null","audio-keyboard-response","146","80104","0.0-1.0-145.0","",""
"null","sound/msl/slide_whistle.wav","null","audio-keyboard-response","147","80605","0.0-1.0-146.0","",""
"null","sound/msl/cat.wav","null","audio-keyboard-response","148","81104","0.0-1.0-147.0","",""
"null","sound/msl/organ.wav","null","audio-keyboard-response","149","81604","0.0-1.0-148.0","",""
"null","sound/msl/duck.wav","null","audio-keyboard-response","150","82114","0.0-1.0-149.0","",""
"null","sound/msl/Water.wav","null","audio-keyboard-response","151","82625","0.0-1.0-150.0","",""
"null","sound/msl/door_bell.wav","null","audio-keyboard-response","152","83124","0.0-1.0-151.0","",""
"null","sound/msl/door.wav","null","audio-keyboard-response","153","83624","0.0-1.0-152.0","",""
"null","sound/msl/dog.wav","null","audio-keyboard-response","154","84124","0.0-1.0-153.0","",""
"null","sound/msl/cow.wav","null","audio-keyboard-response","155","84634","0.0-1.0-154.0","",""
"null","sound/msl/clock.wav","null","audio-keyboard-response","156","85184","0.0-1.0-155.0","",""
"null","sound/msl/boing.wav","null","audio-keyboard-response","157","85685","0.0-1.0-156.0","",""
"null","sound/msl/ding.wav","null","audio-keyboard-response","158","86194","0.0-1.0-157.0","",""
"null","sound/msl/frog.wav","null","audio-keyboard-response","159","86705","0.0-1.0-158.0","",""
"null","sound/msl/goat.wav","null","audio-keyboard-response","160","87245","0.0-1.0-159.0","",""
"null","sound/msl/bird.wav","null","audio-keyboard-response","161","87755","0.0-1.0-160.0","",""
"null","sound/msl/slide_whistle.wav","null","audio-keyboard-response","162","88255","0.0-1.0-161.0","",""
"null","sound/msl/dog.wav","null","audio-keyboard-response","163","88755","0.0-1.0-162.0","",""
"null","sound/msl/cow.wav","null","audio-keyboard-response","164","89265","0.0-1.0-163.0","",""
"null","sound/msl/clock.wav","null","audio-keyboard-response","165","89815","0.0-1.0-164.0","",""
"null","sound/msl/boing.wav","null","audio-keyboard-response","166","90315","0.0-1.0-165.0","",""
"null","sound/msl/ding.wav","null","audio-keyboard-response","167","90825","0.0-1.0-166.0","",""
"null","sound/msl/frog.wav","null","audio-keyboard-response","168","91325","0.0-1.0-167.0","",""
"null","sound/msl/Water.wav","null","audio-keyboard-response","169","91835","0.0-1.0-168.0","",""
"null","sound/msl/door_bell.wav","null","audio-keyboard-response","170","92346","0.0-1.0-169.0","",""
"null","sound/msl/door.wav","null","audio-keyboard-response","171","92846","0.0-1.0-170.0","",""
"null","sound/msl/cat.wav","null","audio-keyboard-response","172","93346","0.0-1.0-171.0","",""
"null","sound/msl/organ.wav","null","audio-keyboard-response","173","93846","0.0-1.0-172.0","",""
"null","sound/msl/duck.wav","null","audio-keyboard-response","174","94356","0.0-1.0-173.0","",""
"null","sound/msl/goat.wav","null","audio-keyboard-response","175","94896","0.0-1.0-174.0","",""
"null","sound/msl/bird.wav","null","audio-keyboard-response","176","95396","0.0-1.0-175.0","",""
"null","sound/msl/slide_whistle.wav","null","audio-keyboard-response","177","95895","0.0-1.0-176.0","",""
"null","sound/msl/dog.wav","null","audio-keyboard-response","178","96396","0.0-1.0-177.0","",""
"null","sound/msl/cow.wav","null","audio-keyboard-response","179","96906","0.0-1.0-178.0","",""
"null","sound/msl/clock.wav","null","audio-keyboard-response","180","97456","0.0-1.0-179.0","",""
"null","sound/msl/cat.wav","null","audio-keyboard-response","181","97956","0.0-1.0-180.0","",""
"null","sound/msl/organ.wav","null","audio-keyboard-response","182","98456","0.0-1.0-181.0","",""
"null","sound/msl/duck.wav","null","audio-keyboard-response","183","98956","0.0-1.0-182.0","",""
"null","sound/msl/boing.wav","null","audio-keyboard-response","184","99457","0.0-1.0-183.0","",""
"null","sound/msl/ding.wav","null","audio-keyboard-response","185","99957","0.0-1.0-184.0","",""
"null","sound/msl/frog.wav","null","audio-keyboard-response","186","100466","0.0-1.0-185.0","",""
"null","sound/msl/Water.wav","null","audio-keyboard-response","187","100976","0.0-1.0-186.0","",""
"null","sound/msl/door_bell.wav","null","audio-keyboard-response","188","101476","0.0-1.0-187.0","",""
"null","sound/msl/door.wav","null","audio-keyboard-response","189","101977","0.0-1.0-188.0","",""
"null","sound/msl/goat.wav","null","audio-keyboard-response","190","102517","0.0-1.0-189.0","",""
"null","sound/msl/bird.wav","null","audio-keyboard-response","191","103027","0.0-1.0-190.0","",""
"null","sound/msl/slide_whistle.wav","null","audio-keyboard-response","192","103526","0.0-1.0-191.0","",""
"null","sound/msl/dog.wav","null","audio-keyboard-response","193","104037","0.0-1.0-192.0","",""
"null","sound/msl/cow.wav","null","audio-keyboard-response","194","104547","0.0-1.0-193.0","",""
"null","sound/msl/clock.wav","null","audio-keyboard-response","195","105096","0.0-1.0-194.0","",""
"null","sound/msl/cat.wav","null","audio-keyboard-response","196","105597","0.0-1.0-195.0","",""
"null","sound/msl/organ.wav","null","audio-keyboard-response","197","106097","0.0-1.0-196.0","",""
"null","sound/msl/duck.wav","null","audio-keyboard-response","198","106597","0.0-1.0-197.0","",""
"null","sound/msl/Water.wav","null","audio-keyboard-response","199","107107","0.0-1.0-198.0","",""
"null","sound/msl/door_bell.wav","null","audio-keyboard-response","200","107607","0.0-1.0-199.0","",""
"null","sound/msl/door.wav","null","audio-keyboard-response","201","108108","0.0-1.0-200.0","",""
"null","sound/msl/boing.wav","null","audio-keyboard-response","202","108608","0.0-1.0-201.0","",""
"null","sound/msl/ding.wav","null","audio-keyboard-response","203","109119","0.0-1.0-202.0","",""
"null","sound/msl/frog.wav","null","audio-keyboard-response","204","109628","0.0-1.0-203.0","",""
"null","sound/msl/goat.wav","null","audio-keyboard-response","205","110168","0.0-1.0-204.0","",""
"null","sound/msl/bird.wav","null","audio-keyboard-response","206","110678","0.0-1.0-205.0","",""
"null","sound/msl/slide_whistle.wav","null","audio-keyboard-response","207","111178","0.0-1.0-206.0","",""
"null","sound/msl/dog.wav","null","audio-keyboard-response","208","111678","0.0-1.0-207.0","",""
"null","sound/msl/cow.wav","null","audio-keyboard-response","209","112187","0.0-1.0-208.0","",""
"null","sound/msl/clock.wav","null","audio-keyboard-response","210","112738","0.0-1.0-209.0","",""
"null","sound/msl/Water.wav","null","audio-keyboard-response","211","113248","0.0-1.0-210.0","",""
"null","sound/msl/door_bell.wav","null","audio-keyboard-response","212","113759","0.0-1.0-211.0","",""
"null","sound/msl/door.wav","null","audio-keyboard-response","213","114258","0.0-1.0-212.0","",""
"null","sound/msl/goat.wav","null","audio-keyboard-response","214","114799","0.0-1.0-213.0","",""
"null","sound/msl/bird.wav","null","audio-keyboard-response","215","115308","0.0-1.0-214.0","",""
"null","sound/msl/slide_whistle.wav","null","audio-keyboard-response","216","115809","0.0-1.0-215.0","",""
"null","sound/msl/cat.wav","null","audio-keyboard-response","217","116309","0.0-1.0-216.0","",""
"null","sound/msl/organ.wav","null","audio-keyboard-response","218","116808","0.0-1.0-217.0","",""
"null","sound/msl/duck.wav","null","audio-keyboard-response","219","117319","0.0-1.0-218.0","",""
"null","sound/msl/boing.wav","null","audio-keyboard-response","220","117818","0.0-1.0-219.0","",""
"null","sound/msl/ding.wav","null","audio-keyboard-response","221","118319","0.0-1.0-220.0","",""
"null","sound/msl/frog.wav","null","audio-keyboard-response","222","118829","0.0-1.0-221.0","",""
"null","sound/msl/dog.wav","null","audio-keyboard-response","223","119329","0.0-1.0-222.0","",""
"null","sound/msl/cow.wav","null","audio-keyboard-response","224","119834","0.0-1.0-223.0","",""
"null","sound/msl/clock.wav","null","audio-keyboard-response","225","120385","0.0-1.0-224.0","",""
"null","sound/msl/cat.wav","null","audio-keyboard-response","226","120884","0.0-1.0-225.0","",""
"null","sound/msl/organ.wav","null","audio-keyboard-response","227","121384","0.0-1.0-226.0","",""
"null","sound/msl/duck.wav","null","audio-keyboard-response","228","121884","0.0-1.0-227.0","",""
"null","sound/msl/goat.wav","null","audio-keyboard-response","229","122424","0.0-1.0-228.0","",""
"null","sound/msl/bird.wav","null","audio-keyboard-response","230","122925","0.0-1.0-229.0","",""
"null","sound/msl/slide_whistle.wav","null","audio-keyboard-response","231","123425","0.0-1.0-230.0","",""
"null","sound/msl/cat.wav","null","audio-keyboard-response","232","123924","0.0-1.0-231.0","",""
"null","sound/msl/organ.wav","null","audio-keyboard-response","233","124425","0.0-1.0-232.0","",""
"null","sound/msl/duck.wav","null","audio-keyboard-response","234","124925","0.0-1.0-233.0","",""
"null","sound/msl/dog.wav","null","audio-keyboard-response","235","125435","0.0-1.0-234.0","",""
"null","sound/msl/cow.wav","null","audio-keyboard-response","236","125944","0.0-1.0-235.0","",""
"null","sound/msl/clock.wav","null","audio-keyboard-response","237","126495","0.0-1.0-236.0","",""
"null","sound/msl/boing.wav","null","audio-keyboard-response","238","126995","0.0-1.0-237.0","",""
"null","sound/msl/ding.wav","null","audio-keyboard-response","239","127505","0.0-1.0-238.0","",""
"null","sound/msl/frog.wav","null","audio-keyboard-response","240","128006","0.0-1.0-239.0","",""
"null","sound/msl/Water.wav","null","audio-keyboard-response","241","128516","0.0-1.0-240.0","",""
"null","sound/msl/door_bell.wav","null","audio-keyboard-response","242","129025","0.0-1.0-241.0","",""
"null","sound/msl/door.wav","null","audio-keyboard-response","243","129525","0.0-1.0-242.0","",""
"null","sound/msl/goat.wav","null","audio-keyboard-response","244","130065","0.0-1.0-243.0","",""
"null","sound/msl/bird.wav","null","audio-keyboard-response","245","130566","0.0-1.0-244.0","",""
"null","sound/msl/slide_whistle.wav","null","audio-keyboard-response","246","131065","0.0-1.0-245.0","",""
"null","sound/msl/dog.wav","null","audio-keyboard-response","247","131566","0.0-1.0-246.0","",""
"null","sound/msl/cow.wav","null","audio-keyboard-response","248","132075","0.0-1.0-247.0","",""
"null","sound/msl/clock.wav","null","audio-keyboard-response","249","132626","0.0-1.0-248.0","",""
"null","sound/msl/boing.wav","null","audio-keyboard-response","250","133126","0.0-1.0-249.0","",""
"null","sound/msl/ding.wav","null","audio-keyboard-response","251","133636","0.0-1.0-250.0","",""
"null","sound/msl/frog.wav","null","audio-keyboard-response","252","134146","0.0-1.0-251.0","",""
"null","sound/msl/Water.wav","null","audio-keyboard-response","253","134656","0.0-1.0-252.0","",""
"null","sound/msl/door_bell.wav","null","audio-keyboard-response","254","135156","0.0-1.0-253.0","",""
"null","sound/msl/door.wav","null","audio-keyboard-response","255","135656","0.0-1.0-254.0","",""
"null","sound/msl/cat.wav","null","audio-keyboard-response","256","136156","0.0-1.0-255.0","",""
"null","sound/msl/organ.wav","null","audio-keyboard-response","257","136656","0.0-1.0-256.0","",""
"null","sound/msl/duck.wav","null","audio-keyboard-response","258","137156","0.0-1.0-257.0","",""
"null","sound/msl/goat.wav","null","audio-keyboard-response","259","137696","0.0-1.0-258.0","",""
"null","sound/msl/bird.wav","null","audio-keyboard-response","260","138196","0.0-1.0-259.0","",""
"null","sound/msl/slide_whistle.wav","null","audio-keyboard-response","261","138697","0.0-1.0-260.0","",""
"null","sound/msl/Water.wav","null","audio-keyboard-response","262","139207","0.0-1.0-261.0","",""
"null","sound/msl/door_bell.wav","null","audio-keyboard-response","263","139716","0.0-1.0-262.0","",""
"null","sound/msl/door.wav","null","audio-keyboard-response","264","140217","0.0-1.0-263.0","",""
"null","sound/msl/boing.wav","null","audio-keyboard-response","265","140717","0.0-1.0-264.0","",""
"null","sound/msl/ding.wav","null","audio-keyboard-response","266","141227","0.0-1.0-265.0","",""
"null","sound/msl/frog.wav","null","audio-keyboard-response","267","141727","0.0-1.0-266.0","",""
"null","sound/msl/cat.wav","null","audio-keyboard-response","268","142227","0.0-1.0-267.0","",""
"null","sound/msl/organ.wav","null","audio-keyboard-response","269","142727","0.0-1.0-268.0","",""
"null","sound/msl/duck.wav","null","audio-keyboard-response","270","143237","0.0-1.0-269.0","",""
"null","sound/msl/dog.wav","null","audio-keyboard-response","271","143747","0.0-1.0-270.0","",""
"null","sound/msl/cow.wav","null","audio-keyboard-response","272","144247","0.0-1.0-271.0","",""
"null","sound/msl/clock.wav","null","audio-keyboard-response","273","144798","0.0-1.0-272.0","",""
"null","sound/msl/goat.wav","null","audio-keyboard-response","274","145338","0.0-1.0-273.0","",""
"null","sound/msl/bird.wav","null","audio-keyboard-response","275","145838","0.0-1.0-274.0","",""
"null","sound/msl/slide_whistle.wav","null","audio-keyboard-response","276","146337","0.0-1.0-275.0","",""
"null","sound/msl/Water.wav","null","audio-keyboard-response","277","146848","0.0-1.0-276.0","",""
"null","sound/msl/door_bell.wav","null","audio-keyboard-response","278","147358","0.0-1.0-277.0","",""
"null","sound/msl/door.wav","null","audio-keyboard-response","279","147858","0.0-1.0-278.0","",""
"null","sound/msl/boing.wav","null","audio-keyboard-response","280","148358","0.0-1.0-279.0","",""
"null","sound/msl/ding.wav","null","audio-keyboard-response","281","148867","0.0-1.0-280.0","",""
"null","sound/msl/frog.wav","null","audio-keyboard-response","282","149368","0.0-1.0-281.0","",""
"null","sound/msl/dog.wav","null","audio-keyboard-response","283","149878","0.0-1.0-282.0","",""
"null","sound/msl/cow.wav","null","audio-keyboard-response","284","150388","0.0-1.0-283.0","",""
"null","sound/msl/clock.wav","null","audio-keyboard-response","285","150938","0.0-1.0-284.0","",""
"null","sound/msl/cat.wav","null","audio-keyboard-response","286","151438","0.0-1.0-285.0","",""
"null","sound/msl/organ.wav","null","audio-keyboard-response","287","151938","0.0-1.0-286.0","",""
"null","sound/msl/duck.wav","null","audio-keyboard-response","288","152438","0.0-1.0-287.0","",""
"null","sound/msl/goat.wav","null","audio-keyboard-response","289","152979","0.0-1.0-288.0","",""
"null","sound/msl/bird.wav","null","audio-keyboard-response","290","153479","0.0-1.0-289.0","",""
"null","sound/msl/slide_whistle.wav","null","audio-keyboard-response","291","153979","0.0-1.0-290.0","",""
"null","sound/msl/boing.wav","null","audio-keyboard-response","292","154478","0.0-1.0-291.0","",""
"null","sound/msl/ding.wav","null","audio-keyboard-response","293","154989","0.0-1.0-292.0","",""
"null","sound/msl/frog.wav","null","audio-keyboard-response","294","155488","0.0-1.0-293.0","",""
"null","sound/msl/Water.wav","null","audio-keyboard-response","295","155999","0.0-1.0-294.0","",""
"null","sound/msl/door_bell.wav","null","audio-keyboard-response","296","156509","0.0-1.0-295.0","",""
"null","sound/msl/door.wav","null","audio-keyboard-response","297","157009","0.0-1.0-296.0","",""
"null","sound/msl/goat.wav","null","audio-keyboard-response","298","157549","0.0-1.0-297.0","",""
"null","sound/msl/bird.wav","null","audio-keyboard-response","299","158049","0.0-1.0-298.0","",""
"null","sound/msl/slide_whistle.wav","null","audio-keyboard-response","300","158549","0.0-1.0-299.0","",""
"null","sound/msl/dog.wav","null","audio-keyboard-response","301","159049","0.0-1.0-300.0","",""
"null","sound/msl/cow.wav","null","audio-keyboard-response","302","159560","0.0-1.0-301.0","",""
"null","sound/msl/clock.wav","null","audio-keyboard-response","303","160109","0.0-1.0-302.0","",""
"null","sound/msl/boing.wav","null","audio-keyboard-response","304","160605","0.0-1.0-303.0","",""
"null","sound/msl/ding.wav","null","audio-keyboard-response","305","161115","0.0-1.0-304.0","",""
"null","sound/msl/frog.wav","null","audio-keyboard-response","306","161625","0.0-1.0-305.0","",""
"null","sound/msl/cat.wav","null","audio-keyboard-response","307","162125","0.0-1.0-306.0","",""
"null","sound/msl/organ.wav","null","audio-keyboard-response","308","162625","0.0-1.0-307.0","",""
"null","sound/msl/duck.wav","null","audio-keyboard-response","309","163124","0.0-1.0-308.0","",""
"null","sound/msl/Water.wav","null","audio-keyboard-response","310","163635","0.0-1.0-309.0","",""
"null","sound/msl/door_bell.wav","null","audio-keyboard-response","311","164145","0.0-1.0-310.0","",""
"null","sound/msl/door.wav","null","audio-keyboard-response","312","164645","0.0-1.0-311.0","",""
"null","sound/msl/goat.wav","null","audio-keyboard-response","313","165185","0.0-1.0-312.0","",""
"null","sound/msl/bird.wav","null","audio-keyboard-response","314","165685","0.0-1.0-313.0","",""
"null","sound/msl/slide_whistle.wav","null","audio-keyboard-response","315","166185","0.0-1.0-314.0","",""
"null","sound/msl/dog.wav","null","audio-keyboard-response","316","166685","0.0-1.0-315.0","",""
"null","sound/msl/cow.wav","null","audio-keyboard-response","317","167195","0.0-1.0-316.0","",""
"null","sound/msl/clock.wav","null","audio-keyboard-response","318","167745","0.0-1.0-317.0","",""
"null","sound/msl/boing.wav","null","audio-keyboard-response","319","168245","0.0-1.0-318.0","",""
"null","sound/msl/ding.wav","null","audio-keyboard-response","320","168755","0.0-1.0-319.0","",""
"null","sound/msl/frog.wav","null","audio-keyboard-response","321","169265","0.0-1.0-320.0","",""
"null","sound/msl/Water.wav","null","audio-keyboard-response","322","169776","0.0-1.0-321.0","",""
"null","sound/msl/door_bell.wav","null","audio-keyboard-response","323","170275","0.0-1.0-322.0","",""
"null","sound/msl/door.wav","null","audio-keyboard-response","324","170776","0.0-1.0-323.0","",""
"null","sound/msl/dog.wav","null","audio-keyboard-response","325","171276","0.0-1.0-324.0","",""
"null","sound/msl/cow.wav","null","audio-keyboard-response","326","171786","0.0-1.0-325.0","",""
"null","sound/msl/clock.wav","null","audio-keyboard-response","327","172336","0.0-1.0-326.0","",""
"null","sound/msl/cat.wav","null","audio-keyboard-response","328","172837","0.0-1.0-327.0","",""
"null","sound/msl/organ.wav","null","audio-keyboard-response","329","173336","0.0-1.0-328.0","",""
"null","sound/msl/duck.wav","null","audio-keyboard-response","330","173837","0.0-1.0-329.0","",""
"null","sound/msl/goat.wav","null","audio-keyboard-response","331","174377","0.0-1.0-330.0","",""
"null","sound/msl/bird.wav","null","audio-keyboard-response","332","174876","0.0-1.0-331.0","",""
"null","sound/msl/slide_whistle.wav","null","audio-keyboard-response","333","175377","0.0-1.0-332.0","",""
"null","sound/msl/boing.wav","null","audio-keyboard-response","334","175876","0.0-1.0-333.0","",""
"null","sound/msl/ding.wav","null","audio-keyboard-response","335","176386","0.0-1.0-334.0","",""
"null","sound/msl/frog.wav","null","audio-keyboard-response","336","176887","0.0-1.0-335.0","",""
"null","sound/msl/cat.wav","null","audio-keyboard-response","337","177387","0.0-1.0-336.0","",""
"null","sound/msl/organ.wav","null","audio-keyboard-response","338","177887","0.0-1.0-337.0","",""
"null","sound/msl/duck.wav","null","audio-keyboard-response","339","178397","0.0-1.0-338.0","",""
"null","sound/msl/Water.wav","null","audio-keyboard-response","340","178907","0.0-1.0-339.0","",""
"null","sound/msl/door_bell.wav","null","audio-keyboard-response","341","179407","0.0-1.0-340.0","",""
"null","sound/msl/door.wav","null","audio-keyboard-response","342","179907","0.0-1.0-341.0","",""
"null","sound/msl/boing.wav","null","audio-keyboard-response","343","180407","0.0-1.0-342.0","",""
"null","sound/msl/ding.wav","null","audio-keyboard-response","344","180918","0.0-1.0-343.0","",""
"null","sound/msl/frog.wav","null","audio-keyboard-response","345","181428","0.0-1.0-344.0","",""
"null","sound/msl/Water.wav","null","audio-keyboard-response","346","181938","0.0-1.0-345.0","",""
"null","sound/msl/door_bell.wav","null","audio-keyboard-response","347","182437","0.0-1.0-346.0","",""
"null","sound/msl/door.wav","null","audio-keyboard-response","348","182938","0.0-1.0-347.0","",""
"null","sound/msl/cat.wav","null","audio-keyboard-response","349","183438","0.0-1.0-348.0","",""
"null","sound/msl/organ.wav","null","audio-keyboard-response","350","183937","0.0-1.0-349.0","",""
"null","sound/msl/duck.wav","null","audio-keyboard-response","351","184437","0.0-1.0-350.0","",""
"null","sound/msl/goat.wav","null","audio-keyboard-response","352","184978","0.0-1.0-351.0","",""
"null","sound/msl/bird.wav","null","audio-keyboard-response","353","185478","0.0-1.0-352.0","",""
"null","sound/msl/slide_whistle.wav","null","audio-keyboard-response","354","185978","0.0-1.0-353.0","",""
"null","sound/msl/boing.wav","null","audio-keyboard-response","355","186478","0.0-1.0-354.0","",""
"null","sound/msl/ding.wav","null","audio-keyboard-response","356","186988","0.0-1.0-355.0","",""
"null","sound/msl/frog.wav","null","audio-keyboard-response","357","187488","0.0-1.0-356.0","",""
"null","sound/msl/Water.wav","null","audio-keyboard-response","358","187998","0.0-1.0-357.0","",""
"null","sound/msl/door_bell.wav","null","audio-keyboard-response","359","188509","0.0-1.0-358.0","",""
"null","sound/msl/door.wav","null","audio-keyboard-response","360","189009","0.0-1.0-359.0","",""
"4484","Instructions2-eng.png","49","image-keyboard-response","361","193495","0.0-2.0","",""
"null","sound/msl/cat.wav","null","audio-keyboard-response","362","193989","0.0-3.0-0.0","",""
"null","sound/msl/ding.wav","null","audio-keyboard-response","363","194489","0.0-3.0-1.0","",""
"null","sound/msl/slide_whistle.wav","null","audio-keyboard-response","364","194989","0.0-3.0-2.0","",""
"null","sound/asl/silence.wav","null","audio-keyboard-response","365","195491","0.0-3.0-3.0","",""
"null","sound/msl/goat.wav","null","audio-keyboard-response","366","196029","0.0-3.0-4.0","",""
"null","sound/msl/bird.wav","null","audio-keyboard-response","367","196530","0.0-3.0-5.0","",""
"null","sound/msl/slide_whistle.wav","null","audio-keyboard-response","368","197029","0.0-3.0-6.0","",""
"1261","sound/asl/silence.wav","49","audio-keyboard-response","369","198293","0.0-3.0-7.0","false",""
"null","sound/msl/dog.wav","null","audio-keyboard-response","370","198800","0.0-4.0-0.0","",""
"null","sound/msl/cow.wav","null","audio-keyboard-response","371","199309","0.0-4.0-1.0","",""
"null","sound/msl/clock.wav","null","audio-keyboard-response","372","199860","0.0-4.0-2.0","",""
"null","sound/asl/silence.wav","null","audio-keyboard-response","373","200363","0.0-4.0-3.0","",""
"null","sound/msl/dog.wav","null","audio-keyboard-response","374","200869","0.0-4.0-4.0","",""
"null","sound/msl/organ.wav","null","audio-keyboard-response","375","201365","0.0-4.0-5.0","",""
"null","sound/msl/frog.wav","null","audio-keyboard-response","376","201875","0.0-4.0-6.0","",""
"640","sound/asl/silence.wav","50","audio-keyboard-response","377","202518","0.0-4.0-7.0","false",""
"null","sound/msl/dog.wav","null","audio-keyboard-response","378","203025","0.0-5.0-0.0","",""
"null","sound/msl/cow.wav","null","audio-keyboard-response","379","203525","0.0-5.0-1.0","",""
"null","sound/msl/clock.wav","null","audio-keyboard-response","380","204076","0.0-5.0-2.0","",""
"null","sound/asl/silence.wav","null","audio-keyboard-response","381","204577","0.0-5.0-3.0","",""
"null","sound/msl/Water.wav","null","audio-keyboard-response","382","205085","0.0-5.0-4.0","",""
"null","sound/msl/cow.wav","null","audio-keyboard-response","383","205595","0.0-5.0-5.0","",""
"null","sound/msl/duck.wav","null","audio-keyboard-response","384","206106","0.0-5.0-6.0","",""
"741","sound/asl/silence.wav","50","audio-keyboard-response","385","206846","0.0-5.0-7.0","false",""
"null","sound/msl/dog.wav","null","audio-keyboard-response","386","207355","0.0-6.0-0.0","",""
"null","sound/msl/organ.wav","null","audio-keyboard-response","387","207855","0.0-6.0-1.0","",""
"null","sound/msl/frog.wav","null","audio-keyboard-response","388","208356","0.0-6.0-2.0","",""
"null","sound/asl/silence.wav","null","audio-keyboard-response","389","208857","0.0-6.0-3.0","",""
"null","sound/msl/boing.wav","null","audio-keyboard-response","390","209356","0.0-6.0-4.0","",""
"null","sound/msl/ding.wav","null","audio-keyboard-response","391","209866","0.0-6.0-5.0","",""
"null","sound/msl/frog.wav","null","audio-keyboard-response","392","210366","0.0-6.0-6.0","",""
"1299","sound/asl/silence.wav","49","audio-keyboard-response","393","211670","0.0-6.0-7.0","false",""
"null","sound/msl/goat.wav","null","audio-keyboard-response","394","212206","0.0-7.0-0.0","",""
"null","sound/msl/door_bell.wav","null","audio-keyboard-response","395","212716","0.0-7.0-1.0","",""
"null","sound/msl/clock.wav","null","audio-keyboard-response","396","213266","0.0-7.0-2.0","",""
"null","sound/asl/silence.wav","null","audio-keyboard-response","397","213768","0.0-7.0-3.0","",""
"null","sound/msl/dog.wav","null","audio-keyboard-response","398","214276","0.0-7.0-4.0","",""
"null","sound/msl/cow.wav","null","audio-keyboard-response","399","214787","0.0-7.0-5.0","",""
"null","sound/msl/clock.wav","null","audio-keyboard-response","400","215336","0.0-7.0-6.0","",""
"261","sound/asl/silence.wav","50","audio-keyboard-response","401","215606","0.0-7.0-7.0","true",""
"null","sound/msl/boing.wav","null","audio-keyboard-response","402","216107","0.0-8.0-0.0","",""
"null","sound/msl/ding.wav","null","audio-keyboard-response","403","216607","0.0-8.0-1.0","",""
"null","sound/msl/frog.wav","null","audio-keyboard-response","404","217117","0.0-8.0-2.0","",""
"null","sound/asl/silence.wav","null","audio-keyboard-response","405","217618","0.0-8.0-3.0","",""
"null","sound/msl/boing.wav","null","audio-keyboard-response","406","218117","0.0-8.0-4.0","",""
"null","sound/msl/bird.wav","null","audio-keyboard-response","407","218627","0.0-8.0-5.0","",""
"null","sound/msl/door.wav","null","audio-keyboard-response","408","219127","0.0-8.0-6.0","",""
"779","sound/asl/silence.wav","49","audio-keyboard-response","409","219911","0.0-8.0-7.0","true",""
"null","sound/msl/Water.wav","null","audio-keyboard-response","410","220417","0.0-9.0-0.0","",""
"null","sound/msl/cow.wav","null","audio-keyboard-response","411","220917","0.0-9.0-1.0","",""
"null","sound/msl/duck.wav","null","audio-keyboard-response","412","221427","0.0-9.0-2.0","",""
"null","sound/asl/silence.wav","null","audio-keyboard-response","413","221929","0.0-9.0-3.0","",""
"null","sound/msl/boing.wav","null","audio-keyboard-response","414","222427","0.0-9.0-4.0","",""
"null","sound/msl/ding.wav","null","audio-keyboard-response","415","222928","0.0-9.0-5.0","",""
"null","sound/msl/frog.wav","null","audio-keyboard-response","416","223437","0.0-9.0-6.0","",""
"789","sound/asl/silence.wav","49","audio-keyboard-response","417","224230","0.0-9.0-7.0","false",""
"null","sound/msl/Water.wav","null","audio-keyboard-response","418","224738","0.0-10.0-0.0","",""
"null","sound/msl/door_bell.wav","null","audio-keyboard-response","419","225238","0.0-10.0-1.0","",""
"null","sound/msl/door.wav","null","audio-keyboard-response","420","225738","0.0-10.0-2.0","",""
"null","sound/asl/silence.wav","null","audio-keyboard-response","421","226240","0.0-10.0-3.0","",""
"null","sound/msl/boing.wav","null","audio-keyboard-response","422","226739","0.0-10.0-4.0","",""
"null","sound/msl/bird.wav","null","audio-keyboard-response","423","227239","0.0-10.0-5.0","",""
"null","sound/msl/door.wav","null","audio-keyboard-response","424","227738","0.0-10.0-6.0","",""
"400","sound/asl/silence.wav","50","audio-keyboard-response","425","228142","0.0-10.0-7.0","false",""
"null","sound/msl/cat.wav","null","audio-keyboard-response","426","228639","0.0-11.0-0.0","",""
"null","sound/msl/organ.wav","null","audio-keyboard-response","427","229138","0.0-11.0-1.0","",""
"null","sound/msl/duck.wav","null","audio-keyboard-response","428","229638","0.0-11.0-2.0","",""
"null","sound/asl/silence.wav","null","audio-keyboard-response","429","230140","0.0-11.0-3.0","",""
"null","sound/msl/goat.wav","null","audio-keyboard-response","430","230678","0.0-11.0-4.0","",""
"null","sound/msl/door_bell.wav","null","audio-keyboard-response","431","231189","0.0-11.0-5.0","",""
"null","sound/msl/clock.wav","null","audio-keyboard-response","432","231738","0.0-11.0-6.0","",""
"1371","sound/asl/silence.wav","50","audio-keyboard-response","433","233110","0.0-11.0-7.0","false",""
"null","sound/msl/Water.wav","null","audio-keyboard-response","434","233619","0.0-12.0-0.0","",""
"null","sound/msl/cow.wav","null","audio-keyboard-response","435","234119","0.0-12.0-1.0","",""
"null","sound/msl/duck.wav","null","audio-keyboard-response","436","234629","0.0-12.0-2.0","",""
"null","sound/asl/silence.wav","null","audio-keyboard-response","437","235131","0.0-12.0-3.0","",""
"null","sound/msl/Water.wav","null","audio-keyboard-response","438","235640","0.0-12.0-4.0","",""
"null","sound/msl/door_bell.wav","null","audio-keyboard-response","439","236150","0.0-12.0-5.0","",""
"null","sound/msl/door.wav","null","audio-keyboard-response","440","236650","0.0-12.0-6.0","",""
"320","sound/asl/silence.wav","49","audio-keyboard-response","441","236973","0.0-12.0-7.0","false",""
"null","sound/msl/cat.wav","null","audio-keyboard-response","442","237469","0.0-13.0-0.0","",""
"null","sound/msl/ding.wav","null","audio-keyboard-response","443","237969","0.0-13.0-1.0","",""
"null","sound/msl/slide_whistle.wav","null","audio-keyboard-response","444","238469","0.0-13.0-2.0","",""
"null","sound/asl/silence.wav","null","audio-keyboard-response","445","238972","0.0-13.0-3.0","",""
"null","sound/msl/Water.wav","null","audio-keyboard-response","446","239480","0.0-13.0-4.0","",""
"null","sound/msl/door_bell.wav","null","audio-keyboard-response","447","239989","0.0-13.0-5.0","",""
"null","sound/msl/door.wav","null","audio-keyboard-response","448","240490","0.0-13.0-6.0","",""
"469","sound/asl/silence.wav","50","audio-keyboard-response","449","240966","0.0-13.0-7.0","true",""
"null","sound/msl/Water.wav","null","audio-keyboard-response","450","241470","0.0-14.0-0.0","",""
"null","sound/msl/door_bell.wav","null","audio-keyboard-response","451","241965","0.0-14.0-1.0","",""
"null","sound/msl/door.wav","null","audio-keyboard-response","452","242465","0.0-14.0-2.0","",""
"null","sound/asl/silence.wav","null","audio-keyboard-response","453","242968","0.0-14.0-3.0","",""
"null","sound/msl/goat.wav","null","audio-keyboard-response","454","243505","0.0-14.0-4.0","",""
"null","sound/msl/door_bell.wav","null","audio-keyboard-response","455","244005","0.0-14.0-5.0","",""
"null","sound/msl/clock.wav","null","audio-keyboard-response","456","244556","0.0-14.0-6.0","",""
"1749","sound/asl/silence.wav","49","audio-keyboard-response","457","246311","0.0-14.0-7.0","true",""
"null","sound/msl/goat.wav","null","audio-keyboard-response","458","246845","0.0-15.0-0.0","",""
"null","sound/msl/bird.wav","null","audio-keyboard-response","459","247356","0.0-15.0-1.0","",""
"null","sound/msl/slide_whistle.wav","null","audio-keyboard-response","460","247856","0.0-15.0-2.0","",""
"null","sound/asl/silence.wav","null","audio-keyboard-response","461","248357","0.0-15.0-3.0","",""
"null","sound/msl/dog.wav","null","audio-keyboard-response","462","248867","0.0-15.0-4.0","",""
"null","sound/msl/organ.wav","null","audio-keyboard-response","463","249367","0.0-15.0-5.0","",""
"null","sound/msl/frog.wav","null","audio-keyboard-response","464","249876","0.0-15.0-6.0","",""
"491","sound/asl/silence.wav","50","audio-keyboard-response","465","250373","0.0-15.0-7.0","false",""
"null","sound/msl/dog.wav","null","audio-keyboard-response","466","250876","0.0-16.0-0.0","",""
"null","sound/msl/cow.wav","null","audio-keyboard-response","467","251386","0.0-16.0-1.0","",""
"null","sound/msl/clock.wav","null","audio-keyboard-response","468","251936","0.0-16.0-2.0","",""
"null","sound/asl/silence.wav","null","audio-keyboard-response","469","252438","0.0-16.0-3.0","",""
"null","sound/msl/cat.wav","null","audio-keyboard-response","470","252936","0.0-16.0-4.0","",""
"null","sound/msl/ding.wav","null","audio-keyboard-response","471","253437","0.0-16.0-5.0","",""
"null","sound/msl/slide_whistle.wav","null","audio-keyboard-response","472","253936","0.0-16.0-6.0","",""
"1000","sound/asl/silence.wav","50","audio-keyboard-response","473","254941","0.0-16.0-7.0","false",""
"null","sound/msl/cat.wav","null","audio-keyboard-response","474","255437","0.0-17.0-0.0","",""
"null","sound/msl/organ.wav","null","audio-keyboard-response","475","255937","0.0-17.0-1.0","",""
"null","sound/msl/duck.wav","null","audio-keyboard-response","476","256437","0.0-17.0-2.0","",""
"null","sound/asl/silence.wav","null","audio-keyboard-response","477","256939","0.0-17.0-3.0","",""
"null","sound/msl/Water.wav","null","audio-keyboard-response","478","257447","0.0-17.0-4.0","",""
"null","sound/msl/cow.wav","null","audio-keyboard-response","479","257957","0.0-17.0-5.0","",""
"null","sound/msl/duck.wav","null","audio-keyboard-response","480","258468","0.0-17.0-6.0","",""
"760","sound/asl/silence.wav","49","audio-keyboard-response","481","259230","0.0-17.0-7.0","true",""
"null","sound/msl/goat.wav","null","audio-keyboard-response","482","259767","0.0-18.0-0.0","",""
"null","sound/msl/bird.wav","null","audio-keyboard-response","483","260278","0.0-18.0-1.0","",""
"null","sound/msl/slide_whistle.wav","null","audio-keyboard-response","484","260778","0.0-18.0-2.0","",""
"null","sound/asl/silence.wav","null","audio-keyboard-response","485","261279","0.0-18.0-3.0","",""
"null","sound/msl/boing.wav","null","audio-keyboard-response","486","261778","0.0-18.0-4.0","",""
"null","sound/msl/bird.wav","null","audio-keyboard-response","487","262277","0.0-18.0-5.0","",""
"null","sound/msl/door.wav","null","audio-keyboard-response","488","262778","0.0-18.0-6.0","",""
"312","sound/asl/silence.wav","49","audio-keyboard-response","489","263094","0.0-18.0-7.0","true",""
"null","sound/msl/boing.wav","null","audio-keyboard-response","490","263588","0.0-19.0-0.0","",""
"null","sound/msl/bird.wav","null","audio-keyboard-response","491","264088","0.0-19.0-1.0","",""
"null","sound/msl/door.wav","null","audio-keyboard-response","492","264588","0.0-19.0-2.0","",""
"null","sound/asl/silence.wav","null","audio-keyboard-response","493","265089","0.0-19.0-3.0","",""
"null","sound/msl/dog.wav","null","audio-keyboard-response","494","265598","0.0-19.0-4.0","",""
"null","sound/msl/cow.wav","null","audio-keyboard-response","495","266108","0.0-19.0-5.0","",""
"null","sound/msl/clock.wav","null","audio-keyboard-response","496","266659","0.0-19.0-6.0","",""
"331","sound/asl/silence.wav","50","audio-keyboard-response","497","266989","0.0-19.0-7.0","true",""
"null","sound/msl/Water.wav","null","audio-keyboard-response","498","267498","0.0-20.0-0.0","",""
"null","sound/msl/cow.wav","null","audio-keyboard-response","499","267998","0.0-20.0-1.0","",""
"null","sound/msl/duck.wav","null","audio-keyboard-response","500","268509","0.0-20.0-2.0","",""
"null","sound/asl/silence.wav","null","audio-keyboard-response","501","269011","0.0-20.0-3.0","",""
"null","sound/msl/goat.wav","null","audio-keyboard-response","502","269549","0.0-20.0-4.0","",""
"null","sound/msl/bird.wav","null","audio-keyboard-response","503","270048","0.0-20.0-5.0","",""
"null","sound/msl/slide_whistle.wav","null","audio-keyboard-response","504","270549","0.0-20.0-6.0","",""
"920","sound/asl/silence.wav","50","audio-keyboard-response","505","271478","0.0-20.0-7.0","true",""
"null","sound/msl/dog.wav","null","audio-keyboard-response","506","271989","0.0-21.0-0.0","",""
"null","sound/msl/organ.wav","null","audio-keyboard-response","507","272490","0.0-21.0-1.0","",""
"null","sound/msl/frog.wav","null","audio-keyboard-response","508","272999","0.0-21.0-2.0","",""
"null","sound/asl/silence.wav","null","audio-keyboard-response","509","273501","0.0-21.0-3.0","",""
"null","sound/msl/cat.wav","null","audio-keyboard-response","510","273999","0.0-21.0-4.0","",""
"null","sound/msl/organ.wav","null","audio-keyboard-response","511","274499","0.0-21.0-5.0","",""
"null","sound/msl/duck.wav","null","audio-keyboard-response","512","275000","0.0-21.0-6.0","",""
"339","sound/asl/silence.wav","49","audio-keyboard-response","513","275342","0.0-21.0-7.0","false",""
"null","sound/msl/cat.wav","null","audio-keyboard-response","514","275840","0.0-22.0-0.0","",""
"null","sound/msl/ding.wav","null","audio-keyboard-response","515","276349","0.0-22.0-1.0","",""
"null","sound/msl/slide_whistle.wav","null","audio-keyboard-response","516","276850","0.0-22.0-2.0","",""
"null","sound/asl/silence.wav","null","audio-keyboard-response","517","277351","0.0-22.0-3.0","",""
"null","sound/msl/cat.wav","null","audio-keyboard-response","518","277850","0.0-22.0-4.0","",""
"null","sound/msl/organ.wav","null","audio-keyboard-response","519","278350","0.0-22.0-5.0","",""
"null","sound/msl/duck.wav","null","audio-keyboard-response","520","278850","0.0-22.0-6.0","",""
"520","sound/asl/silence.wav","49","audio-keyboard-response","521","279374","0.0-22.0-7.0","false",""
"null","sound/msl/dog.wav","null","audio-keyboard-response","522","279880","0.0-23.0-0.0","",""
"null","sound/msl/organ.wav","null","audio-keyboard-response","523","280380","0.0-23.0-1.0","",""
"null","sound/msl/frog.wav","null","audio-keyboard-response","524","280880","0.0-23.0-2.0","",""
"null","sound/asl/silence.wav","null","audio-keyboard-response","525","281382","0.0-23.0-3.0","",""
"null","sound/msl/Water.wav","null","audio-keyboard-response","526","281890","0.0-23.0-4.0","",""
"null","sound/msl/door_bell.wav","null","audio-keyboard-response","527","282400","0.0-23.0-5.0","",""
"null","sound/msl/door.wav","null","audio-keyboard-response","528","282896","0.0-23.0-6.0","",""
"581","sound/asl/silence.wav","50","audio-keyboard-response","529","283478","0.0-23.0-7.0","true",""
"null","sound/msl/boing.wav","null","audio-keyboard-response","530","283976","0.0-24.0-0.0","",""
"null","sound/msl/ding.wav","null","audio-keyboard-response","531","284475","0.0-24.0-1.0","",""
"null","sound/msl/frog.wav","null","audio-keyboard-response","532","284986","0.0-24.0-2.0","",""
"null","sound/asl/silence.wav","null","audio-keyboard-response","533","285488","0.0-24.0-3.0","",""
"null","sound/msl/goat.wav","null","audio-keyboard-response","534","286026","0.0-24.0-4.0","",""
"null","sound/msl/door_bell.wav","null","audio-keyboard-response","535","286526","0.0-24.0-5.0","",""
"null","sound/msl/clock.wav","null","audio-keyboard-response","536","287076","0.0-24.0-6.0","",""
"379","sound/asl/silence.wav","49","audio-keyboard-response","537","287461","0.0-24.0-7.0","true",""
"null","sound/msl/cat.wav","null","audio-keyboard-response","538","287957","0.0-25.0-0.0","",""
"null","sound/msl/ding.wav","null","audio-keyboard-response","539","288467","0.0-25.0-1.0","",""
"null","sound/msl/slide_whistle.wav","null","audio-keyboard-response","540","288967","0.0-25.0-2.0","",""
"null","sound/asl/silence.wav","null","audio-keyboard-response","541","289467","0.0-25.0-3.0","",""
"null","sound/msl/boing.wav","null","audio-keyboard-response","542","289967","0.0-25.0-4.0","",""
"null","sound/msl/ding.wav","null","audio-keyboard-response","543","290476","0.0-25.0-5.0","",""
"null","sound/msl/frog.wav","null","audio-keyboard-response","544","290987","0.0-25.0-6.0","",""
"341","sound/asl/silence.wav","50","audio-keyboard-response","545","291334","0.0-25.0-7.0","true",""
"null","sound/msl/goat.wav","null","audio-keyboard-response","546","291866","0.0-26.0-0.0","",""
"null","sound/msl/bird.wav","null","audio-keyboard-response","547","292367","0.0-26.0-1.0","",""
"null","sound/msl/slide_whistle.wav","null","audio-keyboard-response","548","292867","0.0-26.0-2.0","",""
"null","sound/asl/silence.wav","null","audio-keyboard-response","549","293369","0.0-26.0-3.0","",""
"null","sound/msl/goat.wav","null","audio-keyboard-response","550","293907","0.0-26.0-4.0","",""
"null","sound/msl/door_bell.wav","null","audio-keyboard-response","551","294407","0.0-26.0-5.0","",""
"null","sound/msl/clock.wav","null","audio-keyboard-response","552","294957","0.0-26.0-6.0","",""
"2179","sound/asl/silence.wav","49","audio-keyboard-response","553","297142","0.0-26.0-7.0","true",""
"null","sound/msl/boing.wav","null","audio-keyboard-response","554","297637","0.0-27.0-0.0","",""
"null","sound/msl/bird.wav","null","audio-keyboard-response","555","298147","0.0-27.0-1.0","",""
"null","sound/msl/door.wav","null","audio-keyboard-response","556","298648","0.0-27.0-2.0","",""
"null","sound/asl/silence.wav","null","audio-keyboard-response","557","299150","0.0-27.0-3.0","",""
"null","sound/msl/cat.wav","null","audio-keyboard-response","558","299648","0.0-27.0-4.0","",""
"null","sound/msl/organ.wav","null","audio-keyboard-response","559","300148","0.0-27.0-5.0","",""
"null","sound/msl/duck.wav","null","audio-keyboard-response","560","300648","0.0-27.0-6.0","",""
"400","sound/asl/silence.wav","50","audio-keyboard-response","561","301053","0.0-27.0-7.0","true",""
"2415","","","instructions","562","303469","0.0-28.0","","[{""page_index"":0,""viewing_time"":2415}]"
