"rt","stimulus","key_press","trial_type","trial_index","time_elapsed","internal_node_id","correct","view_history"
"12844","alien.jpg","49","image-keyboard-response","0","12845","0.0-0.0","",""
"null","sound/msl/ding.wav","null","audio-keyboard-response","1","13351","0.0-1.0-0.0","",""
"null","sound/msl/door_bell.wav","null","audio-keyboard-response","2","13861","0.0-1.0-1.0","",""
"null","sound/msl/clock.wav","null","audio-keyboard-response","3","14412","0.0-1.0-2.0","",""
"null","sound/msl/duck.wav","null","audio-keyboard-response","4","14913","0.0-1.0-3.0","",""
"null","sound/msl/goat.wav","null","audio-keyboard-response","5","15452","0.0-1.0-4.0","",""
"null","sound/msl/slide_whistle.wav","null","audio-keyboard-response","6","15952","0.0-1.0-5.0","",""
"null","sound/msl/organ.wav","null","audio-keyboard-response","7","16451","0.0-1.0-6.0","",""
"null","sound/msl/dog.wav","null","audio-keyboard-response","8","16952","0.0-1.0-7.0","",""
"null","sound/msl/cow.wav","null","audio-keyboard-response","9","17461","0.0-1.0-8.0","",""
"null","sound/msl/Water.wav","null","audio-keyboard-response","10","17972","0.0-1.0-9.0","",""
"null","sound/msl/boing.wav","null","audio-keyboard-response","11","18471","0.0-1.0-10.0","",""
"null","sound/msl/frog.wav","null","audio-keyboard-response","12","18982","0.0-1.0-11.0","",""
"null","sound/msl/duck.wav","null","audio-keyboard-response","13","19482","0.0-1.0-12.0","",""
"null","sound/msl/goat.wav","null","audio-keyboard-response","14","20021","0.0-1.0-13.0","",""
"null","sound/msl/slide_whistle.wav","null","audio-keyboard-response","15","20521","0.0-1.0-14.0","",""
"null","sound/msl/ding.wav","null","audio-keyboard-response","16","21032","0.0-1.0-15.0","",""
"null","sound/msl/door_bell.wav","null","audio-keyboard-response","17","21542","0.0-1.0-16.0","",""
"null","sound/msl/clock.wav","null","audio-keyboard-response","18","22092","0.0-1.0-17.0","",""
"null","sound/msl/bird.wav","null","audio-keyboard-response","19","22592","0.0-1.0-18.0","",""
"null","sound/msl/cat.wav","null","audio-keyboard-response","20","23092","0.0-1.0-19.0","",""
"null","sound/msl/door.wav","null","audio-keyboard-response","21","23591","0.0-1.0-20.0","",""
"null","sound/msl/Water.wav","null","audio-keyboard-response","22","24102","0.0-1.0-21.0","",""
"null","sound/msl/boing.wav","null","audio-keyboard-response","23","24602","0.0-1.0-22.0","",""
"null","sound/msl/frog.wav","null","audio-keyboard-response","24","25112","0.0-1.0-23.0","",""
"null","sound/msl/organ.wav","null","audio-keyboard-response","25","25612","0.0-1.0-24.0","",""
"null","sound/msl/dog.wav","null","audio-keyboard-response","26","26112","0.0-1.0-25.0","",""
"null","sound/msl/cow.wav","null","audio-keyboard-response","27","26622","0.0-1.0-26.0","",""
"null","sound/msl/ding.wav","null","audio-keyboard-response","28","27121","0.0-1.0-27.0","",""
"null","sound/msl/door_bell.wav","null","audio-keyboard-response","29","27632","0.0-1.0-28.0","",""
"null","sound/msl/clock.wav","null","audio-keyboard-response","30","28182","0.0-1.0-29.0","",""
"null","sound/msl/duck.wav","null","audio-keyboard-response","31","28682","0.0-1.0-30.0","",""
"null","sound/msl/goat.wav","null","audio-keyboard-response","32","29222","0.0-1.0-31.0","",""
"null","sound/msl/slide_whistle.wav","null","audio-keyboard-response","33","29721","0.0-1.0-32.0","",""
"null","sound/msl/bird.wav","null","audio-keyboard-response","34","30232","0.0-1.0-33.0","",""
"null","sound/msl/cat.wav","null","audio-keyboard-response","35","30732","0.0-1.0-34.0","",""
"null","sound/msl/door.wav","null","audio-keyboard-response","36","31232","0.0-1.0-35.0","",""
"null","sound/msl/organ.wav","null","audio-keyboard-response","37","31732","0.0-1.0-36.0","",""
"null","sound/msl/dog.wav","null","audio-keyboard-response","38","32231","0.0-1.0-37.0","",""
"null","sound/msl/cow.wav","null","audio-keyboard-response","39","32741","0.0-1.0-38.0","",""
"null","sound/msl/Water.wav","null","audio-keyboard-response","40","33252","0.0-1.0-39.0","",""
"null","sound/msl/boing.wav","null","audio-keyboard-response","41","33751","0.0-1.0-40.0","",""
"null","sound/msl/frog.wav","null","audio-keyboard-response","42","34261","0.0-1.0-41.0","",""
"null","sound/msl/bird.wav","null","audio-keyboard-response","43","34761","0.0-1.0-42.0","",""
"null","sound/msl/cat.wav","null","audio-keyboard-response","44","35261","0.0-1.0-43.0","",""
"null","sound/msl/door.wav","null","audio-keyboard-response","45","35762","0.0-1.0-44.0","",""
"null","sound/msl/duck.wav","null","audio-keyboard-response","46","36271","0.0-1.0-45.0","",""
"null","sound/msl/goat.wav","null","audio-keyboard-response","47","36811","0.0-1.0-46.0","",""
"null","sound/msl/slide_whistle.wav","null","audio-keyboard-response","48","37311","0.0-1.0-47.0","",""
"null","sound/msl/organ.wav","null","audio-keyboard-response","49","37812","0.0-1.0-48.0","",""
"null","sound/msl/dog.wav","null","audio-keyboard-response","50","38311","0.0-1.0-49.0","",""
"null","sound/msl/cow.wav","null","audio-keyboard-response","51","38821","0.0-1.0-50.0","",""
"null","sound/msl/ding.wav","null","audio-keyboard-response","52","39321","0.0-1.0-51.0","",""
"null","sound/msl/door_bell.wav","null","audio-keyboard-response","53","39832","0.0-1.0-52.0","",""
"null","sound/msl/clock.wav","null","audio-keyboard-response","54","40381","0.0-1.0-53.0","",""
"null","sound/msl/duck.wav","null","audio-keyboard-response","55","40881","0.0-1.0-54.0","",""
"null","sound/msl/goat.wav","null","audio-keyboard-response","56","41421","0.0-1.0-55.0","",""
"null","sound/msl/slide_whistle.wav","null","audio-keyboard-response","57","41922","0.0-1.0-56.0","",""
"null","sound/msl/organ.wav","null","audio-keyboard-response","58","42422","0.0-1.0-57.0","",""
"null","sound/msl/dog.wav","null","audio-keyboard-response","59","42921","0.0-1.0-58.0","",""
"null","sound/msl/cow.wav","null","audio-keyboard-response","60","43431","0.0-1.0-59.0","",""
"null","sound/msl/Water.wav","null","audio-keyboard-response","61","43941","0.0-1.0-60.0","",""
"null","sound/msl/boing.wav","null","audio-keyboard-response","62","44441","0.0-1.0-61.0","",""
"null","sound/msl/frog.wav","null","audio-keyboard-response","63","44952","0.0-1.0-62.0","",""
"null","sound/msl/bird.wav","null","audio-keyboard-response","64","45462","0.0-1.0-63.0","",""
"null","sound/msl/cat.wav","null","audio-keyboard-response","65","45961","0.0-1.0-64.0","",""
"null","sound/msl/door.wav","null","audio-keyboard-response","66","46461","0.0-1.0-65.0","",""
"null","sound/msl/duck.wav","null","audio-keyboard-response","67","46962","0.0-1.0-66.0","",""
"null","sound/msl/goat.wav","null","audio-keyboard-response","68","47501","0.0-1.0-67.0","",""
"null","sound/msl/slide_whistle.wav","null","audio-keyboard-response","69","48002","0.0-1.0-68.0","",""
"null","sound/msl/ding.wav","null","audio-keyboard-response","70","48512","0.0-1.0-69.0","",""
"null","sound/msl/door_bell.wav","null","audio-keyboard-response","71","49022","0.0-1.0-70.0","",""
"null","sound/msl/clock.wav","null","audio-keyboard-response","72","49571","0.0-1.0-71.0","",""
"null","sound/msl/organ.wav","null","audio-keyboard-response","73","50071","0.0-1.0-72.0","",""
"null","sound/msl/dog.wav","null","audio-keyboard-response","74","50581","0.0-1.0-73.0","",""
"null","sound/msl/cow.wav","null","audio-keyboard-response","75","51081","0.0-1.0-74.0","",""
"null","sound/msl/Water.wav","null","audio-keyboard-response","76","51592","0.0-1.0-75.0","",""
"null","sound/msl/boing.wav","null","audio-keyboard-response","77","52092","0.0-1.0-76.0","",""
"null","sound/msl/frog.wav","null","audio-keyboard-response","78","52592","0.0-1.0-77.0","",""
"null","sound/msl/organ.wav","null","audio-keyboard-response","79","53092","0.0-1.0-78.0","",""
"null","sound/msl/dog.wav","null","audio-keyboard-response","80","53591","0.0-1.0-79.0","",""
"null","sound/msl/cow.wav","null","audio-keyboard-response","81","54102","0.0-1.0-80.0","",""
"null","sound/msl/bird.wav","null","audio-keyboard-response","82","54602","0.0-1.0-81.0","",""
"null","sound/msl/cat.wav","null","audio-keyboard-response","83","55101","0.0-1.0-82.0","",""
"null","sound/msl/door.wav","null","audio-keyboard-response","84","55601","0.0-1.0-83.0","",""
"null","sound/msl/ding.wav","null","audio-keyboard-response","85","56111","0.0-1.0-84.0","",""
"null","sound/msl/door_bell.wav","null","audio-keyboard-response","86","56622","0.0-1.0-85.0","",""
"null","sound/msl/clock.wav","null","audio-keyboard-response","87","57171","0.0-1.0-86.0","",""
"null","sound/msl/duck.wav","null","audio-keyboard-response","88","57671","0.0-1.0-87.0","",""
"null","sound/msl/goat.wav","null","audio-keyboard-response","89","58212","0.0-1.0-88.0","",""
"null","sound/msl/slide_whistle.wav","null","audio-keyboard-response","90","58712","0.0-1.0-89.0","",""
"null","sound/msl/bird.wav","null","audio-keyboard-response","91","59231","0.0-1.0-90.0","",""
"null","sound/msl/cat.wav","null","audio-keyboard-response","92","59731","0.0-1.0-91.0","",""
"null","sound/msl/door.wav","null","audio-keyboard-response","93","60231","0.0-1.0-92.0","",""
"null","sound/msl/Water.wav","null","audio-keyboard-response","94","60742","0.0-1.0-93.0","",""
"null","sound/msl/boing.wav","null","audio-keyboard-response","95","61241","0.0-1.0-94.0","",""
"null","sound/msl/frog.wav","null","audio-keyboard-response","96","61752","0.0-1.0-95.0","",""
"null","sound/msl/organ.wav","null","audio-keyboard-response","97","62252","0.0-1.0-96.0","",""
"null","sound/msl/dog.wav","null","audio-keyboard-response","98","62761","0.0-1.0-97.0","",""
"null","sound/msl/cow.wav","null","audio-keyboard-response","99","63272","0.0-1.0-98.0","",""
"null","sound/msl/duck.wav","null","audio-keyboard-response","100","63772","0.0-1.0-99.0","",""
"null","sound/msl/goat.wav","null","audio-keyboard-response","101","64311","0.0-1.0-100.0","",""
"null","sound/msl/slide_whistle.wav","null","audio-keyboard-response","102","64811","0.0-1.0-101.0","",""
"null","sound/msl/bird.wav","null","audio-keyboard-response","103","65322","0.0-1.0-102.0","",""
"null","sound/msl/cat.wav","null","audio-keyboard-response","104","65822","0.0-1.0-103.0","",""
"null","sound/msl/door.wav","null","audio-keyboard-response","105","66321","0.0-1.0-104.0","",""
"null","sound/msl/ding.wav","null","audio-keyboard-response","106","66832","0.0-1.0-105.0","",""
"null","sound/msl/door_bell.wav","null","audio-keyboard-response","107","67331","0.0-1.0-106.0","",""
"null","sound/msl/clock.wav","null","audio-keyboard-response","108","67882","0.0-1.0-107.0","",""
"null","sound/msl/duck.wav","null","audio-keyboard-response","109","68391","0.0-1.0-108.0","",""
"null","sound/msl/goat.wav","null","audio-keyboard-response","110","68931","0.0-1.0-109.0","",""
"null","sound/msl/slide_whistle.wav","null","audio-keyboard-response","111","69431","0.0-1.0-110.0","",""
"null","sound/msl/Water.wav","null","audio-keyboard-response","112","69942","0.0-1.0-111.0","",""
"null","sound/msl/boing.wav","null","audio-keyboard-response","113","70442","0.0-1.0-112.0","",""
"null","sound/msl/frog.wav","null","audio-keyboard-response","114","70951","0.0-1.0-113.0","",""
"null","sound/msl/bird.wav","null","audio-keyboard-response","115","71451","0.0-1.0-114.0","",""
"null","sound/msl/cat.wav","null","audio-keyboard-response","116","71952","0.0-1.0-115.0","",""
"null","sound/msl/door.wav","null","audio-keyboard-response","117","72452","0.0-1.0-116.0","",""
"null","sound/msl/organ.wav","null","audio-keyboard-response","118","72952","0.0-1.0-117.0","",""
"null","sound/msl/dog.wav","null","audio-keyboard-response","119","73451","0.0-1.0-118.0","",""
"null","sound/msl/cow.wav","null","audio-keyboard-response","120","73962","0.0-1.0-119.0","",""
"null","sound/msl/ding.wav","null","audio-keyboard-response","121","74472","0.0-1.0-120.0","",""
"null","sound/msl/door_bell.wav","null","audio-keyboard-response","122","74972","0.0-1.0-121.0","",""
"null","sound/msl/clock.wav","null","audio-keyboard-response","123","75521","0.0-1.0-122.0","",""
"null","sound/msl/duck.wav","null","audio-keyboard-response","124","76032","0.0-1.0-123.0","",""
"null","sound/msl/goat.wav","null","audio-keyboard-response","125","76572","0.0-1.0-124.0","",""
"null","sound/msl/slide_whistle.wav","null","audio-keyboard-response","126","77071","0.0-1.0-125.0","",""
"null","sound/msl/bird.wav","null","audio-keyboard-response","127","77572","0.0-1.0-126.0","",""
"null","sound/msl/cat.wav","null","audio-keyboard-response","128","78072","0.0-1.0-127.0","",""
"null","sound/msl/door.wav","null","audio-keyboard-response","129","78572","0.0-1.0-128.0","",""
"null","sound/msl/Water.wav","null","audio-keyboard-response","130","79082","0.0-1.0-129.0","",""
"null","sound/msl/boing.wav","null","audio-keyboard-response","131","79582","0.0-1.0-130.0","",""
"null","sound/msl/frog.wav","null","audio-keyboard-response","132","80081","0.0-1.0-131.0","",""
"null","sound/msl/duck.wav","null","audio-keyboard-response","133","80592","0.0-1.0-132.0","",""
"null","sound/msl/goat.wav","null","audio-keyboard-response","134","81132","0.0-1.0-133.0","",""
"null","sound/msl/slide_whistle.wav","null","audio-keyboard-response","135","81631","0.0-1.0-134.0","",""
"null","sound/msl/organ.wav","null","audio-keyboard-response","136","82132","0.0-1.0-135.0","",""
"null","sound/msl/dog.wav","null","audio-keyboard-response","137","82642","0.0-1.0-136.0","",""
"null","sound/msl/cow.wav","null","audio-keyboard-response","138","83152","0.0-1.0-137.0","",""
"null","sound/msl/Water.wav","null","audio-keyboard-response","139","83662","0.0-1.0-138.0","",""
"null","sound/msl/boing.wav","null","audio-keyboard-response","140","84162","0.0-1.0-139.0","",""
"null","sound/msl/frog.wav","null","audio-keyboard-response","141","84672","0.0-1.0-140.0","",""
"null","sound/msl/ding.wav","null","audio-keyboard-response","142","85172","0.0-1.0-141.0","",""
"null","sound/msl/door_bell.wav","null","audio-keyboard-response","143","85682","0.0-1.0-142.0","",""
"null","sound/msl/clock.wav","null","audio-keyboard-response","144","86232","0.0-1.0-143.0","",""
"null","sound/msl/bird.wav","null","audio-keyboard-response","145","86731","0.0-1.0-144.0","",""
"null","sound/msl/cat.wav","null","audio-keyboard-response","146","87231","0.0-1.0-145.0","",""
"null","sound/msl/door.wav","null","audio-keyboard-response","147","87731","0.0-1.0-146.0","",""
"null","sound/msl/organ.wav","null","audio-keyboard-response","148","88232","0.0-1.0-147.0","",""
"null","sound/msl/dog.wav","null","audio-keyboard-response","149","88733","0.0-1.0-148.0","",""
"null","sound/msl/cow.wav","null","audio-keyboard-response","150","89242","0.0-1.0-149.0","",""
"null","sound/msl/ding.wav","null","audio-keyboard-response","151","89753","0.0-1.0-150.0","",""
"null","sound/msl/door_bell.wav","null","audio-keyboard-response","152","90251","0.0-1.0-151.0","",""
"null","sound/msl/clock.wav","null","audio-keyboard-response","153","90802","0.0-1.0-152.0","",""
"null","sound/msl/duck.wav","null","audio-keyboard-response","154","91312","0.0-1.0-153.0","",""
"null","sound/msl/goat.wav","null","audio-keyboard-response","155","91862","0.0-1.0-154.0","",""
"null","sound/msl/slide_whistle.wav","null","audio-keyboard-response","156","92361","0.0-1.0-155.0","",""
"null","sound/msl/Water.wav","null","audio-keyboard-response","157","92872","0.0-1.0-156.0","",""
"null","sound/msl/boing.wav","null","audio-keyboard-response","158","93372","0.0-1.0-157.0","",""
"null","sound/msl/frog.wav","null","audio-keyboard-response","159","93882","0.0-1.0-158.0","",""
"null","sound/msl/bird.wav","null","audio-keyboard-response","160","94382","0.0-1.0-159.0","",""
"null","sound/msl/cat.wav","null","audio-keyboard-response","161","94881","0.0-1.0-160.0","",""
"null","sound/msl/door.wav","null","audio-keyboard-response","162","95382","0.0-1.0-161.0","",""
"null","sound/msl/duck.wav","null","audio-keyboard-response","163","95891","0.0-1.0-162.0","",""
"null","sound/msl/goat.wav","null","audio-keyboard-response","164","96431","0.0-1.0-163.0","",""
"null","sound/msl/slide_whistle.wav","null","audio-keyboard-response","165","96932","0.0-1.0-164.0","",""
"null","sound/msl/Water.wav","null","audio-keyboard-response","166","97442","0.0-1.0-165.0","",""
"null","sound/msl/boing.wav","null","audio-keyboard-response","167","97942","0.0-1.0-166.0","",""
"null","sound/msl/frog.wav","null","audio-keyboard-response","168","98452","0.0-1.0-167.0","",""
"null","sound/msl/ding.wav","null","audio-keyboard-response","169","98962","0.0-1.0-168.0","",""
"null","sound/msl/door_bell.wav","null","audio-keyboard-response","170","99461","0.0-1.0-169.0","",""
"null","sound/msl/clock.wav","null","audio-keyboard-response","171","100012","0.0-1.0-170.0","",""
"null","sound/msl/organ.wav","null","audio-keyboard-response","172","100511","0.0-1.0-171.0","",""
"null","sound/msl/dog.wav","null","audio-keyboard-response","173","101012","0.0-1.0-172.0","",""
"null","sound/msl/cow.wav","null","audio-keyboard-response","174","101521","0.0-1.0-173.0","",""
"null","sound/msl/bird.wav","null","audio-keyboard-response","175","102022","0.0-1.0-174.0","",""
"null","sound/msl/cat.wav","null","audio-keyboard-response","176","102522","0.0-1.0-175.0","",""
"null","sound/msl/door.wav","null","audio-keyboard-response","177","103022","0.0-1.0-176.0","",""
"null","sound/msl/duck.wav","null","audio-keyboard-response","178","103532","0.0-1.0-177.0","",""
"null","sound/msl/goat.wav","null","audio-keyboard-response","179","104073","0.0-1.0-178.0","",""
"null","sound/msl/slide_whistle.wav","null","audio-keyboard-response","180","104573","0.0-1.0-179.0","",""
"null","sound/msl/organ.wav","null","audio-keyboard-response","181","105071","0.0-1.0-180.0","",""
"null","sound/msl/dog.wav","null","audio-keyboard-response","182","105573","0.0-1.0-181.0","",""
"null","sound/msl/cow.wav","null","audio-keyboard-response","183","106081","0.0-1.0-182.0","",""
"null","sound/msl/Water.wav","null","audio-keyboard-response","184","106591","0.0-1.0-183.0","",""
"null","sound/msl/boing.wav","null","audio-keyboard-response","185","107092","0.0-1.0-184.0","",""
"null","sound/msl/frog.wav","null","audio-keyboard-response","186","107611","0.0-1.0-185.0","",""
"null","sound/msl/ding.wav","null","audio-keyboard-response","187","108112","0.0-1.0-186.0","",""
"null","sound/msl/door_bell.wav","null","audio-keyboard-response","188","108612","0.0-1.0-187.0","",""
"null","sound/msl/clock.wav","null","audio-keyboard-response","189","109161","0.0-1.0-188.0","",""
"null","sound/msl/bird.wav","null","audio-keyboard-response","190","109663","0.0-1.0-189.0","",""
"null","sound/msl/cat.wav","null","audio-keyboard-response","191","110162","0.0-1.0-190.0","",""
"null","sound/msl/door.wav","null","audio-keyboard-response","192","110662","0.0-1.0-191.0","",""
"null","sound/msl/duck.wav","null","audio-keyboard-response","193","111172","0.0-1.0-192.0","",""
"null","sound/msl/goat.wav","null","audio-keyboard-response","194","111712","0.0-1.0-193.0","",""
"null","sound/msl/slide_whistle.wav","null","audio-keyboard-response","195","112212","0.0-1.0-194.0","",""
"null","sound/msl/organ.wav","null","audio-keyboard-response","196","112712","0.0-1.0-195.0","",""
"null","sound/msl/dog.wav","null","audio-keyboard-response","197","113212","0.0-1.0-196.0","",""
"null","sound/msl/cow.wav","null","audio-keyboard-response","198","113722","0.0-1.0-197.0","",""
"null","sound/msl/ding.wav","null","audio-keyboard-response","199","114222","0.0-1.0-198.0","",""
"null","sound/msl/door_bell.wav","null","audio-keyboard-response","200","114732","0.0-1.0-199.0","",""
"null","sound/msl/clock.wav","null","audio-keyboard-response","201","115283","0.0-1.0-200.0","",""
"null","sound/msl/Water.wav","null","audio-keyboard-response","202","115793","0.0-1.0-201.0","",""
"null","sound/msl/boing.wav","null","audio-keyboard-response","203","116292","0.0-1.0-202.0","",""
"null","sound/msl/frog.wav","null","audio-keyboard-response","204","116802","0.0-1.0-203.0","",""
"null","sound/msl/bird.wav","null","audio-keyboard-response","205","117302","0.0-1.0-204.0","",""
"null","sound/msl/cat.wav","null","audio-keyboard-response","206","117803","0.0-1.0-205.0","",""
"null","sound/msl/door.wav","null","audio-keyboard-response","207","118301","0.0-1.0-206.0","",""
"null","sound/msl/duck.wav","null","audio-keyboard-response","208","118812","0.0-1.0-207.0","",""
"null","sound/msl/goat.wav","null","audio-keyboard-response","209","119351","0.0-1.0-208.0","",""
"null","sound/msl/slide_whistle.wav","null","audio-keyboard-response","210","119852","0.0-1.0-209.0","",""
"null","sound/msl/ding.wav","null","audio-keyboard-response","211","120361","0.0-1.0-210.0","",""
"null","sound/msl/door_bell.wav","null","audio-keyboard-response","212","120862","0.0-1.0-211.0","",""
"null","sound/msl/clock.wav","null","audio-keyboard-response","213","121412","0.0-1.0-212.0","",""
"null","sound/msl/bird.wav","null","audio-keyboard-response","214","121921","0.0-1.0-213.0","",""
"null","sound/msl/cat.wav","null","audio-keyboard-response","215","122422","0.0-1.0-214.0","",""
"null","sound/msl/door.wav","null","audio-keyboard-response","216","122922","0.0-1.0-215.0","",""
"null","sound/msl/organ.wav","null","audio-keyboard-response","217","123422","0.0-1.0-216.0","",""
"null","sound/msl/dog.wav","null","audio-keyboard-response","218","123932","0.0-1.0-217.0","",""
"null","sound/msl/cow.wav","null","audio-keyboard-response","219","124442","0.0-1.0-218.0","",""
"null","sound/msl/Water.wav","null","audio-keyboard-response","220","124951","0.0-1.0-219.0","",""
"null","sound/msl/boing.wav","null","audio-keyboard-response","221","125451","0.0-1.0-220.0","",""
"null","sound/msl/frog.wav","null","audio-keyboard-response","222","125972","0.0-1.0-221.0","",""
"null","sound/msl/duck.wav","null","audio-keyboard-response","223","126472","0.0-1.0-222.0","",""
"null","sound/msl/goat.wav","null","audio-keyboard-response","224","127012","0.0-1.0-223.0","",""
"null","sound/msl/slide_whistle.wav","null","audio-keyboard-response","225","127512","0.0-1.0-224.0","",""
"null","sound/msl/organ.wav","null","audio-keyboard-response","226","128011","0.0-1.0-225.0","",""
"null","sound/msl/dog.wav","null","audio-keyboard-response","227","128512","0.0-1.0-226.0","",""
"null","sound/msl/cow.wav","null","audio-keyboard-response","228","129022","0.0-1.0-227.0","",""
"null","sound/msl/bird.wav","null","audio-keyboard-response","229","129532","0.0-1.0-228.0","",""
"null","sound/msl/cat.wav","null","audio-keyboard-response","230","130031","0.0-1.0-229.0","",""
"null","sound/msl/door.wav","null","audio-keyboard-response","231","130532","0.0-1.0-230.0","",""
"null","sound/msl/organ.wav","null","audio-keyboard-response","232","131031","0.0-1.0-231.0","",""
"null","sound/msl/dog.wav","null","audio-keyboard-response","233","131542","0.0-1.0-232.0","",""
"null","sound/msl/cow.wav","null","audio-keyboard-response","234","132052","0.0-1.0-233.0","",""
"null","sound/msl/duck.wav","null","audio-keyboard-response","235","132551","0.0-1.0-234.0","",""
"null","sound/msl/goat.wav","null","audio-keyboard-response","236","133093","0.0-1.0-235.0","",""
"null","sound/msl/slide_whistle.wav","null","audio-keyboard-response","237","133592","0.0-1.0-236.0","",""
"null","sound/msl/Water.wav","null","audio-keyboard-response","238","134102","0.0-1.0-237.0","",""
"null","sound/msl/boing.wav","null","audio-keyboard-response","239","134602","0.0-1.0-238.0","",""
"null","sound/msl/frog.wav","null","audio-keyboard-response","240","135101","0.0-1.0-239.0","",""
"null","sound/msl/ding.wav","null","audio-keyboard-response","241","135612","0.0-1.0-240.0","",""
"null","sound/msl/door_bell.wav","null","audio-keyboard-response","242","136112","0.0-1.0-241.0","",""
"null","sound/msl/clock.wav","null","audio-keyboard-response","243","136662","0.0-1.0-242.0","",""
"null","sound/msl/bird.wav","null","audio-keyboard-response","244","137171","0.0-1.0-243.0","",""
"null","sound/msl/cat.wav","null","audio-keyboard-response","245","137671","0.0-1.0-244.0","",""
"null","sound/msl/door.wav","null","audio-keyboard-response","246","138171","0.0-1.0-245.0","",""
"null","sound/msl/duck.wav","null","audio-keyboard-response","247","138671","0.0-1.0-246.0","",""
"null","sound/msl/goat.wav","null","audio-keyboard-response","248","139212","0.0-1.0-247.0","",""
"null","sound/msl/slide_whistle.wav","null","audio-keyboard-response","249","139712","0.0-1.0-248.0","",""
"null","sound/msl/Water.wav","null","audio-keyboard-response","250","140222","0.0-1.0-249.0","",""
"null","sound/msl/boing.wav","null","audio-keyboard-response","251","140723","0.0-1.0-250.0","",""
"null","sound/msl/frog.wav","null","audio-keyboard-response","252","141222","0.0-1.0-251.0","",""
"null","sound/msl/ding.wav","null","audio-keyboard-response","253","141731","0.0-1.0-252.0","",""
"null","sound/msl/door_bell.wav","null","audio-keyboard-response","254","142233","0.0-1.0-253.0","",""
"null","sound/msl/clock.wav","null","audio-keyboard-response","255","142782","0.0-1.0-254.0","",""
"null","sound/msl/organ.wav","null","audio-keyboard-response","256","143282","0.0-1.0-255.0","",""
"null","sound/msl/dog.wav","null","audio-keyboard-response","257","143782","0.0-1.0-256.0","",""
"null","sound/msl/cow.wav","null","audio-keyboard-response","258","144292","0.0-1.0-257.0","",""
"null","sound/msl/bird.wav","null","audio-keyboard-response","259","144791","0.0-1.0-258.0","",""
"null","sound/msl/cat.wav","null","audio-keyboard-response","260","145291","0.0-1.0-259.0","",""
"null","sound/msl/door.wav","null","audio-keyboard-response","261","145792","0.0-1.0-260.0","",""
"null","sound/msl/ding.wav","null","audio-keyboard-response","262","146302","0.0-1.0-261.0","",""
"null","sound/msl/door_bell.wav","null","audio-keyboard-response","263","146811","0.0-1.0-262.0","",""
"null","sound/msl/clock.wav","null","audio-keyboard-response","264","147362","0.0-1.0-263.0","",""
"null","sound/msl/Water.wav","null","audio-keyboard-response","265","147871","0.0-1.0-264.0","",""
"null","sound/msl/boing.wav","null","audio-keyboard-response","266","148373","0.0-1.0-265.0","",""
"null","sound/msl/frog.wav","null","audio-keyboard-response","267","148872","0.0-1.0-266.0","",""
"null","sound/msl/organ.wav","null","audio-keyboard-response","268","149372","0.0-1.0-267.0","",""
"null","sound/msl/dog.wav","null","audio-keyboard-response","269","149871","0.0-1.0-268.0","",""
"null","sound/msl/cow.wav","null","audio-keyboard-response","270","150382","0.0-1.0-269.0","",""
"null","sound/msl/duck.wav","null","audio-keyboard-response","271","150892","0.0-1.0-270.0","",""
"null","sound/msl/goat.wav","null","audio-keyboard-response","272","151432","0.0-1.0-271.0","",""
"null","sound/msl/slide_whistle.wav","null","audio-keyboard-response","273","151932","0.0-1.0-272.0","",""
"null","sound/msl/bird.wav","null","audio-keyboard-response","274","152432","0.0-1.0-273.0","",""
"null","sound/msl/cat.wav","null","audio-keyboard-response","275","152932","0.0-1.0-274.0","",""
"null","sound/msl/door.wav","null","audio-keyboard-response","276","153432","0.0-1.0-275.0","",""
"null","sound/msl/ding.wav","null","audio-keyboard-response","277","153942","0.0-1.0-276.0","",""
"null","sound/msl/door_bell.wav","null","audio-keyboard-response","278","154452","0.0-1.0-277.0","",""
"null","sound/msl/clock.wav","null","audio-keyboard-response","279","155002","0.0-1.0-278.0","",""
"null","sound/msl/Water.wav","null","audio-keyboard-response","280","155512","0.0-1.0-279.0","",""
"null","sound/msl/boing.wav","null","audio-keyboard-response","281","156011","0.0-1.0-280.0","",""
"null","sound/msl/frog.wav","null","audio-keyboard-response","282","156511","0.0-1.0-281.0","",""
"null","sound/msl/duck.wav","null","audio-keyboard-response","283","157022","0.0-1.0-282.0","",""
"null","sound/msl/goat.wav","null","audio-keyboard-response","284","157562","0.0-1.0-283.0","",""
"null","sound/msl/slide_whistle.wav","null","audio-keyboard-response","285","158062","0.0-1.0-284.0","",""
"null","sound/msl/organ.wav","null","audio-keyboard-response","286","158562","0.0-1.0-285.0","",""
"null","sound/msl/dog.wav","null","audio-keyboard-response","287","159061","0.0-1.0-286.0","",""
"null","sound/msl/cow.wav","null","audio-keyboard-response","288","159573","0.0-1.0-287.0","",""
"null","sound/msl/bird.wav","null","audio-keyboard-response","289","160071","0.0-1.0-288.0","",""
"null","sound/msl/cat.wav","null","audio-keyboard-response","290","160572","0.0-1.0-289.0","",""
"null","sound/msl/door.wav","null","audio-keyboard-response","291","161072","0.0-1.0-290.0","",""
"null","sound/msl/Water.wav","null","audio-keyboard-response","292","161581","0.0-1.0-291.0","",""
"null","sound/msl/boing.wav","null","audio-keyboard-response","293","162082","0.0-1.0-292.0","",""
"null","sound/msl/frog.wav","null","audio-keyboard-response","294","162592","0.0-1.0-293.0","",""
"null","sound/msl/ding.wav","null","audio-keyboard-response","295","163101","0.0-1.0-294.0","",""
"null","sound/msl/door_bell.wav","null","audio-keyboard-response","296","163602","0.0-1.0-295.0","",""
"null","sound/msl/clock.wav","null","audio-keyboard-response","297","164153","0.0-1.0-296.0","",""
"null","sound/msl/bird.wav","null","audio-keyboard-response","298","164662","0.0-1.0-297.0","",""
"null","sound/msl/cat.wav","null","audio-keyboard-response","299","165162","0.0-1.0-298.0","",""
"null","sound/msl/door.wav","null","audio-keyboard-response","300","165661","0.0-1.0-299.0","",""
"null","sound/msl/duck.wav","null","audio-keyboard-response","301","166162","0.0-1.0-300.0","",""
"null","sound/msl/goat.wav","null","audio-keyboard-response","302","166702","0.0-1.0-301.0","",""
"null","sound/msl/slide_whistle.wav","null","audio-keyboard-response","303","167202","0.0-1.0-302.0","",""
"null","sound/msl/Water.wav","null","audio-keyboard-response","304","167712","0.0-1.0-303.0","",""
"null","sound/msl/boing.wav","null","audio-keyboard-response","305","168211","0.0-1.0-304.0","",""
"null","sound/msl/frog.wav","null","audio-keyboard-response","306","168713","0.0-1.0-305.0","",""
"null","sound/msl/organ.wav","null","audio-keyboard-response","307","169212","0.0-1.0-306.0","",""
"null","sound/msl/dog.wav","null","audio-keyboard-response","308","169712","0.0-1.0-307.0","",""
"null","sound/msl/cow.wav","null","audio-keyboard-response","309","170222","0.0-1.0-308.0","",""
"null","sound/msl/ding.wav","null","audio-keyboard-response","310","170722","0.0-1.0-309.0","",""
"null","sound/msl/door_bell.wav","null","audio-keyboard-response","311","171232","0.0-1.0-310.0","",""
"null","sound/msl/clock.wav","null","audio-keyboard-response","312","171782","0.0-1.0-311.0","",""
"null","sound/msl/bird.wav","null","audio-keyboard-response","313","172281","0.0-1.0-312.0","",""
"null","sound/msl/cat.wav","null","audio-keyboard-response","314","172782","0.0-1.0-313.0","",""
"null","sound/msl/door.wav","null","audio-keyboard-response","315","173282","0.0-1.0-314.0","",""
"null","sound/msl/duck.wav","null","audio-keyboard-response","316","173792","0.0-1.0-315.0","",""
"null","sound/msl/goat.wav","null","audio-keyboard-response","317","174332","0.0-1.0-316.0","",""
"null","sound/msl/slide_whistle.wav","null","audio-keyboard-response","318","174832","0.0-1.0-317.0","",""
"null","sound/msl/Water.wav","null","audio-keyboard-response","319","175343","0.0-1.0-318.0","",""
"null","sound/msl/boing.wav","null","audio-keyboard-response","320","175842","0.0-1.0-319.0","",""
"null","sound/msl/frog.wav","null","audio-keyboard-response","321","176352","0.0-1.0-320.0","",""
"null","sound/msl/ding.wav","null","audio-keyboard-response","322","176861","0.0-1.0-321.0","",""
"null","sound/msl/door_bell.wav","null","audio-keyboard-response","323","177362","0.0-1.0-322.0","",""
"null","sound/msl/clock.wav","null","audio-keyboard-response","324","177913","0.0-1.0-323.0","",""
"null","sound/msl/duck.wav","null","audio-keyboard-response","325","178422","0.0-1.0-324.0","",""
"null","sound/msl/goat.wav","null","audio-keyboard-response","326","178962","0.0-1.0-325.0","",""
"null","sound/msl/slide_whistle.wav","null","audio-keyboard-response","327","179462","0.0-1.0-326.0","",""
"null","sound/msl/organ.wav","null","audio-keyboard-response","328","179962","0.0-1.0-327.0","",""
"null","sound/msl/dog.wav","null","audio-keyboard-response","329","180472","0.0-1.0-328.0","",""
"null","sound/msl/cow.wav","null","audio-keyboard-response","330","180982","0.0-1.0-329.0","",""
"null","sound/msl/bird.wav","null","audio-keyboard-response","331","181482","0.0-1.0-330.0","",""
"null","sound/msl/cat.wav","null","audio-keyboard-response","332","181982","0.0-1.0-331.0","",""
"null","sound/msl/door.wav","null","audio-keyboard-response","333","182481","0.0-1.0-332.0","",""
"null","sound/msl/Water.wav","null","audio-keyboard-response","334","182992","0.0-1.0-333.0","",""
"null","sound/msl/boing.wav","null","audio-keyboard-response","335","183492","0.0-1.0-334.0","",""
"null","sound/msl/frog.wav","null","audio-keyboard-response","336","183991","0.0-1.0-335.0","",""
"null","sound/msl/organ.wav","null","audio-keyboard-response","337","184492","0.0-1.0-336.0","",""
"null","sound/msl/dog.wav","null","audio-keyboard-response","338","184991","0.0-1.0-337.0","",""
"null","sound/msl/cow.wav","null","audio-keyboard-response","339","185502","0.0-1.0-338.0","",""
"null","sound/msl/ding.wav","null","audio-keyboard-response","340","186002","0.0-1.0-339.0","",""
"null","sound/msl/door_bell.wav","null","audio-keyboard-response","341","186512","0.0-1.0-340.0","",""
"null","sound/msl/clock.wav","null","audio-keyboard-response","342","187062","0.0-1.0-341.0","",""
"null","sound/msl/Water.wav","null","audio-keyboard-response","343","187572","0.0-1.0-342.0","",""
"null","sound/msl/boing.wav","null","audio-keyboard-response","344","188072","0.0-1.0-343.0","",""
"null","sound/msl/frog.wav","null","audio-keyboard-response","345","188581","0.0-1.0-344.0","",""
"null","sound/msl/ding.wav","null","audio-keyboard-response","346","189082","0.0-1.0-345.0","",""
"null","sound/msl/door_bell.wav","null","audio-keyboard-response","347","189592","0.0-1.0-346.0","",""
"null","sound/msl/clock.wav","null","audio-keyboard-response","348","190142","0.0-1.0-347.0","",""
"null","sound/msl/organ.wav","null","audio-keyboard-response","349","190641","0.0-1.0-348.0","",""
"null","sound/msl/dog.wav","null","audio-keyboard-response","350","191152","0.0-1.0-349.0","",""
"null","sound/msl/cow.wav","null","audio-keyboard-response","351","191662","0.0-1.0-350.0","",""
"null","sound/msl/bird.wav","null","audio-keyboard-response","352","192162","0.0-1.0-351.0","",""
"null","sound/msl/cat.wav","null","audio-keyboard-response","353","192661","0.0-1.0-352.0","",""
"null","sound/msl/door.wav","null","audio-keyboard-response","354","193162","0.0-1.0-353.0","",""
"null","sound/msl/Water.wav","null","audio-keyboard-response","355","193671","0.0-1.0-354.0","",""
"null","sound/msl/boing.wav","null","audio-keyboard-response","356","194172","0.0-1.0-355.0","",""
"null","sound/msl/frog.wav","null","audio-keyboard-response","357","194671","0.0-1.0-356.0","",""
"null","sound/msl/ding.wav","null","audio-keyboard-response","358","195182","0.0-1.0-357.0","",""
"null","sound/msl/door_bell.wav","null","audio-keyboard-response","359","195682","0.0-1.0-358.0","",""
"null","sound/msl/clock.wav","null","audio-keyboard-response","360","196242","0.0-1.0-359.0","",""
"18273","Instructions2-eng.png","49","image-keyboard-response","361","214516","0.0-2.0","",""
"null","sound/msl/Water.wav","null","audio-keyboard-response","362","215022","0.0-3.0-0.0","",""
"null","sound/msl/cat.wav","null","audio-keyboard-response","363","215521","0.0-3.0-1.0","",""
"null","sound/msl/clock.wav","null","audio-keyboard-response","364","216071","0.0-3.0-2.0","",""
"null","sound/asl/silence.wav","null","audio-keyboard-response","365","216573","0.0-3.0-3.0","",""
"null","sound/msl/organ.wav","null","audio-keyboard-response","366","217072","0.0-3.0-4.0","",""
"null","sound/msl/dog.wav","null","audio-keyboard-response","367","217572","0.0-3.0-5.0","",""
"null","sound/msl/cow.wav","null","audio-keyboard-response","368","218081","0.0-3.0-6.0","",""
"6800","sound/asl/silence.wav","50","audio-keyboard-response","369","224882","0.0-3.0-7.0","true",""
"null","sound/msl/duck.wav","null","audio-keyboard-response","370","225391","0.0-4.0-0.0","",""
"null","sound/msl/goat.wav","null","audio-keyboard-response","371","225932","0.0-4.0-1.0","",""
"null","sound/msl/slide_whistle.wav","null","audio-keyboard-response","372","226432","0.0-4.0-2.0","",""
"null","sound/asl/silence.wav","null","audio-keyboard-response","373","226932","0.0-4.0-3.0","",""
"null","sound/msl/duck.wav","null","audio-keyboard-response","374","227442","0.0-4.0-4.0","",""
"null","sound/msl/dog.wav","null","audio-keyboard-response","375","227951","0.0-4.0-5.0","",""
"null","sound/msl/frog.wav","null","audio-keyboard-response","376","228452","0.0-4.0-6.0","",""
"1189","sound/asl/silence.wav","49","audio-keyboard-response","377","229642","0.0-4.0-7.0","true",""
"null","sound/msl/Water.wav","null","audio-keyboard-response","378","230161","0.0-5.0-0.0","",""
"null","sound/msl/boing.wav","null","audio-keyboard-response","379","230662","0.0-5.0-1.0","",""
"null","sound/msl/frog.wav","null","audio-keyboard-response","380","231173","0.0-5.0-2.0","",""
"null","sound/asl/silence.wav","null","audio-keyboard-response","381","231673","0.0-5.0-3.0","",""
"null","sound/msl/Water.wav","null","audio-keyboard-response","382","232182","0.0-5.0-4.0","",""
"null","sound/msl/cat.wav","null","audio-keyboard-response","383","232683","0.0-5.0-5.0","",""
"null","sound/msl/clock.wav","null","audio-keyboard-response","384","233231","0.0-5.0-6.0","",""
"549","sound/asl/silence.wav","50","audio-keyboard-response","385","233791","0.0-5.0-7.0","false",""
"null","sound/msl/duck.wav","null","audio-keyboard-response","386","234282","0.0-6.0-0.0","",""
"null","sound/msl/goat.wav","null","audio-keyboard-response","387","234822","0.0-6.0-1.0","",""
"null","sound/msl/slide_whistle.wav","null","audio-keyboard-response","388","235321","0.0-6.0-2.0","",""
"null","sound/asl/silence.wav","null","audio-keyboard-response","389","235823","0.0-6.0-3.0","",""
"null","sound/msl/ding.wav","null","audio-keyboard-response","390","236322","0.0-6.0-4.0","",""
"null","sound/msl/goat.wav","null","audio-keyboard-response","391","236861","0.0-6.0-5.0","",""
"null","sound/msl/cow.wav","null","audio-keyboard-response","392","237362","0.0-6.0-6.0","",""
"2171","sound/asl/silence.wav","49","audio-keyboard-response","393","239540","0.0-6.0-7.0","true",""
"null","sound/msl/organ.wav","null","audio-keyboard-response","394","240032","0.0-7.0-0.0","",""
"null","sound/msl/boing.wav","null","audio-keyboard-response","395","240532","0.0-7.0-1.0","",""
"null","sound/msl/door.wav","null","audio-keyboard-response","396","241031","0.0-7.0-2.0","",""
"null","sound/asl/silence.wav","null","audio-keyboard-response","397","241532","0.0-7.0-3.0","",""
"null","sound/msl/Water.wav","null","audio-keyboard-response","398","242042","0.0-7.0-4.0","",""
"null","sound/msl/boing.wav","null","audio-keyboard-response","399","242541","0.0-7.0-5.0","",""
"null","sound/msl/frog.wav","null","audio-keyboard-response","400","243042","0.0-7.0-6.0","",""
"720","sound/asl/silence.wav","50","audio-keyboard-response","401","243769","0.0-7.0-7.0","true",""
"null","sound/msl/duck.wav","null","audio-keyboard-response","402","244273","0.0-8.0-0.0","",""
"null","sound/msl/dog.wav","null","audio-keyboard-response","403","244772","0.0-8.0-1.0","",""
"null","sound/msl/frog.wav","null","audio-keyboard-response","404","245281","0.0-8.0-2.0","",""
"null","sound/asl/silence.wav","null","audio-keyboard-response","405","245782","0.0-8.0-3.0","",""
"null","sound/msl/organ.wav","null","audio-keyboard-response","406","246282","0.0-8.0-4.0","",""
"null","sound/msl/dog.wav","null","audio-keyboard-response","407","246792","0.0-8.0-5.0","",""
"null","sound/msl/cow.wav","null","audio-keyboard-response","408","247291","0.0-8.0-6.0","",""
"829","sound/asl/silence.wav","50","audio-keyboard-response","409","248125","0.0-8.0-7.0","true",""
"null","sound/msl/organ.wav","null","audio-keyboard-response","410","248622","0.0-9.0-0.0","",""
"null","sound/msl/dog.wav","null","audio-keyboard-response","411","249122","0.0-9.0-1.0","",""
"null","sound/msl/cow.wav","null","audio-keyboard-response","412","249632","0.0-9.0-2.0","",""
"null","sound/asl/silence.wav","null","audio-keyboard-response","413","250133","0.0-9.0-3.0","",""
"null","sound/msl/bird.wav","null","audio-keyboard-response","414","250642","0.0-9.0-4.0","",""
"null","sound/msl/door_bell.wav","null","audio-keyboard-response","415","251152","0.0-9.0-5.0","",""
"null","sound/msl/slide_whistle.wav","null","audio-keyboard-response","416","251652","0.0-9.0-6.0","",""
"1408","sound/asl/silence.wav","49","audio-keyboard-response","417","253062","0.0-9.0-7.0","true",""
"null","sound/msl/organ.wav","null","audio-keyboard-response","418","253562","0.0-10.0-0.0","",""
"null","sound/msl/dog.wav","null","audio-keyboard-response","419","254071","0.0-10.0-1.0","",""
"null","sound/msl/cow.wav","null","audio-keyboard-response","420","254572","0.0-10.0-2.0","",""
"null","sound/asl/silence.wav","null","audio-keyboard-response","421","255073","0.0-10.0-3.0","",""
"null","sound/msl/ding.wav","null","audio-keyboard-response","422","255573","0.0-10.0-4.0","",""
"null","sound/msl/goat.wav","null","audio-keyboard-response","423","256111","0.0-10.0-5.0","",""
"null","sound/msl/cow.wav","null","audio-keyboard-response","424","256611","0.0-10.0-6.0","",""
"1480","sound/asl/silence.wav","49","audio-keyboard-response","425","258098","0.0-10.0-7.0","true",""
"null","sound/msl/organ.wav","null","audio-keyboard-response","426","258592","0.0-11.0-0.0","",""
"null","sound/msl/boing.wav","null","audio-keyboard-response","427","259092","0.0-11.0-1.0","",""
"null","sound/msl/door.wav","null","audio-keyboard-response","428","259592","0.0-11.0-2.0","",""
"null","sound/asl/silence.wav","null","audio-keyboard-response","429","260093","0.0-11.0-3.0","",""
"null","sound/msl/bird.wav","null","audio-keyboard-response","430","260601","0.0-11.0-4.0","",""
"null","sound/msl/cat.wav","null","audio-keyboard-response","431","261102","0.0-11.0-5.0","",""
"null","sound/msl/door.wav","null","audio-keyboard-response","432","261602","0.0-11.0-6.0","",""
"1840","sound/asl/silence.wav","49","audio-keyboard-response","433","263446","0.0-11.0-7.0","false",""
"null","sound/msl/bird.wav","null","audio-keyboard-response","434","263952","0.0-12.0-0.0","",""
"null","sound/msl/cat.wav","null","audio-keyboard-response","435","264452","0.0-12.0-1.0","",""
"null","sound/msl/door.wav","null","audio-keyboard-response","436","264952","0.0-12.0-2.0","",""
"null","sound/asl/silence.wav","null","audio-keyboard-response","437","265452","0.0-12.0-3.0","",""
"null","sound/msl/Water.wav","null","audio-keyboard-response","438","265961","0.0-12.0-4.0","",""
"null","sound/msl/cat.wav","null","audio-keyboard-response","439","266462","0.0-12.0-5.0","",""
"null","sound/msl/clock.wav","null","audio-keyboard-response","440","267012","0.0-12.0-6.0","",""
"669","sound/asl/silence.wav","50","audio-keyboard-response","441","267684","0.0-12.0-7.0","false",""
"null","sound/msl/duck.wav","null","audio-keyboard-response","442","268192","0.0-13.0-0.0","",""
"null","sound/msl/dog.wav","null","audio-keyboard-response","443","268692","0.0-13.0-1.0","",""
"null","sound/msl/frog.wav","null","audio-keyboard-response","444","269202","0.0-13.0-2.0","",""
"null","sound/asl/silence.wav","null","audio-keyboard-response","445","269703","0.0-13.0-3.0","",""
"null","sound/msl/ding.wav","null","audio-keyboard-response","446","270201","0.0-13.0-4.0","",""
"null","sound/msl/door_bell.wav","null","audio-keyboard-response","447","270712","0.0-13.0-5.0","",""
"null","sound/msl/clock.wav","null","audio-keyboard-response","448","271261","0.0-13.0-6.0","",""
"1400","sound/asl/silence.wav","50","audio-keyboard-response","449","272669","0.0-13.0-7.0","true",""
"null","sound/msl/Water.wav","null","audio-keyboard-response","450","273171","0.0-14.0-0.0","",""
"null","sound/msl/cat.wav","null","audio-keyboard-response","451","273673","0.0-14.0-1.0","",""
"null","sound/msl/clock.wav","null","audio-keyboard-response","452","274221","0.0-14.0-2.0","",""
"null","sound/asl/silence.wav","null","audio-keyboard-response","453","274723","0.0-14.0-3.0","",""
"null","sound/msl/duck.wav","null","audio-keyboard-response","454","275231","0.0-14.0-4.0","",""
"null","sound/msl/goat.wav","null","audio-keyboard-response","455","275772","0.0-14.0-5.0","",""
"null","sound/msl/slide_whistle.wav","null","audio-keyboard-response","456","276272","0.0-14.0-6.0","",""
"461","sound/asl/silence.wav","50","audio-keyboard-response","457","276733","0.0-14.0-7.0","true",""
"null","sound/msl/bird.wav","null","audio-keyboard-response","458","277241","0.0-15.0-0.0","",""
"null","sound/msl/cat.wav","null","audio-keyboard-response","459","277742","0.0-15.0-1.0","",""
"null","sound/msl/door.wav","null","audio-keyboard-response","460","278242","0.0-15.0-2.0","",""
"null","sound/asl/silence.wav","null","audio-keyboard-response","461","278743","0.0-15.0-3.0","",""
"null","sound/msl/bird.wav","null","audio-keyboard-response","462","279242","0.0-15.0-4.0","",""
"null","sound/msl/door_bell.wav","null","audio-keyboard-response","463","279752","0.0-15.0-5.0","",""
"null","sound/msl/slide_whistle.wav","null","audio-keyboard-response","464","280252","0.0-15.0-6.0","",""
"1320","sound/asl/silence.wav","49","audio-keyboard-response","465","281580","0.0-15.0-7.0","true",""
"null","sound/msl/ding.wav","null","audio-keyboard-response","466","282083","0.0-16.0-0.0","",""
"null","sound/msl/goat.wav","null","audio-keyboard-response","467","282622","0.0-16.0-1.0","",""
"null","sound/msl/cow.wav","null","audio-keyboard-response","468","283122","0.0-16.0-2.0","",""
"null","sound/asl/silence.wav","null","audio-keyboard-response","469","283624","0.0-16.0-3.0","",""
"null","sound/msl/ding.wav","null","audio-keyboard-response","470","284122","0.0-16.0-4.0","",""
"null","sound/msl/door_bell.wav","null","audio-keyboard-response","471","284632","0.0-16.0-5.0","",""
"null","sound/msl/clock.wav","null","audio-keyboard-response","472","285182","0.0-16.0-6.0","",""
"1792","sound/asl/silence.wav","50","audio-keyboard-response","473","286981","0.0-16.0-7.0","true",""
"null","sound/msl/organ.wav","null","audio-keyboard-response","474","287472","0.0-17.0-0.0","",""
"null","sound/msl/boing.wav","null","audio-keyboard-response","475","287972","0.0-17.0-1.0","",""
"null","sound/msl/door.wav","null","audio-keyboard-response","476","288471","0.0-17.0-2.0","",""
"null","sound/asl/silence.wav","null","audio-keyboard-response","477","288975","0.0-17.0-3.0","",""
"null","sound/msl/organ.wav","null","audio-keyboard-response","478","289472","0.0-17.0-4.0","",""
"null","sound/msl/dog.wav","null","audio-keyboard-response","479","289972","0.0-17.0-5.0","",""
"null","sound/msl/cow.wav","null","audio-keyboard-response","480","290482","0.0-17.0-6.0","",""
"491","sound/asl/silence.wav","49","audio-keyboard-response","481","290974","0.0-17.0-7.0","false",""
"null","sound/msl/bird.wav","null","audio-keyboard-response","482","291482","0.0-18.0-0.0","",""
"null","sound/msl/cat.wav","null","audio-keyboard-response","483","291982","0.0-18.0-1.0","",""
"null","sound/msl/door.wav","null","audio-keyboard-response","484","292483","0.0-18.0-2.0","",""
"null","sound/asl/silence.wav","null","audio-keyboard-response","485","292982","0.0-18.0-3.0","",""
"null","sound/msl/duck.wav","null","audio-keyboard-response","486","293482","0.0-18.0-4.0","",""
"null","sound/msl/dog.wav","null","audio-keyboard-response","487","293991","0.0-18.0-5.0","",""
"null","sound/msl/frog.wav","null","audio-keyboard-response","488","294492","0.0-18.0-6.0","",""
"299","sound/asl/silence.wav","49","audio-keyboard-response","489","294798","0.0-18.0-7.0","true",""
"null","sound/msl/Water.wav","null","audio-keyboard-response","490","295302","0.0-19.0-0.0","",""
"null","sound/msl/boing.wav","null","audio-keyboard-response","491","295802","0.0-19.0-1.0","",""
"null","sound/msl/frog.wav","null","audio-keyboard-response","492","296312","0.0-19.0-2.0","",""
"null","sound/asl/silence.wav","null","audio-keyboard-response","493","296814","0.0-19.0-3.0","",""
"null","sound/msl/bird.wav","null","audio-keyboard-response","494","297321","0.0-19.0-4.0","",""
"null","sound/msl/door_bell.wav","null","audio-keyboard-response","495","297842","0.0-19.0-5.0","",""
"null","sound/msl/slide_whistle.wav","null","audio-keyboard-response","496","298342","0.0-19.0-6.0","",""
"288","sound/asl/silence.wav","49","audio-keyboard-response","497","298639","0.0-19.0-7.0","true",""
"null","sound/msl/bird.wav","null","audio-keyboard-response","498","299131","0.0-20.0-0.0","",""
"null","sound/msl/door_bell.wav","null","audio-keyboard-response","499","299642","0.0-20.0-1.0","",""
"null","sound/msl/slide_whistle.wav","null","audio-keyboard-response","500","300142","0.0-20.0-2.0","",""
"null","sound/asl/silence.wav","null","audio-keyboard-response","501","300642","0.0-20.0-3.0","",""
"null","sound/msl/duck.wav","null","audio-keyboard-response","502","301141","0.0-20.0-4.0","",""
"null","sound/msl/goat.wav","null","audio-keyboard-response","503","301682","0.0-20.0-5.0","",""
"null","sound/msl/slide_whistle.wav","null","audio-keyboard-response","504","302182","0.0-20.0-6.0","",""
"888","sound/asl/silence.wav","50","audio-keyboard-response","505","303075","0.0-20.0-7.0","true",""
"null","sound/msl/duck.wav","null","audio-keyboard-response","506","303572","0.0-21.0-0.0","",""
"null","sound/msl/dog.wav","null","audio-keyboard-response","507","304082","0.0-21.0-1.0","",""
"null","sound/msl/frog.wav","null","audio-keyboard-response","508","304581","0.0-21.0-2.0","",""
"null","sound/asl/silence.wav","null","audio-keyboard-response","509","305084","0.0-21.0-3.0","",""
"null","sound/msl/Water.wav","null","audio-keyboard-response","510","305591","0.0-21.0-4.0","",""
"null","sound/msl/boing.wav","null","audio-keyboard-response","511","306092","0.0-21.0-5.0","",""
"null","sound/msl/frog.wav","null","audio-keyboard-response","512","306602","0.0-21.0-6.0","",""
"1341","sound/asl/silence.wav","49","audio-keyboard-response","513","307949","0.0-21.0-7.0","false",""
"null","sound/msl/ding.wav","null","audio-keyboard-response","514","308453","0.0-22.0-0.0","",""
"null","sound/msl/goat.wav","null","audio-keyboard-response","515","308993","0.0-22.0-1.0","",""
"null","sound/msl/cow.wav","null","audio-keyboard-response","516","309492","0.0-22.0-2.0","",""
"null","sound/asl/silence.wav","null","audio-keyboard-response","517","309993","0.0-22.0-3.0","",""
"null","sound/msl/bird.wav","null","audio-keyboard-response","518","310491","0.0-22.0-4.0","",""
"null","sound/msl/cat.wav","null","audio-keyboard-response","519","310992","0.0-22.0-5.0","",""
"null","sound/msl/door.wav","null","audio-keyboard-response","520","311492","0.0-22.0-6.0","",""
"389","sound/asl/silence.wav","50","audio-keyboard-response","521","311890","0.0-22.0-7.0","true",""
"null","sound/msl/ding.wav","null","audio-keyboard-response","522","312382","0.0-23.0-0.0","",""
"null","sound/msl/door_bell.wav","null","audio-keyboard-response","523","312893","0.0-23.0-1.0","",""
"null","sound/msl/clock.wav","null","audio-keyboard-response","524","313442","0.0-23.0-2.0","",""
"null","sound/asl/silence.wav","null","audio-keyboard-response","525","313944","0.0-23.0-3.0","",""
"null","sound/msl/Water.wav","null","audio-keyboard-response","526","314452","0.0-23.0-4.0","",""
"null","sound/msl/cat.wav","null","audio-keyboard-response","527","314952","0.0-23.0-5.0","",""
"null","sound/msl/clock.wav","null","audio-keyboard-response","528","315502","0.0-23.0-6.0","",""
"368","sound/asl/silence.wav","50","audio-keyboard-response","529","315879","0.0-23.0-7.0","false",""
"null","sound/msl/organ.wav","null","audio-keyboard-response","530","316371","0.0-24.0-0.0","",""
"null","sound/msl/boing.wav","null","audio-keyboard-response","531","316872","0.0-24.0-1.0","",""
"null","sound/msl/door.wav","null","audio-keyboard-response","532","317372","0.0-24.0-2.0","",""
"null","sound/asl/silence.wav","null","audio-keyboard-response","533","317873","0.0-24.0-3.0","",""
"null","sound/msl/ding.wav","null","audio-keyboard-response","534","318372","0.0-24.0-4.0","",""
"null","sound/msl/door_bell.wav","null","audio-keyboard-response","535","318881","0.0-24.0-5.0","",""
"null","sound/msl/clock.wav","null","audio-keyboard-response","536","319432","0.0-24.0-6.0","",""
"1072","sound/asl/silence.wav","49","audio-keyboard-response","537","320509","0.0-24.0-7.0","false",""
"null","sound/msl/ding.wav","null","audio-keyboard-response","538","321012","0.0-25.0-0.0","",""
"null","sound/msl/door_bell.wav","null","audio-keyboard-response","539","321523","0.0-25.0-1.0","",""
"null","sound/msl/clock.wav","null","audio-keyboard-response","540","322071","0.0-25.0-2.0","",""
"null","sound/asl/silence.wav","null","audio-keyboard-response","541","322573","0.0-25.0-3.0","",""
"null","sound/msl/bird.wav","null","audio-keyboard-response","542","323081","0.0-25.0-4.0","",""
"null","sound/msl/door_bell.wav","null","audio-keyboard-response","543","323581","0.0-25.0-5.0","",""
"null","sound/msl/slide_whistle.wav","null","audio-keyboard-response","544","324081","0.0-25.0-6.0","",""
"549","sound/asl/silence.wav","50","audio-keyboard-response","545","324636","0.0-25.0-7.0","false",""
"null","sound/msl/duck.wav","null","audio-keyboard-response","546","325132","0.0-26.0-0.0","",""
"null","sound/msl/goat.wav","null","audio-keyboard-response","547","325671","0.0-26.0-1.0","",""
"null","sound/msl/slide_whistle.wav","null","audio-keyboard-response","548","326172","0.0-26.0-2.0","",""
"null","sound/asl/silence.wav","null","audio-keyboard-response","549","326675","0.0-26.0-3.0","",""
"null","sound/msl/organ.wav","null","audio-keyboard-response","550","327172","0.0-26.0-4.0","",""
"null","sound/msl/boing.wav","null","audio-keyboard-response","551","327671","0.0-26.0-5.0","",""
"null","sound/msl/door.wav","null","audio-keyboard-response","552","328172","0.0-26.0-6.0","",""
"1949","sound/asl/silence.wav","49","audio-keyboard-response","553","330126","0.0-26.0-7.0","true",""
"null","sound/msl/ding.wav","null","audio-keyboard-response","554","330621","0.0-27.0-0.0","",""
"null","sound/msl/goat.wav","null","audio-keyboard-response","555","331161","0.0-27.0-1.0","",""
"null","sound/msl/cow.wav","null","audio-keyboard-response","556","331662","0.0-27.0-2.0","",""
"null","sound/asl/silence.wav","null","audio-keyboard-response","557","332164","0.0-27.0-3.0","",""
"null","sound/msl/Water.wav","null","audio-keyboard-response","558","332673","0.0-27.0-4.0","",""
"null","sound/msl/boing.wav","null","audio-keyboard-response","559","333172","0.0-27.0-5.0","",""
"null","sound/msl/frog.wav","null","audio-keyboard-response","560","333682","0.0-27.0-6.0","",""
"589","sound/asl/silence.wav","49","audio-keyboard-response","561","334272","0.0-27.0-7.0","false",""
"3115","","","instructions","562","337387","0.0-28.0","","[{""page_index"":0,""viewing_time"":3114}]"
