"rt","stimulus","key_press","trial_type","trial_index","time_elapsed","internal_node_id","correct","view_history"
"9257","alien.jpg","49","image-keyboard-response","0","9259","0.0-0.0","",""
"null","sound/msl/clock.wav","null","audio-keyboard-response","1","9810","0.0-1.0-0.0","",""
"null","sound/msl/organ.wav","null","audio-keyboard-response","2","10310","0.0-1.0-1.0","",""
"null","sound/msl/frog.wav","null","audio-keyboard-response","3","10810","0.0-1.0-2.0","",""
"null","sound/msl/cow.wav","null","audio-keyboard-response","4","11320","0.0-1.0-3.0","",""
"null","sound/msl/boing.wav","null","audio-keyboard-response","5","11819","0.0-1.0-4.0","",""
"null","sound/msl/dog.wav","null","audio-keyboard-response","6","12330","0.0-1.0-5.0","",""
"null","sound/msl/goat.wav","null","audio-keyboard-response","7","12870","0.0-1.0-6.0","",""
"null","sound/msl/duck.wav","null","audio-keyboard-response","8","13370","0.0-1.0-7.0","",""
"null","sound/msl/door.wav","null","audio-keyboard-response","9","13870","0.0-1.0-8.0","",""
"null","sound/msl/ding.wav","null","audio-keyboard-response","10","14369","0.0-1.0-9.0","",""
"null","sound/msl/Water.wav","null","audio-keyboard-response","11","14880","0.0-1.0-10.0","",""
"null","sound/msl/slide_whistle.wav","null","audio-keyboard-response","12","15380","0.0-1.0-11.0","",""
"null","sound/msl/cow.wav","null","audio-keyboard-response","13","15890","0.0-1.0-12.0","",""
"null","sound/msl/boing.wav","null","audio-keyboard-response","14","16390","0.0-1.0-13.0","",""
"null","sound/msl/dog.wav","null","audio-keyboard-response","15","16889","0.0-1.0-14.0","",""
"null","sound/msl/clock.wav","null","audio-keyboard-response","16","17439","0.0-1.0-15.0","",""
"null","sound/msl/organ.wav","null","audio-keyboard-response","17","17940","0.0-1.0-16.0","",""
"null","sound/msl/frog.wav","null","audio-keyboard-response","18","18450","0.0-1.0-17.0","",""
"null","sound/msl/bird.wav","null","audio-keyboard-response","19","18960","0.0-1.0-18.0","",""
"null","sound/msl/door_bell.wav","null","audio-keyboard-response","20","19459","0.0-1.0-19.0","",""
"null","sound/msl/cat.wav","null","audio-keyboard-response","21","19959","0.0-1.0-20.0","",""
"null","sound/msl/ding.wav","null","audio-keyboard-response","22","20460","0.0-1.0-21.0","",""
"null","sound/msl/Water.wav","null","audio-keyboard-response","23","20969","0.0-1.0-22.0","",""
"null","sound/msl/slide_whistle.wav","null","audio-keyboard-response","24","21470","0.0-1.0-23.0","",""
"null","sound/msl/goat.wav","null","audio-keyboard-response","25","22010","0.0-1.0-24.0","",""
"null","sound/msl/duck.wav","null","audio-keyboard-response","26","22520","0.0-1.0-25.0","",""
"null","sound/msl/door.wav","null","audio-keyboard-response","27","23020","0.0-1.0-26.0","",""
"null","sound/msl/clock.wav","null","audio-keyboard-response","28","23570","0.0-1.0-27.0","",""
"null","sound/msl/organ.wav","null","audio-keyboard-response","29","24071","0.0-1.0-28.0","",""
"null","sound/msl/frog.wav","null","audio-keyboard-response","30","24570","0.0-1.0-29.0","",""
"null","sound/msl/cow.wav","null","audio-keyboard-response","31","25079","0.0-1.0-30.0","",""
"null","sound/msl/boing.wav","null","audio-keyboard-response","32","25580","0.0-1.0-31.0","",""
"null","sound/msl/dog.wav","null","audio-keyboard-response","33","26090","0.0-1.0-32.0","",""
"null","sound/msl/bird.wav","null","audio-keyboard-response","34","26601","0.0-1.0-33.0","",""
"null","sound/msl/door_bell.wav","null","audio-keyboard-response","35","27100","0.0-1.0-34.0","",""
"null","sound/msl/cat.wav","null","audio-keyboard-response","36","27600","0.0-1.0-35.0","",""
"null","sound/msl/goat.wav","null","audio-keyboard-response","37","28140","0.0-1.0-36.0","",""
"null","sound/msl/duck.wav","null","audio-keyboard-response","38","28649","0.0-1.0-37.0","",""
"null","sound/msl/door.wav","null","audio-keyboard-response","39","29150","0.0-1.0-38.0","",""
"null","sound/msl/ding.wav","null","audio-keyboard-response","40","29649","0.0-1.0-39.0","",""
"null","sound/msl/Water.wav","null","audio-keyboard-response","41","30160","0.0-1.0-40.0","",""
"null","sound/msl/slide_whistle.wav","null","audio-keyboard-response","42","30659","0.0-1.0-41.0","",""
"null","sound/msl/bird.wav","null","audio-keyboard-response","43","31170","0.0-1.0-42.0","",""
"null","sound/msl/door_bell.wav","null","audio-keyboard-response","44","31680","0.0-1.0-43.0","",""
"null","sound/msl/cat.wav","null","audio-keyboard-response","45","32180","0.0-1.0-44.0","",""
"null","sound/msl/cow.wav","null","audio-keyboard-response","46","32690","0.0-1.0-45.0","",""
"null","sound/msl/boing.wav","null","audio-keyboard-response","47","33190","0.0-1.0-46.0","",""
"null","sound/msl/dog.wav","null","audio-keyboard-response","48","33690","0.0-1.0-47.0","",""
"null","sound/msl/goat.wav","null","audio-keyboard-response","49","34230","0.0-1.0-48.0","",""
"null","sound/msl/duck.wav","null","audio-keyboard-response","50","34730","0.0-1.0-49.0","",""
"null","sound/msl/door.wav","null","audio-keyboard-response","51","35231","0.0-1.0-50.0","",""
"null","sound/msl/clock.wav","null","audio-keyboard-response","52","35781","0.0-1.0-51.0","",""
"null","sound/msl/organ.wav","null","audio-keyboard-response","53","36280","0.0-1.0-52.0","",""
"null","sound/msl/frog.wav","null","audio-keyboard-response","54","36780","0.0-1.0-53.0","",""
"null","sound/msl/cow.wav","null","audio-keyboard-response","55","37290","0.0-1.0-54.0","",""
"null","sound/msl/boing.wav","null","audio-keyboard-response","56","37789","0.0-1.0-55.0","",""
"null","sound/msl/dog.wav","null","audio-keyboard-response","57","38290","0.0-1.0-56.0","",""
"null","sound/msl/goat.wav","null","audio-keyboard-response","58","38830","0.0-1.0-57.0","",""
"null","sound/msl/duck.wav","null","audio-keyboard-response","59","39330","0.0-1.0-58.0","",""
"null","sound/msl/door.wav","null","audio-keyboard-response","60","39830","0.0-1.0-59.0","",""
"null","sound/msl/ding.wav","null","audio-keyboard-response","61","40329","0.0-1.0-60.0","",""
"null","sound/msl/Water.wav","null","audio-keyboard-response","62","40841","0.0-1.0-61.0","",""
"null","sound/msl/slide_whistle.wav","null","audio-keyboard-response","63","41340","0.0-1.0-62.0","",""
"null","sound/msl/bird.wav","null","audio-keyboard-response","64","41850","0.0-1.0-63.0","",""
"null","sound/msl/door_bell.wav","null","audio-keyboard-response","65","42361","0.0-1.0-64.0","",""
"null","sound/msl/cat.wav","null","audio-keyboard-response","66","42860","0.0-1.0-65.0","",""
"null","sound/msl/cow.wav","null","audio-keyboard-response","67","43370","0.0-1.0-66.0","",""
"null","sound/msl/boing.wav","null","audio-keyboard-response","68","43870","0.0-1.0-67.0","",""
"null","sound/msl/dog.wav","null","audio-keyboard-response","69","44370","0.0-1.0-68.0","",""
"null","sound/msl/clock.wav","null","audio-keyboard-response","70","44920","0.0-1.0-69.0","",""
"null","sound/msl/organ.wav","null","audio-keyboard-response","71","45420","0.0-1.0-70.0","",""
"null","sound/msl/frog.wav","null","audio-keyboard-response","72","45930","0.0-1.0-71.0","",""
"null","sound/msl/goat.wav","null","audio-keyboard-response","73","46470","0.0-1.0-72.0","",""
"null","sound/msl/duck.wav","null","audio-keyboard-response","74","46970","0.0-1.0-73.0","",""
"null","sound/msl/door.wav","null","audio-keyboard-response","75","47470","0.0-1.0-74.0","",""
"null","sound/msl/ding.wav","null","audio-keyboard-response","76","47970","0.0-1.0-75.0","",""
"null","sound/msl/Water.wav","null","audio-keyboard-response","77","48480","0.0-1.0-76.0","",""
"null","sound/msl/slide_whistle.wav","null","audio-keyboard-response","78","48980","0.0-1.0-77.0","",""
"null","sound/msl/goat.wav","null","audio-keyboard-response","79","49520","0.0-1.0-78.0","",""
"null","sound/msl/duck.wav","null","audio-keyboard-response","80","50020","0.0-1.0-79.0","",""
"null","sound/msl/door.wav","null","audio-keyboard-response","81","50521","0.0-1.0-80.0","",""
"null","sound/msl/bird.wav","null","audio-keyboard-response","82","51020","0.0-1.0-81.0","",""
"null","sound/msl/door_bell.wav","null","audio-keyboard-response","83","51531","0.0-1.0-82.0","",""
"null","sound/msl/cat.wav","null","audio-keyboard-response","84","52030","0.0-1.0-83.0","",""
"null","sound/msl/clock.wav","null","audio-keyboard-response","85","52581","0.0-1.0-84.0","",""
"null","sound/msl/organ.wav","null","audio-keyboard-response","86","53081","0.0-1.0-85.0","",""
"null","sound/msl/frog.wav","null","audio-keyboard-response","87","53580","0.0-1.0-86.0","",""
"null","sound/msl/cow.wav","null","audio-keyboard-response","88","54090","0.0-1.0-87.0","",""
"null","sound/msl/boing.wav","null","audio-keyboard-response","89","54590","0.0-1.0-88.0","",""
"null","sound/msl/dog.wav","null","audio-keyboard-response","90","55090","0.0-1.0-89.0","",""
"null","sound/msl/bird.wav","null","audio-keyboard-response","91","55600","0.0-1.0-90.0","",""
"null","sound/msl/door_bell.wav","null","audio-keyboard-response","92","56100","0.0-1.0-91.0","",""
"null","sound/msl/cat.wav","null","audio-keyboard-response","93","56600","0.0-1.0-92.0","",""
"null","sound/msl/ding.wav","null","audio-keyboard-response","94","57100","0.0-1.0-93.0","",""
"null","sound/msl/Water.wav","null","audio-keyboard-response","95","57610","0.0-1.0-94.0","",""
"null","sound/msl/slide_whistle.wav","null","audio-keyboard-response","96","58110","0.0-1.0-95.0","",""
"null","sound/msl/goat.wav","null","audio-keyboard-response","97","58650","0.0-1.0-96.0","",""
"null","sound/msl/duck.wav","null","audio-keyboard-response","98","59160","0.0-1.0-97.0","",""
"null","sound/msl/door.wav","null","audio-keyboard-response","99","59660","0.0-1.0-98.0","",""
"null","sound/msl/cow.wav","null","audio-keyboard-response","100","60170","0.0-1.0-99.0","",""
"null","sound/msl/boing.wav","null","audio-keyboard-response","101","60670","0.0-1.0-100.0","",""
"null","sound/msl/dog.wav","null","audio-keyboard-response","102","61170","0.0-1.0-101.0","",""
"null","sound/msl/bird.wav","null","audio-keyboard-response","103","61681","0.0-1.0-102.0","",""
"null","sound/msl/door_bell.wav","null","audio-keyboard-response","104","62180","0.0-1.0-103.0","",""
"null","sound/msl/cat.wav","null","audio-keyboard-response","105","62680","0.0-1.0-104.0","",""
"null","sound/msl/clock.wav","null","audio-keyboard-response","106","63230","0.0-1.0-105.0","",""
"null","sound/msl/organ.wav","null","audio-keyboard-response","107","63730","0.0-1.0-106.0","",""
"null","sound/msl/frog.wav","null","audio-keyboard-response","108","64241","0.0-1.0-107.0","",""
"null","sound/msl/cow.wav","null","audio-keyboard-response","109","64740","0.0-1.0-108.0","",""
"null","sound/msl/boing.wav","null","audio-keyboard-response","110","65241","0.0-1.0-109.0","",""
"null","sound/msl/dog.wav","null","audio-keyboard-response","111","65740","0.0-1.0-110.0","",""
"null","sound/msl/ding.wav","null","audio-keyboard-response","112","66250","0.0-1.0-111.0","",""
"null","sound/msl/Water.wav","null","audio-keyboard-response","113","66761","0.0-1.0-112.0","",""
"null","sound/msl/slide_whistle.wav","null","audio-keyboard-response","114","67260","0.0-1.0-113.0","",""
"null","sound/msl/bird.wav","null","audio-keyboard-response","115","67771","0.0-1.0-114.0","",""
"null","sound/msl/door_bell.wav","null","audio-keyboard-response","116","68280","0.0-1.0-115.0","",""
"null","sound/msl/cat.wav","null","audio-keyboard-response","117","68780","0.0-1.0-116.0","",""
"null","sound/msl/goat.wav","null","audio-keyboard-response","118","69320","0.0-1.0-117.0","",""
"null","sound/msl/duck.wav","null","audio-keyboard-response","119","69820","0.0-1.0-118.0","",""
"null","sound/msl/door.wav","null","audio-keyboard-response","120","70320","0.0-1.0-119.0","",""
"null","sound/msl/clock.wav","null","audio-keyboard-response","121","70871","0.0-1.0-120.0","",""
"null","sound/msl/organ.wav","null","audio-keyboard-response","122","71370","0.0-1.0-121.0","",""
"null","sound/msl/frog.wav","null","audio-keyboard-response","123","71880","0.0-1.0-122.0","",""
"null","sound/msl/cow.wav","null","audio-keyboard-response","124","72380","0.0-1.0-123.0","",""
"null","sound/msl/boing.wav","null","audio-keyboard-response","125","72881","0.0-1.0-124.0","",""
"null","sound/msl/dog.wav","null","audio-keyboard-response","126","73380","0.0-1.0-125.0","",""
"null","sound/msl/bird.wav","null","audio-keyboard-response","127","73890","0.0-1.0-126.0","",""
"null","sound/msl/door_bell.wav","null","audio-keyboard-response","128","74400","0.0-1.0-127.0","",""
"null","sound/msl/cat.wav","null","audio-keyboard-response","129","74900","0.0-1.0-128.0","",""
"null","sound/msl/ding.wav","null","audio-keyboard-response","130","75410","0.0-1.0-129.0","",""
"null","sound/msl/Water.wav","null","audio-keyboard-response","131","75920","0.0-1.0-130.0","",""
"null","sound/msl/slide_whistle.wav","null","audio-keyboard-response","132","76421","0.0-1.0-131.0","",""
"null","sound/msl/cow.wav","null","audio-keyboard-response","133","76930","0.0-1.0-132.0","",""
"null","sound/msl/boing.wav","null","audio-keyboard-response","134","77430","0.0-1.0-133.0","",""
"null","sound/msl/dog.wav","null","audio-keyboard-response","135","77931","0.0-1.0-134.0","",""
"null","sound/msl/goat.wav","null","audio-keyboard-response","136","78471","0.0-1.0-135.0","",""
"null","sound/msl/duck.wav","null","audio-keyboard-response","137","78970","0.0-1.0-136.0","",""
"null","sound/msl/door.wav","null","audio-keyboard-response","138","79470","0.0-1.0-137.0","",""
"null","sound/msl/ding.wav","null","audio-keyboard-response","139","79971","0.0-1.0-138.0","",""
"null","sound/msl/Water.wav","null","audio-keyboard-response","140","80479","0.0-1.0-139.0","",""
"null","sound/msl/slide_whistle.wav","null","audio-keyboard-response","141","80980","0.0-1.0-140.0","",""
"null","sound/msl/clock.wav","null","audio-keyboard-response","142","81531","0.0-1.0-141.0","",""
"null","sound/msl/organ.wav","null","audio-keyboard-response","143","82030","0.0-1.0-142.0","",""
"null","sound/msl/frog.wav","null","audio-keyboard-response","144","82531","0.0-1.0-143.0","",""
"null","sound/msl/bird.wav","null","audio-keyboard-response","145","83040","0.0-1.0-144.0","",""
"null","sound/msl/door_bell.wav","null","audio-keyboard-response","146","83541","0.0-1.0-145.0","",""
"null","sound/msl/cat.wav","null","audio-keyboard-response","147","84041","0.0-1.0-146.0","",""
"null","sound/msl/goat.wav","null","audio-keyboard-response","148","84580","0.0-1.0-147.0","",""
"null","sound/msl/duck.wav","null","audio-keyboard-response","149","85091","0.0-1.0-148.0","",""
"null","sound/msl/door.wav","null","audio-keyboard-response","150","85590","0.0-1.0-149.0","",""
"null","sound/msl/clock.wav","null","audio-keyboard-response","151","86140","0.0-1.0-150.0","",""
"null","sound/msl/organ.wav","null","audio-keyboard-response","152","86640","0.0-1.0-151.0","",""
"null","sound/msl/frog.wav","null","audio-keyboard-response","153","87140","0.0-1.0-152.0","",""
"null","sound/msl/cow.wav","null","audio-keyboard-response","154","87650","0.0-1.0-153.0","",""
"null","sound/msl/boing.wav","null","audio-keyboard-response","155","88151","0.0-1.0-154.0","",""
"null","sound/msl/dog.wav","null","audio-keyboard-response","156","88651","0.0-1.0-155.0","",""
"null","sound/msl/ding.wav","null","audio-keyboard-response","157","89160","0.0-1.0-156.0","",""
"null","sound/msl/Water.wav","null","audio-keyboard-response","158","89669","0.0-1.0-157.0","",""
"null","sound/msl/slide_whistle.wav","null","audio-keyboard-response","159","90170","0.0-1.0-158.0","",""
"null","sound/msl/bird.wav","null","audio-keyboard-response","160","90680","0.0-1.0-159.0","",""
"null","sound/msl/door_bell.wav","null","audio-keyboard-response","161","91180","0.0-1.0-160.0","",""
"null","sound/msl/cat.wav","null","audio-keyboard-response","162","91680","0.0-1.0-161.0","",""
"null","sound/msl/cow.wav","null","audio-keyboard-response","163","92180","0.0-1.0-162.0","",""
"null","sound/msl/boing.wav","null","audio-keyboard-response","164","92680","0.0-1.0-163.0","",""
"null","sound/msl/dog.wav","null","audio-keyboard-response","165","93180","0.0-1.0-164.0","",""
"null","sound/msl/ding.wav","null","audio-keyboard-response","166","93690","0.0-1.0-165.0","",""
"null","sound/msl/Water.wav","null","audio-keyboard-response","167","94200","0.0-1.0-166.0","",""
"null","sound/msl/slide_whistle.wav","null","audio-keyboard-response","168","94700","0.0-1.0-167.0","",""
"null","sound/msl/clock.wav","null","audio-keyboard-response","169","95250","0.0-1.0-168.0","",""
"null","sound/msl/organ.wav","null","audio-keyboard-response","170","95750","0.0-1.0-169.0","",""
"null","sound/msl/frog.wav","null","audio-keyboard-response","171","96251","0.0-1.0-170.0","",""
"null","sound/msl/goat.wav","null","audio-keyboard-response","172","96790","0.0-1.0-171.0","",""
"null","sound/msl/duck.wav","null","audio-keyboard-response","173","97290","0.0-1.0-172.0","",""
"null","sound/msl/door.wav","null","audio-keyboard-response","174","97790","0.0-1.0-173.0","",""
"null","sound/msl/bird.wav","null","audio-keyboard-response","175","98289","0.0-1.0-174.0","",""
"null","sound/msl/door_bell.wav","null","audio-keyboard-response","176","98800","0.0-1.0-175.0","",""
"null","sound/msl/cat.wav","null","audio-keyboard-response","177","99300","0.0-1.0-176.0","",""
"null","sound/msl/cow.wav","null","audio-keyboard-response","178","99810","0.0-1.0-177.0","",""
"null","sound/msl/boing.wav","null","audio-keyboard-response","179","100310","0.0-1.0-178.0","",""
"null","sound/msl/dog.wav","null","audio-keyboard-response","180","100809","0.0-1.0-179.0","",""
"null","sound/msl/goat.wav","null","audio-keyboard-response","181","101350","0.0-1.0-180.0","",""
"null","sound/msl/duck.wav","null","audio-keyboard-response","182","101850","0.0-1.0-181.0","",""
"null","sound/msl/door.wav","null","audio-keyboard-response","183","102350","0.0-1.0-182.0","",""
"null","sound/msl/ding.wav","null","audio-keyboard-response","184","102851","0.0-1.0-183.0","",""
"null","sound/msl/Water.wav","null","audio-keyboard-response","185","103360","0.0-1.0-184.0","",""
"null","sound/msl/slide_whistle.wav","null","audio-keyboard-response","186","103860","0.0-1.0-185.0","",""
"null","sound/msl/clock.wav","null","audio-keyboard-response","187","104410","0.0-1.0-186.0","",""
"null","sound/msl/organ.wav","null","audio-keyboard-response","188","104910","0.0-1.0-187.0","",""
"null","sound/msl/frog.wav","null","audio-keyboard-response","189","105410","0.0-1.0-188.0","",""
"null","sound/msl/bird.wav","null","audio-keyboard-response","190","105920","0.0-1.0-189.0","",""
"null","sound/msl/door_bell.wav","null","audio-keyboard-response","191","106420","0.0-1.0-190.0","",""
"null","sound/msl/cat.wav","null","audio-keyboard-response","192","106920","0.0-1.0-191.0","",""
"null","sound/msl/cow.wav","null","audio-keyboard-response","193","107420","0.0-1.0-192.0","",""
"null","sound/msl/boing.wav","null","audio-keyboard-response","194","107920","0.0-1.0-193.0","",""
"null","sound/msl/dog.wav","null","audio-keyboard-response","195","108420","0.0-1.0-194.0","",""
"null","sound/msl/goat.wav","null","audio-keyboard-response","196","108960","0.0-1.0-195.0","",""
"null","sound/msl/duck.wav","null","audio-keyboard-response","197","109460","0.0-1.0-196.0","",""
"null","sound/msl/door.wav","null","audio-keyboard-response","198","109961","0.0-1.0-197.0","",""
"null","sound/msl/clock.wav","null","audio-keyboard-response","199","110510","0.0-1.0-198.0","",""
"null","sound/msl/organ.wav","null","audio-keyboard-response","200","111010","0.0-1.0-199.0","",""
"null","sound/msl/frog.wav","null","audio-keyboard-response","201","111520","0.0-1.0-200.0","",""
"null","sound/msl/ding.wav","null","audio-keyboard-response","202","112021","0.0-1.0-201.0","",""
"null","sound/msl/Water.wav","null","audio-keyboard-response","203","112530","0.0-1.0-202.0","",""
"null","sound/msl/slide_whistle.wav","null","audio-keyboard-response","204","113031","0.0-1.0-203.0","",""
"null","sound/msl/bird.wav","null","audio-keyboard-response","205","113530","0.0-1.0-204.0","",""
"null","sound/msl/door_bell.wav","null","audio-keyboard-response","206","114041","0.0-1.0-205.0","",""
"null","sound/msl/cat.wav","null","audio-keyboard-response","207","114540","0.0-1.0-206.0","",""
"null","sound/msl/cow.wav","null","audio-keyboard-response","208","115050","0.0-1.0-207.0","",""
"null","sound/msl/boing.wav","null","audio-keyboard-response","209","115550","0.0-1.0-208.0","",""
"null","sound/msl/dog.wav","null","audio-keyboard-response","210","116050","0.0-1.0-209.0","",""
"null","sound/msl/clock.wav","null","audio-keyboard-response","211","116600","0.0-1.0-210.0","",""
"null","sound/msl/organ.wav","null","audio-keyboard-response","212","117100","0.0-1.0-211.0","",""
"null","sound/msl/frog.wav","null","audio-keyboard-response","213","117610","0.0-1.0-212.0","",""
"null","sound/msl/bird.wav","null","audio-keyboard-response","214","118120","0.0-1.0-213.0","",""
"null","sound/msl/door_bell.wav","null","audio-keyboard-response","215","118620","0.0-1.0-214.0","",""
"null","sound/msl/cat.wav","null","audio-keyboard-response","216","119121","0.0-1.0-215.0","",""
"null","sound/msl/goat.wav","null","audio-keyboard-response","217","119660","0.0-1.0-216.0","",""
"null","sound/msl/duck.wav","null","audio-keyboard-response","218","120170","0.0-1.0-217.0","",""
"null","sound/msl/door.wav","null","audio-keyboard-response","219","120670","0.0-1.0-218.0","",""
"null","sound/msl/ding.wav","null","audio-keyboard-response","220","121170","0.0-1.0-219.0","",""
"null","sound/msl/Water.wav","null","audio-keyboard-response","221","121680","0.0-1.0-220.0","",""
"null","sound/msl/slide_whistle.wav","null","audio-keyboard-response","222","122181","0.0-1.0-221.0","",""
"null","sound/msl/cow.wav","null","audio-keyboard-response","223","122690","0.0-1.0-222.0","",""
"null","sound/msl/boing.wav","null","audio-keyboard-response","224","123191","0.0-1.0-223.0","",""
"null","sound/msl/dog.wav","null","audio-keyboard-response","225","123691","0.0-1.0-224.0","",""
"null","sound/msl/goat.wav","null","audio-keyboard-response","226","124230","0.0-1.0-225.0","",""
"null","sound/msl/duck.wav","null","audio-keyboard-response","227","124730","0.0-1.0-226.0","",""
"null","sound/msl/door.wav","null","audio-keyboard-response","228","125230","0.0-1.0-227.0","",""
"null","sound/msl/bird.wav","null","audio-keyboard-response","229","125731","0.0-1.0-228.0","",""
"null","sound/msl/door_bell.wav","null","audio-keyboard-response","230","126240","0.0-1.0-229.0","",""
"null","sound/msl/cat.wav","null","audio-keyboard-response","231","126741","0.0-1.0-230.0","",""
"null","sound/msl/goat.wav","null","audio-keyboard-response","232","127280","0.0-1.0-231.0","",""
"null","sound/msl/duck.wav","null","audio-keyboard-response","233","127780","0.0-1.0-232.0","",""
"null","sound/msl/door.wav","null","audio-keyboard-response","234","128280","0.0-1.0-233.0","",""
"null","sound/msl/cow.wav","null","audio-keyboard-response","235","128781","0.0-1.0-234.0","",""
"null","sound/msl/boing.wav","null","audio-keyboard-response","236","129281","0.0-1.0-235.0","",""
"null","sound/msl/dog.wav","null","audio-keyboard-response","237","129780","0.0-1.0-236.0","",""
"null","sound/msl/ding.wav","null","audio-keyboard-response","238","130290","0.0-1.0-237.0","",""
"null","sound/msl/Water.wav","null","audio-keyboard-response","239","130800","0.0-1.0-238.0","",""
"null","sound/msl/slide_whistle.wav","null","audio-keyboard-response","240","131301","0.0-1.0-239.0","",""
"null","sound/msl/clock.wav","null","audio-keyboard-response","241","131850","0.0-1.0-240.0","",""
"null","sound/msl/organ.wav","null","audio-keyboard-response","242","132350","0.0-1.0-241.0","",""
"null","sound/msl/frog.wav","null","audio-keyboard-response","243","132850","0.0-1.0-242.0","",""
"null","sound/msl/bird.wav","null","audio-keyboard-response","244","133360","0.0-1.0-243.0","",""
"null","sound/msl/door_bell.wav","null","audio-keyboard-response","245","133861","0.0-1.0-244.0","",""
"null","sound/msl/cat.wav","null","audio-keyboard-response","246","134361","0.0-1.0-245.0","",""
"null","sound/msl/cow.wav","null","audio-keyboard-response","247","134861","0.0-1.0-246.0","",""
"null","sound/msl/boing.wav","null","audio-keyboard-response","248","135361","0.0-1.0-247.0","",""
"null","sound/msl/dog.wav","null","audio-keyboard-response","249","135860","0.0-1.0-248.0","",""
"null","sound/msl/ding.wav","null","audio-keyboard-response","250","136370","0.0-1.0-249.0","",""
"null","sound/msl/Water.wav","null","audio-keyboard-response","251","136881","0.0-1.0-250.0","",""
"null","sound/msl/slide_whistle.wav","null","audio-keyboard-response","252","137381","0.0-1.0-251.0","",""
"null","sound/msl/clock.wav","null","audio-keyboard-response","253","137930","0.0-1.0-252.0","",""
"null","sound/msl/organ.wav","null","audio-keyboard-response","254","138430","0.0-1.0-253.0","",""
"null","sound/msl/frog.wav","null","audio-keyboard-response","255","138930","0.0-1.0-254.0","",""
"null","sound/msl/goat.wav","null","audio-keyboard-response","256","139470","0.0-1.0-255.0","",""
"null","sound/msl/duck.wav","null","audio-keyboard-response","257","139971","0.0-1.0-256.0","",""
"null","sound/msl/door.wav","null","audio-keyboard-response","258","140470","0.0-1.0-257.0","",""
"null","sound/msl/bird.wav","null","audio-keyboard-response","259","140971","0.0-1.0-258.0","",""
"null","sound/msl/door_bell.wav","null","audio-keyboard-response","260","141480","0.0-1.0-259.0","",""
"null","sound/msl/cat.wav","null","audio-keyboard-response","261","141981","0.0-1.0-260.0","",""
"null","sound/msl/clock.wav","null","audio-keyboard-response","262","142530","0.0-1.0-261.0","",""
"null","sound/msl/organ.wav","null","audio-keyboard-response","263","143031","0.0-1.0-262.0","",""
"null","sound/msl/frog.wav","null","audio-keyboard-response","264","143530","0.0-1.0-263.0","",""
"null","sound/msl/ding.wav","null","audio-keyboard-response","265","144041","0.0-1.0-264.0","",""
"null","sound/msl/Water.wav","null","audio-keyboard-response","266","144550","0.0-1.0-265.0","",""
"null","sound/msl/slide_whistle.wav","null","audio-keyboard-response","267","145050","0.0-1.0-266.0","",""
"null","sound/msl/goat.wav","null","audio-keyboard-response","268","145590","0.0-1.0-267.0","",""
"null","sound/msl/duck.wav","null","audio-keyboard-response","269","146090","0.0-1.0-268.0","",""
"null","sound/msl/door.wav","null","audio-keyboard-response","270","146590","0.0-1.0-269.0","",""
"null","sound/msl/cow.wav","null","audio-keyboard-response","271","147090","0.0-1.0-270.0","",""
"null","sound/msl/boing.wav","null","audio-keyboard-response","272","147590","0.0-1.0-271.0","",""
"null","sound/msl/dog.wav","null","audio-keyboard-response","273","148091","0.0-1.0-272.0","",""
"null","sound/msl/bird.wav","null","audio-keyboard-response","274","148600","0.0-1.0-273.0","",""
"null","sound/msl/door_bell.wav","null","audio-keyboard-response","275","149101","0.0-1.0-274.0","",""
"null","sound/msl/cat.wav","null","audio-keyboard-response","276","149600","0.0-1.0-275.0","",""
"null","sound/msl/clock.wav","null","audio-keyboard-response","277","150150","0.0-1.0-276.0","",""
"null","sound/msl/organ.wav","null","audio-keyboard-response","278","150650","0.0-1.0-277.0","",""
"null","sound/msl/frog.wav","null","audio-keyboard-response","279","151160","0.0-1.0-278.0","",""
"null","sound/msl/ding.wav","null","audio-keyboard-response","280","151661","0.0-1.0-279.0","",""
"null","sound/msl/Water.wav","null","audio-keyboard-response","281","152169","0.0-1.0-280.0","",""
"null","sound/msl/slide_whistle.wav","null","audio-keyboard-response","282","152671","0.0-1.0-281.0","",""
"null","sound/msl/cow.wav","null","audio-keyboard-response","283","153171","0.0-1.0-282.0","",""
"null","sound/msl/boing.wav","null","audio-keyboard-response","284","153670","0.0-1.0-283.0","",""
"null","sound/msl/dog.wav","null","audio-keyboard-response","285","154170","0.0-1.0-284.0","",""
"null","sound/msl/goat.wav","null","audio-keyboard-response","286","154709","0.0-1.0-285.0","",""
"null","sound/msl/duck.wav","null","audio-keyboard-response","287","155210","0.0-1.0-286.0","",""
"null","sound/msl/door.wav","null","audio-keyboard-response","288","155710","0.0-1.0-287.0","",""
"null","sound/msl/bird.wav","null","audio-keyboard-response","289","156210","0.0-1.0-288.0","",""
"null","sound/msl/door_bell.wav","null","audio-keyboard-response","290","156720","0.0-1.0-289.0","",""
"null","sound/msl/cat.wav","null","audio-keyboard-response","291","157220","0.0-1.0-290.0","",""
"null","sound/msl/ding.wav","null","audio-keyboard-response","292","157730","0.0-1.0-291.0","",""
"null","sound/msl/Water.wav","null","audio-keyboard-response","293","158240","0.0-1.0-292.0","",""
"null","sound/msl/slide_whistle.wav","null","audio-keyboard-response","294","158740","0.0-1.0-293.0","",""
"null","sound/msl/clock.wav","null","audio-keyboard-response","295","159291","0.0-1.0-294.0","",""
"null","sound/msl/organ.wav","null","audio-keyboard-response","296","159791","0.0-1.0-295.0","",""
"null","sound/msl/frog.wav","null","audio-keyboard-response","297","160290","0.0-1.0-296.0","",""
"null","sound/msl/bird.wav","null","audio-keyboard-response","298","160799","0.0-1.0-297.0","",""
"null","sound/msl/door_bell.wav","null","audio-keyboard-response","299","161300","0.0-1.0-298.0","",""
"null","sound/msl/cat.wav","null","audio-keyboard-response","300","161800","0.0-1.0-299.0","",""
"null","sound/msl/cow.wav","null","audio-keyboard-response","301","162301","0.0-1.0-300.0","",""
"null","sound/msl/boing.wav","null","audio-keyboard-response","302","162800","0.0-1.0-301.0","",""
"null","sound/msl/dog.wav","null","audio-keyboard-response","303","163300","0.0-1.0-302.0","",""
"null","sound/msl/ding.wav","null","audio-keyboard-response","304","163811","0.0-1.0-303.0","",""
"null","sound/msl/Water.wav","null","audio-keyboard-response","305","164320","0.0-1.0-304.0","",""
"null","sound/msl/slide_whistle.wav","null","audio-keyboard-response","306","164820","0.0-1.0-305.0","",""
"null","sound/msl/goat.wav","null","audio-keyboard-response","307","165360","0.0-1.0-306.0","",""
"null","sound/msl/duck.wav","null","audio-keyboard-response","308","165860","0.0-1.0-307.0","",""
"null","sound/msl/door.wav","null","audio-keyboard-response","309","166360","0.0-1.0-308.0","",""
"null","sound/msl/clock.wav","null","audio-keyboard-response","310","166910","0.0-1.0-309.0","",""
"null","sound/msl/organ.wav","null","audio-keyboard-response","311","167410","0.0-1.0-310.0","",""
"null","sound/msl/frog.wav","null","audio-keyboard-response","312","167920","0.0-1.0-311.0","",""
"null","sound/msl/bird.wav","null","audio-keyboard-response","313","168420","0.0-1.0-312.0","",""
"null","sound/msl/door_bell.wav","null","audio-keyboard-response","314","168930","0.0-1.0-313.0","",""
"null","sound/msl/cat.wav","null","audio-keyboard-response","315","169430","0.0-1.0-314.0","",""
"null","sound/msl/cow.wav","null","audio-keyboard-response","316","169930","0.0-1.0-315.0","",""
"null","sound/msl/boing.wav","null","audio-keyboard-response","317","170430","0.0-1.0-316.0","",""
"null","sound/msl/dog.wav","null","audio-keyboard-response","318","170930","0.0-1.0-317.0","",""
"null","sound/msl/ding.wav","null","audio-keyboard-response","319","171440","0.0-1.0-318.0","",""
"null","sound/msl/Water.wav","null","audio-keyboard-response","320","171951","0.0-1.0-319.0","",""
"null","sound/msl/slide_whistle.wav","null","audio-keyboard-response","321","172450","0.0-1.0-320.0","",""
"null","sound/msl/clock.wav","null","audio-keyboard-response","322","173000","0.0-1.0-321.0","",""
"null","sound/msl/organ.wav","null","audio-keyboard-response","323","173500","0.0-1.0-322.0","",""
"null","sound/msl/frog.wav","null","audio-keyboard-response","324","174010","0.0-1.0-323.0","",""
"null","sound/msl/cow.wav","null","audio-keyboard-response","325","174520","0.0-1.0-324.0","",""
"null","sound/msl/boing.wav","null","audio-keyboard-response","326","175020","0.0-1.0-325.0","",""
"null","sound/msl/dog.wav","null","audio-keyboard-response","327","175531","0.0-1.0-326.0","",""
"null","sound/msl/goat.wav","null","audio-keyboard-response","328","176070","0.0-1.0-327.0","",""
"null","sound/msl/duck.wav","null","audio-keyboard-response","329","176571","0.0-1.0-328.0","",""
"null","sound/msl/door.wav","null","audio-keyboard-response","330","177070","0.0-1.0-329.0","",""
"null","sound/msl/bird.wav","null","audio-keyboard-response","331","177569","0.0-1.0-330.0","",""
"null","sound/msl/door_bell.wav","null","audio-keyboard-response","332","178081","0.0-1.0-331.0","",""
"null","sound/msl/cat.wav","null","audio-keyboard-response","333","178580","0.0-1.0-332.0","",""
"null","sound/msl/ding.wav","null","audio-keyboard-response","334","179090","0.0-1.0-333.0","",""
"null","sound/msl/Water.wav","null","audio-keyboard-response","335","179600","0.0-1.0-334.0","",""
"null","sound/msl/slide_whistle.wav","null","audio-keyboard-response","336","180101","0.0-1.0-335.0","",""
"null","sound/msl/goat.wav","null","audio-keyboard-response","337","180640","0.0-1.0-336.0","",""
"null","sound/msl/duck.wav","null","audio-keyboard-response","338","181141","0.0-1.0-337.0","",""
"null","sound/msl/door.wav","null","audio-keyboard-response","339","181640","0.0-1.0-338.0","",""
"null","sound/msl/clock.wav","null","audio-keyboard-response","340","182190","0.0-1.0-339.0","",""
"null","sound/msl/organ.wav","null","audio-keyboard-response","341","182690","0.0-1.0-340.0","",""
"null","sound/msl/frog.wav","null","audio-keyboard-response","342","183200","0.0-1.0-341.0","",""
"null","sound/msl/ding.wav","null","audio-keyboard-response","343","183700","0.0-1.0-342.0","",""
"null","sound/msl/Water.wav","null","audio-keyboard-response","344","184210","0.0-1.0-343.0","",""
"null","sound/msl/slide_whistle.wav","null","audio-keyboard-response","345","184711","0.0-1.0-344.0","",""
"null","sound/msl/clock.wav","null","audio-keyboard-response","346","185260","0.0-1.0-345.0","",""
"null","sound/msl/organ.wav","null","audio-keyboard-response","347","185760","0.0-1.0-346.0","",""
"null","sound/msl/frog.wav","null","audio-keyboard-response","348","186260","0.0-1.0-347.0","",""
"null","sound/msl/goat.wav","null","audio-keyboard-response","349","186799","0.0-1.0-348.0","",""
"null","sound/msl/duck.wav","null","audio-keyboard-response","350","187300","0.0-1.0-349.0","",""
"null","sound/msl/door.wav","null","audio-keyboard-response","351","187800","0.0-1.0-350.0","",""
"null","sound/msl/bird.wav","null","audio-keyboard-response","352","188300","0.0-1.0-351.0","",""
"null","sound/msl/door_bell.wav","null","audio-keyboard-response","353","188810","0.0-1.0-352.0","",""
"null","sound/msl/cat.wav","null","audio-keyboard-response","354","189310","0.0-1.0-353.0","",""
"null","sound/msl/ding.wav","null","audio-keyboard-response","355","189810","0.0-1.0-354.0","",""
"null","sound/msl/Water.wav","null","audio-keyboard-response","356","190320","0.0-1.0-355.0","",""
"null","sound/msl/slide_whistle.wav","null","audio-keyboard-response","357","190820","0.0-1.0-356.0","",""
"null","sound/msl/clock.wav","null","audio-keyboard-response","358","191370","0.0-1.0-357.0","",""
"null","sound/msl/organ.wav","null","audio-keyboard-response","359","191870","0.0-1.0-358.0","",""
"null","sound/msl/frog.wav","null","audio-keyboard-response","360","192370","0.0-1.0-359.0","",""
"4908","Instructions2-eng.png","49","image-keyboard-response","361","197279","0.0-2.0","",""
"null","sound/msl/bird.wav","null","audio-keyboard-response","362","197780","0.0-3.0-0.0","",""
"null","sound/msl/door_bell.wav","null","audio-keyboard-response","363","198291","0.0-3.0-1.0","",""
"null","sound/msl/cat.wav","null","audio-keyboard-response","364","198790","0.0-3.0-2.0","",""
"null","sound/asl/silence.wav","null","audio-keyboard-response","365","199291","0.0-3.0-3.0","",""
"null","sound/msl/ding.wav","null","audio-keyboard-response","366","199800","0.0-3.0-4.0","",""
"null","sound/msl/door_bell.wav","null","audio-keyboard-response","367","200301","0.0-3.0-5.0","",""
"null","sound/msl/frog.wav","null","audio-keyboard-response","368","200810","0.0-3.0-6.0","",""
"539","sound/asl/silence.wav","49","audio-keyboard-response","369","201351","0.0-3.0-7.0","true",""
"null","sound/msl/clock.wav","null","audio-keyboard-response","370","201901","0.0-4.0-0.0","",""
"null","sound/msl/organ.wav","null","audio-keyboard-response","371","202400","0.0-4.0-1.0","",""
"null","sound/msl/frog.wav","null","audio-keyboard-response","372","202901","0.0-4.0-2.0","",""
"null","sound/asl/silence.wav","null","audio-keyboard-response","373","203410","0.0-4.0-3.0","",""
"null","sound/msl/ding.wav","null","audio-keyboard-response","374","203921","0.0-4.0-4.0","",""
"null","sound/msl/door_bell.wav","null","audio-keyboard-response","375","204419","0.0-4.0-5.0","",""
"null","sound/msl/frog.wav","null","audio-keyboard-response","376","204930","0.0-4.0-6.0","",""
"499","sound/asl/silence.wav","49","audio-keyboard-response","377","205433","0.0-4.0-7.0","true",""
"null","sound/msl/goat.wav","null","audio-keyboard-response","378","205970","0.0-5.0-0.0","",""
"null","sound/msl/duck.wav","null","audio-keyboard-response","379","206480","0.0-5.0-1.0","",""
"null","sound/msl/door.wav","null","audio-keyboard-response","380","206980","0.0-5.0-2.0","",""
"null","sound/asl/silence.wav","null","audio-keyboard-response","381","207489","0.0-5.0-3.0","",""
"null","sound/msl/clock.wav","null","audio-keyboard-response","382","208041","0.0-5.0-4.0","",""
"null","sound/msl/boing.wav","null","audio-keyboard-response","383","208540","0.0-5.0-5.0","",""
"null","sound/msl/door.wav","null","audio-keyboard-response","384","209041","0.0-5.0-6.0","",""
"971","sound/asl/silence.wav","49","audio-keyboard-response","385","210011","0.0-5.0-7.0","true",""
"null","sound/msl/ding.wav","null","audio-keyboard-response","386","210518","0.0-6.0-0.0","",""
"null","sound/msl/door_bell.wav","null","audio-keyboard-response","387","211019","0.0-6.0-1.0","",""
"null","sound/msl/frog.wav","null","audio-keyboard-response","388","211529","0.0-6.0-2.0","",""
"null","sound/asl/silence.wav","null","audio-keyboard-response","389","212037","0.0-6.0-3.0","",""
"null","sound/msl/goat.wav","null","audio-keyboard-response","390","212579","0.0-6.0-4.0","",""
"null","sound/msl/duck.wav","null","audio-keyboard-response","391","213089","0.0-6.0-5.0","",""
"null","sound/msl/door.wav","null","audio-keyboard-response","392","213588","0.0-6.0-6.0","",""
"411","sound/asl/silence.wav","50","audio-keyboard-response","393","214004","0.0-6.0-7.0","true",""
"null","sound/msl/goat.wav","null","audio-keyboard-response","394","214538","0.0-7.0-0.0","",""
"null","sound/msl/Water.wav","null","audio-keyboard-response","395","215048","0.0-7.0-1.0","",""
"null","sound/msl/cat.wav","null","audio-keyboard-response","396","215548","0.0-7.0-2.0","",""
"null","sound/asl/silence.wav","null","audio-keyboard-response","397","216058","0.0-7.0-3.0","",""
"null","sound/msl/bird.wav","null","audio-keyboard-response","398","216568","0.0-7.0-4.0","",""
"null","sound/msl/door_bell.wav","null","audio-keyboard-response","399","217079","0.0-7.0-5.0","",""
"null","sound/msl/cat.wav","null","audio-keyboard-response","400","217578","0.0-7.0-6.0","",""
"400","sound/asl/silence.wav","50","audio-keyboard-response","401","217981","0.0-7.0-7.0","true",""
"null","sound/msl/goat.wav","null","audio-keyboard-response","402","218519","0.0-8.0-0.0","",""
"null","sound/msl/Water.wav","null","audio-keyboard-response","403","219028","0.0-8.0-1.0","",""
"null","sound/msl/cat.wav","null","audio-keyboard-response","404","219528","0.0-8.0-2.0","",""
"null","sound/asl/silence.wav","null","audio-keyboard-response","405","220030","0.0-8.0-3.0","",""
"null","sound/msl/ding.wav","null","audio-keyboard-response","406","220529","0.0-8.0-4.0","",""
"null","sound/msl/Water.wav","null","audio-keyboard-response","407","221039","0.0-8.0-5.0","",""
"null","sound/msl/slide_whistle.wav","null","audio-keyboard-response","408","221538","0.0-8.0-6.0","",""
"560","sound/asl/silence.wav","50","audio-keyboard-response","409","222101","0.0-8.0-7.0","true",""
"null","sound/msl/cow.wav","null","audio-keyboard-response","410","222609","0.0-9.0-0.0","",""
"null","sound/msl/duck.wav","null","audio-keyboard-response","411","223118","0.0-9.0-1.0","",""
"null","sound/msl/slide_whistle.wav","null","audio-keyboard-response","412","223618","0.0-9.0-2.0","",""
"null","sound/asl/silence.wav","null","audio-keyboard-response","413","224137","0.0-9.0-3.0","",""
"null","sound/msl/clock.wav","null","audio-keyboard-response","414","224689","0.0-9.0-4.0","",""
"null","sound/msl/organ.wav","null","audio-keyboard-response","415","225188","0.0-9.0-5.0","",""
"null","sound/msl/frog.wav","null","audio-keyboard-response","416","225688","0.0-9.0-6.0","",""
"800","sound/asl/silence.wav","50","audio-keyboard-response","417","226498","0.0-9.0-7.0","true",""
"null","sound/msl/cow.wav","null","audio-keyboard-response","418","227008","0.0-10.0-0.0","",""
"null","sound/msl/duck.wav","null","audio-keyboard-response","419","227518","0.0-10.0-1.0","",""
"null","sound/msl/slide_whistle.wav","null","audio-keyboard-response","420","228019","0.0-10.0-2.0","",""
"null","sound/asl/silence.wav","null","audio-keyboard-response","421","228528","0.0-10.0-3.0","",""
"null","sound/msl/ding.wav","null","audio-keyboard-response","422","229039","0.0-10.0-4.0","",""
"null","sound/msl/Water.wav","null","audio-keyboard-response","423","229548","0.0-10.0-5.0","",""
"null","sound/msl/slide_whistle.wav","null","audio-keyboard-response","424","230048","0.0-10.0-6.0","",""
"520","sound/asl/silence.wav","49","audio-keyboard-response","425","230572","0.0-10.0-7.0","false",""
"null","sound/msl/cow.wav","null","audio-keyboard-response","426","231078","0.0-11.0-0.0","",""
"null","sound/msl/duck.wav","null","audio-keyboard-response","427","231579","0.0-11.0-1.0","",""
"null","sound/msl/slide_whistle.wav","null","audio-keyboard-response","428","232078","0.0-11.0-2.0","",""
"null","sound/asl/silence.wav","null","audio-keyboard-response","429","232588","0.0-11.0-3.0","",""
"null","sound/msl/goat.wav","null","audio-keyboard-response","430","233129","0.0-11.0-4.0","",""
"null","sound/msl/duck.wav","null","audio-keyboard-response","431","233639","0.0-11.0-5.0","",""
"null","sound/msl/door.wav","null","audio-keyboard-response","432","234139","0.0-11.0-6.0","",""
"488","sound/asl/silence.wav","50","audio-keyboard-response","433","234630","0.0-11.0-7.0","true",""
"null","sound/msl/cow.wav","null","audio-keyboard-response","434","235129","0.0-12.0-0.0","",""
"null","sound/msl/boing.wav","null","audio-keyboard-response","435","235628","0.0-12.0-1.0","",""
"null","sound/msl/dog.wav","null","audio-keyboard-response","436","236129","0.0-12.0-2.0","",""
"null","sound/asl/silence.wav","null","audio-keyboard-response","437","236630","0.0-12.0-3.0","",""
"null","sound/msl/cow.wav","null","audio-keyboard-response","438","237128","0.0-12.0-4.0","",""
"null","sound/msl/duck.wav","null","audio-keyboard-response","439","237638","0.0-12.0-5.0","",""
"null","sound/msl/slide_whistle.wav","null","audio-keyboard-response","440","238139","0.0-12.0-6.0","",""
"408","sound/asl/silence.wav","50","audio-keyboard-response","441","238553","0.0-12.0-7.0","false",""
"null","sound/msl/bird.wav","null","audio-keyboard-response","442","239049","0.0-13.0-0.0","",""
"null","sound/msl/door_bell.wav","null","audio-keyboard-response","443","239558","0.0-13.0-1.0","",""
"null","sound/msl/cat.wav","null","audio-keyboard-response","444","240059","0.0-13.0-2.0","",""
"null","sound/asl/silence.wav","null","audio-keyboard-response","445","240568","0.0-13.0-3.0","",""
"null","sound/msl/bird.wav","null","audio-keyboard-response","446","241079","0.0-13.0-4.0","",""
"null","sound/msl/organ.wav","null","audio-keyboard-response","447","241578","0.0-13.0-5.0","",""
"null","sound/msl/dog.wav","null","audio-keyboard-response","448","242088","0.0-13.0-6.0","",""
"440","sound/asl/silence.wav","50","audio-keyboard-response","449","242531","0.0-13.0-7.0","false",""
"null","sound/msl/ding.wav","null","audio-keyboard-response","450","243039","0.0-14.0-0.0","",""
"null","sound/msl/door_bell.wav","null","audio-keyboard-response","451","243539","0.0-14.0-1.0","",""
"null","sound/msl/frog.wav","null","audio-keyboard-response","452","244049","0.0-14.0-2.0","",""
"null","sound/asl/silence.wav","null","audio-keyboard-response","453","244557","0.0-14.0-3.0","",""
"null","sound/msl/cow.wav","null","audio-keyboard-response","454","245059","0.0-14.0-4.0","",""
"null","sound/msl/boing.wav","null","audio-keyboard-response","455","245559","0.0-14.0-5.0","",""
"null","sound/msl/dog.wav","null","audio-keyboard-response","456","246059","0.0-14.0-6.0","",""
"440","sound/asl/silence.wav","49","audio-keyboard-response","457","246500","0.0-14.0-7.0","false",""
"null","sound/msl/goat.wav","null","audio-keyboard-response","458","247039","0.0-15.0-0.0","",""
"null","sound/msl/duck.wav","null","audio-keyboard-response","459","247538","0.0-15.0-1.0","",""
"null","sound/msl/door.wav","null","audio-keyboard-response","460","248038","0.0-15.0-2.0","",""
"null","sound/asl/silence.wav","null","audio-keyboard-response","461","248547","0.0-15.0-3.0","",""
"null","sound/msl/bird.wav","null","audio-keyboard-response","462","249048","0.0-15.0-4.0","",""
"null","sound/msl/organ.wav","null","audio-keyboard-response","463","249549","0.0-15.0-5.0","",""
"null","sound/msl/dog.wav","null","audio-keyboard-response","464","250049","0.0-15.0-6.0","",""
"891","sound/asl/silence.wav","49","audio-keyboard-response","465","250939","0.0-15.0-7.0","true",""
"null","sound/msl/cow.wav","null","audio-keyboard-response","466","251448","0.0-16.0-0.0","",""
"null","sound/msl/boing.wav","null","audio-keyboard-response","467","251948","0.0-16.0-1.0","",""
"null","sound/msl/dog.wav","null","audio-keyboard-response","468","252449","0.0-16.0-2.0","",""
"null","sound/asl/silence.wav","null","audio-keyboard-response","469","252968","0.0-16.0-3.0","",""
"null","sound/msl/goat.wav","null","audio-keyboard-response","470","253509","0.0-16.0-4.0","",""
"null","sound/msl/Water.wav","null","audio-keyboard-response","471","254019","0.0-16.0-5.0","",""
"null","sound/msl/cat.wav","null","audio-keyboard-response","472","254520","0.0-16.0-6.0","",""
"389","sound/asl/silence.wav","49","audio-keyboard-response","473","254913","0.0-16.0-7.0","true",""
"null","sound/msl/clock.wav","null","audio-keyboard-response","474","255459","0.0-17.0-0.0","",""
"null","sound/msl/boing.wav","null","audio-keyboard-response","475","255959","0.0-17.0-1.0","",""
"null","sound/msl/door.wav","null","audio-keyboard-response","476","256459","0.0-17.0-2.0","",""
"null","sound/asl/silence.wav","null","audio-keyboard-response","477","256978","0.0-17.0-3.0","",""
"null","sound/msl/bird.wav","null","audio-keyboard-response","478","257489","0.0-17.0-4.0","",""
"null","sound/msl/door_bell.wav","null","audio-keyboard-response","479","257998","0.0-17.0-5.0","",""
"null","sound/msl/cat.wav","null","audio-keyboard-response","480","258499","0.0-17.0-6.0","",""
"648","sound/asl/silence.wav","50","audio-keyboard-response","481","259156","0.0-17.0-7.0","true",""
"null","sound/msl/clock.wav","null","audio-keyboard-response","482","259698","0.0-18.0-0.0","",""
"null","sound/msl/boing.wav","null","audio-keyboard-response","483","260199","0.0-18.0-1.0","",""
"null","sound/msl/door.wav","null","audio-keyboard-response","484","260699","0.0-18.0-2.0","",""
"null","sound/asl/silence.wav","null","audio-keyboard-response","485","261208","0.0-18.0-3.0","",""
"null","sound/msl/ding.wav","null","audio-keyboard-response","486","261718","0.0-18.0-4.0","",""
"null","sound/msl/Water.wav","null","audio-keyboard-response","487","262228","0.0-18.0-5.0","",""
"null","sound/msl/slide_whistle.wav","null","audio-keyboard-response","488","262728","0.0-18.0-6.0","",""
"419","sound/asl/silence.wav","49","audio-keyboard-response","489","263152","0.0-18.0-7.0","false",""
"null","sound/msl/clock.wav","null","audio-keyboard-response","490","263699","0.0-19.0-0.0","",""
"null","sound/msl/organ.wav","null","audio-keyboard-response","491","264199","0.0-19.0-1.0","",""
"null","sound/msl/frog.wav","null","audio-keyboard-response","492","264699","0.0-19.0-2.0","",""
"null","sound/asl/silence.wav","null","audio-keyboard-response","493","265218","0.0-19.0-3.0","",""
"null","sound/msl/bird.wav","null","audio-keyboard-response","494","265729","0.0-19.0-4.0","",""
"null","sound/msl/organ.wav","null","audio-keyboard-response","495","266229","0.0-19.0-5.0","",""
"null","sound/msl/dog.wav","null","audio-keyboard-response","496","266729","0.0-19.0-6.0","",""
"389","sound/asl/silence.wav","49","audio-keyboard-response","497","267128","0.0-19.0-7.0","true",""
"null","sound/msl/goat.wav","null","audio-keyboard-response","498","267668","0.0-20.0-0.0","",""
"null","sound/msl/Water.wav","null","audio-keyboard-response","499","268179","0.0-20.0-1.0","",""
"null","sound/msl/cat.wav","null","audio-keyboard-response","500","268678","0.0-20.0-2.0","",""
"null","sound/asl/silence.wav","null","audio-keyboard-response","501","269187","0.0-20.0-3.0","",""
"null","sound/msl/clock.wav","null","audio-keyboard-response","502","269729","0.0-20.0-4.0","",""
"null","sound/msl/organ.wav","null","audio-keyboard-response","503","270231","0.0-20.0-5.0","",""
"null","sound/msl/frog.wav","null","audio-keyboard-response","504","270730","0.0-20.0-6.0","",""
"459","sound/asl/silence.wav","50","audio-keyboard-response","505","271193","0.0-20.0-7.0","true",""
"null","sound/msl/bird.wav","null","audio-keyboard-response","506","271691","0.0-21.0-0.0","",""
"null","sound/msl/door_bell.wav","null","audio-keyboard-response","507","272201","0.0-21.0-1.0","",""
"null","sound/msl/cat.wav","null","audio-keyboard-response","508","272701","0.0-21.0-2.0","",""
"null","sound/asl/silence.wav","null","audio-keyboard-response","509","273220","0.0-21.0-3.0","",""
"null","sound/msl/cow.wav","null","audio-keyboard-response","510","273722","0.0-21.0-4.0","",""
"null","sound/msl/duck.wav","null","audio-keyboard-response","511","274221","0.0-21.0-5.0","",""
"null","sound/msl/slide_whistle.wav","null","audio-keyboard-response","512","274721","0.0-21.0-6.0","",""
"389","sound/asl/silence.wav","50","audio-keyboard-response","513","275116","0.0-21.0-7.0","false",""
"null","sound/msl/clock.wav","null","audio-keyboard-response","514","275661","0.0-22.0-0.0","",""
"null","sound/msl/boing.wav","null","audio-keyboard-response","515","276161","0.0-22.0-1.0","",""
"null","sound/msl/door.wav","null","audio-keyboard-response","516","276661","0.0-22.0-2.0","",""
"null","sound/asl/silence.wav","null","audio-keyboard-response","517","277169","0.0-22.0-3.0","",""
"null","sound/msl/clock.wav","null","audio-keyboard-response","518","277711","0.0-22.0-4.0","",""
"null","sound/msl/organ.wav","null","audio-keyboard-response","519","278212","0.0-22.0-5.0","",""
"null","sound/msl/frog.wav","null","audio-keyboard-response","520","278721","0.0-22.0-6.0","",""
"469","sound/asl/silence.wav","49","audio-keyboard-response","521","279192","0.0-22.0-7.0","false",""
"null","sound/msl/cow.wav","null","audio-keyboard-response","522","279691","0.0-23.0-0.0","",""
"null","sound/msl/boing.wav","null","audio-keyboard-response","523","280191","0.0-23.0-1.0","",""
"null","sound/msl/dog.wav","null","audio-keyboard-response","524","280691","0.0-23.0-2.0","",""
"null","sound/asl/silence.wav","null","audio-keyboard-response","525","281192","0.0-23.0-3.0","",""
"null","sound/msl/clock.wav","null","audio-keyboard-response","526","281741","0.0-23.0-4.0","",""
"null","sound/msl/boing.wav","null","audio-keyboard-response","527","282241","0.0-23.0-5.0","",""
"null","sound/msl/door.wav","null","audio-keyboard-response","528","282741","0.0-23.0-6.0","",""
"579","sound/asl/silence.wav","49","audio-keyboard-response","529","283329","0.0-23.0-7.0","true",""
"null","sound/msl/bird.wav","null","audio-keyboard-response","530","283821","0.0-24.0-0.0","",""
"null","sound/msl/organ.wav","null","audio-keyboard-response","531","284321","0.0-24.0-1.0","",""
"null","sound/msl/dog.wav","null","audio-keyboard-response","532","284821","0.0-24.0-2.0","",""
"null","sound/asl/silence.wav","null","audio-keyboard-response","533","285340","0.0-24.0-3.0","",""
"null","sound/msl/cow.wav","null","audio-keyboard-response","534","285851","0.0-24.0-4.0","",""
"null","sound/msl/boing.wav","null","audio-keyboard-response","535","286351","0.0-24.0-5.0","",""
"null","sound/msl/dog.wav","null","audio-keyboard-response","536","286851","0.0-24.0-6.0","",""
"549","sound/asl/silence.wav","49","audio-keyboard-response","537","287403","0.0-24.0-7.0","false",""
"null","sound/msl/ding.wav","null","audio-keyboard-response","538","287901","0.0-25.0-0.0","",""
"null","sound/msl/Water.wav","null","audio-keyboard-response","539","288411","0.0-25.0-1.0","",""
"null","sound/msl/slide_whistle.wav","null","audio-keyboard-response","540","288912","0.0-25.0-2.0","",""
"null","sound/asl/silence.wav","null","audio-keyboard-response","541","289420","0.0-25.0-3.0","",""
"null","sound/msl/ding.wav","null","audio-keyboard-response","542","289931","0.0-25.0-4.0","",""
"null","sound/msl/door_bell.wav","null","audio-keyboard-response","543","290441","0.0-25.0-5.0","",""
"null","sound/msl/frog.wav","null","audio-keyboard-response","544","290941","0.0-25.0-6.0","",""
"328","sound/asl/silence.wav","50","audio-keyboard-response","545","291280","0.0-25.0-7.0","false",""
"null","sound/msl/goat.wav","null","audio-keyboard-response","546","291811","0.0-26.0-0.0","",""
"null","sound/msl/Water.wav","null","audio-keyboard-response","547","292321","0.0-26.0-1.0","",""
"null","sound/msl/cat.wav","null","audio-keyboard-response","548","292820","0.0-26.0-2.0","",""
"null","sound/asl/silence.wav","null","audio-keyboard-response","549","293322","0.0-26.0-3.0","",""
"null","sound/msl/goat.wav","null","audio-keyboard-response","550","293861","0.0-26.0-4.0","",""
"null","sound/msl/duck.wav","null","audio-keyboard-response","551","294371","0.0-26.0-5.0","",""
"null","sound/msl/door.wav","null","audio-keyboard-response","552","294871","0.0-26.0-6.0","",""
"360","sound/asl/silence.wav","50","audio-keyboard-response","553","295240","0.0-26.0-7.0","true",""
"null","sound/msl/ding.wav","null","audio-keyboard-response","554","295741","0.0-27.0-0.0","",""
"null","sound/msl/Water.wav","null","audio-keyboard-response","555","296251","0.0-27.0-1.0","",""
"null","sound/msl/slide_whistle.wav","null","audio-keyboard-response","556","296751","0.0-27.0-2.0","",""
"null","sound/asl/silence.wav","null","audio-keyboard-response","557","297261","0.0-27.0-3.0","",""
"null","sound/msl/bird.wav","null","audio-keyboard-response","558","297772","0.0-27.0-4.0","",""
"null","sound/msl/organ.wav","null","audio-keyboard-response","559","298271","0.0-27.0-5.0","",""
"null","sound/msl/dog.wav","null","audio-keyboard-response","560","298772","0.0-27.0-6.0","",""
"499","sound/asl/silence.wav","50","audio-keyboard-response","561","299271","0.0-27.0-7.0","false",""
"2626","","","instructions","562","301898","0.0-28.0","","[{""page_index"":0,""viewing_time"":2626}]"
