"rt","stimulus","key_press","trial_type","trial_index","time_elapsed","internal_node_id","correct","view_history"
"14021","alien.jpg","49","image-keyboard-response","0","14026","0.0-0.0","",""
"null","sound/msl/duck.wav","null","audio-keyboard-response","1","14525","0.0-1.0-0.0","",""
"null","sound/msl/frog.wav","null","audio-keyboard-response","2","15033","0.0-1.0-1.0","",""
"null","sound/msl/door_bell.wav","null","audio-keyboard-response","3","15535","0.0-1.0-2.0","",""
"null","sound/msl/bird.wav","null","audio-keyboard-response","4","16044","0.0-1.0-3.0","",""
"null","sound/msl/Water.wav","null","audio-keyboard-response","5","16552","0.0-1.0-4.0","",""
"null","sound/msl/organ.wav","null","audio-keyboard-response","6","17053","0.0-1.0-5.0","",""
"null","sound/msl/cat.wav","null","audio-keyboard-response","7","17553","0.0-1.0-6.0","",""
"null","sound/msl/slide_whistle.wav","null","audio-keyboard-response","8","18053","0.0-1.0-7.0","",""
"null","sound/msl/dog.wav","null","audio-keyboard-response","9","18562","0.0-1.0-8.0","",""
"null","sound/msl/goat.wav","null","audio-keyboard-response","10","19103","0.0-1.0-9.0","",""
"null","sound/msl/door.wav","null","audio-keyboard-response","11","19602","0.0-1.0-10.0","",""
"null","sound/msl/clock.wav","null","audio-keyboard-response","12","20154","0.0-1.0-11.0","",""
"null","sound/msl/bird.wav","null","audio-keyboard-response","13","20652","0.0-1.0-12.0","",""
"null","sound/msl/Water.wav","null","audio-keyboard-response","14","21164","0.0-1.0-13.0","",""
"null","sound/msl/organ.wav","null","audio-keyboard-response","15","21662","0.0-1.0-14.0","",""
"null","sound/msl/duck.wav","null","audio-keyboard-response","16","22162","0.0-1.0-15.0","",""
"null","sound/msl/frog.wav","null","audio-keyboard-response","17","22674","0.0-1.0-16.0","",""
"null","sound/msl/door_bell.wav","null","audio-keyboard-response","18","23172","0.0-1.0-17.0","",""
"null","sound/msl/boing.wav","null","audio-keyboard-response","19","23673","0.0-1.0-18.0","",""
"null","sound/msl/ding.wav","null","audio-keyboard-response","20","24173","0.0-1.0-19.0","",""
"null","sound/msl/cow.wav","null","audio-keyboard-response","21","24682","0.0-1.0-20.0","",""
"null","sound/msl/goat.wav","null","audio-keyboard-response","22","25223","0.0-1.0-21.0","",""
"null","sound/msl/door.wav","null","audio-keyboard-response","23","25721","0.0-1.0-22.0","",""
"null","sound/msl/clock.wav","null","audio-keyboard-response","24","26273","0.0-1.0-23.0","",""
"null","sound/msl/cat.wav","null","audio-keyboard-response","25","26773","0.0-1.0-24.0","",""
"null","sound/msl/slide_whistle.wav","null","audio-keyboard-response","26","27272","0.0-1.0-25.0","",""
"null","sound/msl/dog.wav","null","audio-keyboard-response","27","27772","0.0-1.0-26.0","",""
"null","sound/msl/duck.wav","null","audio-keyboard-response","28","28283","0.0-1.0-27.0","",""
"null","sound/msl/frog.wav","null","audio-keyboard-response","29","28792","0.0-1.0-28.0","",""
"null","sound/msl/door_bell.wav","null","audio-keyboard-response","30","29292","0.0-1.0-29.0","",""
"null","sound/msl/bird.wav","null","audio-keyboard-response","31","29802","0.0-1.0-30.0","",""
"null","sound/msl/Water.wav","null","audio-keyboard-response","32","30314","0.0-1.0-31.0","",""
"null","sound/msl/organ.wav","null","audio-keyboard-response","33","30812","0.0-1.0-32.0","",""
"null","sound/msl/boing.wav","null","audio-keyboard-response","34","31313","0.0-1.0-33.0","",""
"null","sound/msl/ding.wav","null","audio-keyboard-response","35","31813","0.0-1.0-34.0","",""
"null","sound/msl/cow.wav","null","audio-keyboard-response","36","32322","0.0-1.0-35.0","",""
"null","sound/msl/cat.wav","null","audio-keyboard-response","37","32823","0.0-1.0-36.0","",""
"null","sound/msl/slide_whistle.wav","null","audio-keyboard-response","38","33322","0.0-1.0-37.0","",""
"null","sound/msl/dog.wav","null","audio-keyboard-response","39","33832","0.0-1.0-38.0","",""
"null","sound/msl/goat.wav","null","audio-keyboard-response","40","34373","0.0-1.0-39.0","",""
"null","sound/msl/door.wav","null","audio-keyboard-response","41","34872","0.0-1.0-40.0","",""
"null","sound/msl/clock.wav","null","audio-keyboard-response","42","35423","0.0-1.0-41.0","",""
"null","sound/msl/boing.wav","null","audio-keyboard-response","43","35922","0.0-1.0-42.0","",""
"null","sound/msl/ding.wav","null","audio-keyboard-response","44","36433","0.0-1.0-43.0","",""
"null","sound/msl/cow.wav","null","audio-keyboard-response","45","36932","0.0-1.0-44.0","",""
"null","sound/msl/bird.wav","null","audio-keyboard-response","46","37442","0.0-1.0-45.0","",""
"null","sound/msl/Water.wav","null","audio-keyboard-response","47","37953","0.0-1.0-46.0","",""
"null","sound/msl/organ.wav","null","audio-keyboard-response","48","38453","0.0-1.0-47.0","",""
"null","sound/msl/cat.wav","null","audio-keyboard-response","49","38952","0.0-1.0-48.0","",""
"null","sound/msl/slide_whistle.wav","null","audio-keyboard-response","50","39454","0.0-1.0-49.0","",""
"null","sound/msl/dog.wav","null","audio-keyboard-response","51","39963","0.0-1.0-50.0","",""
"null","sound/msl/duck.wav","null","audio-keyboard-response","52","40472","0.0-1.0-51.0","",""
"null","sound/msl/frog.wav","null","audio-keyboard-response","53","40974","0.0-1.0-52.0","",""
"null","sound/msl/door_bell.wav","null","audio-keyboard-response","54","41483","0.0-1.0-53.0","",""
"null","sound/msl/bird.wav","null","audio-keyboard-response","55","41992","0.0-1.0-54.0","",""
"null","sound/msl/Water.wav","null","audio-keyboard-response","56","42502","0.0-1.0-55.0","",""
"null","sound/msl/organ.wav","null","audio-keyboard-response","57","43003","0.0-1.0-56.0","",""
"null","sound/msl/cat.wav","null","audio-keyboard-response","58","43502","0.0-1.0-57.0","",""
"null","sound/msl/slide_whistle.wav","null","audio-keyboard-response","59","44002","0.0-1.0-58.0","",""
"null","sound/msl/dog.wav","null","audio-keyboard-response","60","44514","0.0-1.0-59.0","",""
"null","sound/msl/goat.wav","null","audio-keyboard-response","61","45053","0.0-1.0-60.0","",""
"null","sound/msl/door.wav","null","audio-keyboard-response","62","45552","0.0-1.0-61.0","",""
"null","sound/msl/clock.wav","null","audio-keyboard-response","63","46102","0.0-1.0-62.0","",""
"null","sound/msl/boing.wav","null","audio-keyboard-response","64","46603","0.0-1.0-63.0","",""
"null","sound/msl/ding.wav","null","audio-keyboard-response","65","47112","0.0-1.0-64.0","",""
"null","sound/msl/cow.wav","null","audio-keyboard-response","66","47612","0.0-1.0-65.0","",""
"null","sound/msl/bird.wav","null","audio-keyboard-response","67","48124","0.0-1.0-66.0","",""
"null","sound/msl/Water.wav","null","audio-keyboard-response","68","48633","0.0-1.0-67.0","",""
"null","sound/msl/organ.wav","null","audio-keyboard-response","69","49132","0.0-1.0-68.0","",""
"null","sound/msl/duck.wav","null","audio-keyboard-response","70","49642","0.0-1.0-69.0","",""
"null","sound/msl/frog.wav","null","audio-keyboard-response","71","50153","0.0-1.0-70.0","",""
"null","sound/msl/door_bell.wav","null","audio-keyboard-response","72","50652","0.0-1.0-71.0","",""
"null","sound/msl/cat.wav","null","audio-keyboard-response","73","51152","0.0-1.0-72.0","",""
"null","sound/msl/slide_whistle.wav","null","audio-keyboard-response","74","51653","0.0-1.0-73.0","",""
"null","sound/msl/dog.wav","null","audio-keyboard-response","75","52164","0.0-1.0-74.0","",""
"null","sound/msl/goat.wav","null","audio-keyboard-response","76","52701","0.0-1.0-75.0","",""
"null","sound/msl/door.wav","null","audio-keyboard-response","77","53202","0.0-1.0-76.0","",""
"null","sound/msl/clock.wav","null","audio-keyboard-response","78","53753","0.0-1.0-77.0","",""
"null","sound/msl/cat.wav","null","audio-keyboard-response","79","54254","0.0-1.0-78.0","",""
"null","sound/msl/slide_whistle.wav","null","audio-keyboard-response","80","54752","0.0-1.0-79.0","",""
"null","sound/msl/dog.wav","null","audio-keyboard-response","81","55253","0.0-1.0-80.0","",""
"null","sound/msl/boing.wav","null","audio-keyboard-response","82","55753","0.0-1.0-81.0","",""
"null","sound/msl/ding.wav","null","audio-keyboard-response","83","56253","0.0-1.0-82.0","",""
"null","sound/msl/cow.wav","null","audio-keyboard-response","84","56764","0.0-1.0-83.0","",""
"null","sound/msl/duck.wav","null","audio-keyboard-response","85","57273","0.0-1.0-84.0","",""
"null","sound/msl/frog.wav","null","audio-keyboard-response","86","57772","0.0-1.0-85.0","",""
"null","sound/msl/door_bell.wav","null","audio-keyboard-response","87","58283","0.0-1.0-86.0","",""
"null","sound/msl/bird.wav","null","audio-keyboard-response","88","58792","0.0-1.0-87.0","",""
"null","sound/msl/Water.wav","null","audio-keyboard-response","89","59303","0.0-1.0-88.0","",""
"null","sound/msl/organ.wav","null","audio-keyboard-response","90","59803","0.0-1.0-89.0","",""
"null","sound/msl/boing.wav","null","audio-keyboard-response","91","60303","0.0-1.0-90.0","",""
"null","sound/msl/ding.wav","null","audio-keyboard-response","92","60803","0.0-1.0-91.0","",""
"null","sound/msl/cow.wav","null","audio-keyboard-response","93","61314","0.0-1.0-92.0","",""
"null","sound/msl/goat.wav","null","audio-keyboard-response","94","61852","0.0-1.0-93.0","",""
"null","sound/msl/door.wav","null","audio-keyboard-response","95","62353","0.0-1.0-94.0","",""
"null","sound/msl/clock.wav","null","audio-keyboard-response","96","62903","0.0-1.0-95.0","",""
"null","sound/msl/cat.wav","null","audio-keyboard-response","97","63404","0.0-1.0-96.0","",""
"null","sound/msl/slide_whistle.wav","null","audio-keyboard-response","98","63902","0.0-1.0-97.0","",""
"null","sound/msl/dog.wav","null","audio-keyboard-response","99","64403","0.0-1.0-98.0","",""
"null","sound/msl/bird.wav","null","audio-keyboard-response","100","64913","0.0-1.0-99.0","",""
"null","sound/msl/Water.wav","null","audio-keyboard-response","101","65424","0.0-1.0-100.0","",""
"null","sound/msl/organ.wav","null","audio-keyboard-response","102","65923","0.0-1.0-101.0","",""
"null","sound/msl/boing.wav","null","audio-keyboard-response","103","66423","0.0-1.0-102.0","",""
"null","sound/msl/ding.wav","null","audio-keyboard-response","104","66922","0.0-1.0-103.0","",""
"null","sound/msl/cow.wav","null","audio-keyboard-response","105","67432","0.0-1.0-104.0","",""
"null","sound/msl/duck.wav","null","audio-keyboard-response","106","67932","0.0-1.0-105.0","",""
"null","sound/msl/frog.wav","null","audio-keyboard-response","107","68441","0.0-1.0-106.0","",""
"null","sound/msl/door_bell.wav","null","audio-keyboard-response","108","68952","0.0-1.0-107.0","",""
"null","sound/msl/bird.wav","null","audio-keyboard-response","109","69453","0.0-1.0-108.0","",""
"null","sound/msl/Water.wav","null","audio-keyboard-response","110","69962","0.0-1.0-109.0","",""
"null","sound/msl/organ.wav","null","audio-keyboard-response","111","70462","0.0-1.0-110.0","",""
"null","sound/msl/goat.wav","null","audio-keyboard-response","112","71003","0.0-1.0-111.0","",""
"null","sound/msl/door.wav","null","audio-keyboard-response","113","71503","0.0-1.0-112.0","",""
"null","sound/msl/clock.wav","null","audio-keyboard-response","114","72052","0.0-1.0-113.0","",""
"null","sound/msl/boing.wav","null","audio-keyboard-response","115","72552","0.0-1.0-114.0","",""
"null","sound/msl/ding.wav","null","audio-keyboard-response","116","73054","0.0-1.0-115.0","",""
"null","sound/msl/cow.wav","null","audio-keyboard-response","117","73563","0.0-1.0-116.0","",""
"null","sound/msl/cat.wav","null","audio-keyboard-response","118","74064","0.0-1.0-117.0","",""
"null","sound/msl/slide_whistle.wav","null","audio-keyboard-response","119","74563","0.0-1.0-118.0","",""
"null","sound/msl/dog.wav","null","audio-keyboard-response","120","75073","0.0-1.0-119.0","",""
"null","sound/msl/duck.wav","null","audio-keyboard-response","121","75574","0.0-1.0-120.0","",""
"null","sound/msl/frog.wav","null","audio-keyboard-response","122","76083","0.0-1.0-121.0","",""
"null","sound/msl/door_bell.wav","null","audio-keyboard-response","123","76593","0.0-1.0-122.0","",""
"null","sound/msl/bird.wav","null","audio-keyboard-response","124","77093","0.0-1.0-123.0","",""
"null","sound/msl/Water.wav","null","audio-keyboard-response","125","77603","0.0-1.0-124.0","",""
"null","sound/msl/organ.wav","null","audio-keyboard-response","126","78104","0.0-1.0-125.0","",""
"null","sound/msl/boing.wav","null","audio-keyboard-response","127","78604","0.0-1.0-126.0","",""
"null","sound/msl/ding.wav","null","audio-keyboard-response","128","79112","0.0-1.0-127.0","",""
"null","sound/msl/cow.wav","null","audio-keyboard-response","129","79613","0.0-1.0-128.0","",""
"null","sound/msl/goat.wav","null","audio-keyboard-response","130","80153","0.0-1.0-129.0","",""
"null","sound/msl/door.wav","null","audio-keyboard-response","131","80654","0.0-1.0-130.0","",""
"null","sound/msl/clock.wav","null","audio-keyboard-response","132","81203","0.0-1.0-131.0","",""
"null","sound/msl/bird.wav","null","audio-keyboard-response","133","81713","0.0-1.0-132.0","",""
"null","sound/msl/Water.wav","null","audio-keyboard-response","134","82224","0.0-1.0-133.0","",""
"null","sound/msl/organ.wav","null","audio-keyboard-response","135","82723","0.0-1.0-134.0","",""
"null","sound/msl/cat.wav","null","audio-keyboard-response","136","83223","0.0-1.0-135.0","",""
"null","sound/msl/slide_whistle.wav","null","audio-keyboard-response","137","83724","0.0-1.0-136.0","",""
"null","sound/msl/dog.wav","null","audio-keyboard-response","138","84234","0.0-1.0-137.0","",""
"null","sound/msl/goat.wav","null","audio-keyboard-response","139","84773","0.0-1.0-138.0","",""
"null","sound/msl/door.wav","null","audio-keyboard-response","140","85273","0.0-1.0-139.0","",""
"null","sound/msl/clock.wav","null","audio-keyboard-response","141","85823","0.0-1.0-140.0","",""
"null","sound/msl/duck.wav","null","audio-keyboard-response","142","86324","0.0-1.0-141.0","",""
"null","sound/msl/frog.wav","null","audio-keyboard-response","143","86834","0.0-1.0-142.0","",""
"null","sound/msl/door_bell.wav","null","audio-keyboard-response","144","87334","0.0-1.0-143.0","",""
"null","sound/msl/boing.wav","null","audio-keyboard-response","145","87834","0.0-1.0-144.0","",""
"null","sound/msl/ding.wav","null","audio-keyboard-response","146","88332","0.0-1.0-145.0","",""
"null","sound/msl/cow.wav","null","audio-keyboard-response","147","88843","0.0-1.0-146.0","",""
"null","sound/msl/cat.wav","null","audio-keyboard-response","148","89342","0.0-1.0-147.0","",""
"null","sound/msl/slide_whistle.wav","null","audio-keyboard-response","149","89843","0.0-1.0-148.0","",""
"null","sound/msl/dog.wav","null","audio-keyboard-response","150","90354","0.0-1.0-149.0","",""
"null","sound/msl/duck.wav","null","audio-keyboard-response","151","90854","0.0-1.0-150.0","",""
"null","sound/msl/frog.wav","null","audio-keyboard-response","152","91363","0.0-1.0-151.0","",""
"null","sound/msl/door_bell.wav","null","audio-keyboard-response","153","91874","0.0-1.0-152.0","",""
"null","sound/msl/bird.wav","null","audio-keyboard-response","154","92372","0.0-1.0-153.0","",""
"null","sound/msl/Water.wav","null","audio-keyboard-response","155","92883","0.0-1.0-154.0","",""
"null","sound/msl/organ.wav","null","audio-keyboard-response","156","93383","0.0-1.0-155.0","",""
"null","sound/msl/goat.wav","null","audio-keyboard-response","157","93923","0.0-1.0-156.0","",""
"null","sound/msl/door.wav","null","audio-keyboard-response","158","94424","0.0-1.0-157.0","",""
"null","sound/msl/clock.wav","null","audio-keyboard-response","159","94974","0.0-1.0-158.0","",""
"null","sound/msl/boing.wav","null","audio-keyboard-response","160","95472","0.0-1.0-159.0","",""
"null","sound/msl/ding.wav","null","audio-keyboard-response","161","95973","0.0-1.0-160.0","",""
"null","sound/msl/cow.wav","null","audio-keyboard-response","162","96483","0.0-1.0-161.0","",""
"null","sound/msl/bird.wav","null","audio-keyboard-response","163","96993","0.0-1.0-162.0","",""
"null","sound/msl/Water.wav","null","audio-keyboard-response","164","97502","0.0-1.0-163.0","",""
"null","sound/msl/organ.wav","null","audio-keyboard-response","165","98002","0.0-1.0-164.0","",""
"null","sound/msl/goat.wav","null","audio-keyboard-response","166","98544","0.0-1.0-165.0","",""
"null","sound/msl/door.wav","null","audio-keyboard-response","167","99044","0.0-1.0-166.0","",""
"null","sound/msl/clock.wav","null","audio-keyboard-response","168","99594","0.0-1.0-167.0","",""
"null","sound/msl/duck.wav","null","audio-keyboard-response","169","100094","0.0-1.0-168.0","",""
"null","sound/msl/frog.wav","null","audio-keyboard-response","170","100603","0.0-1.0-169.0","",""
"null","sound/msl/door_bell.wav","null","audio-keyboard-response","171","101112","0.0-1.0-170.0","",""
"null","sound/msl/cat.wav","null","audio-keyboard-response","172","101613","0.0-1.0-171.0","",""
"null","sound/msl/slide_whistle.wav","null","audio-keyboard-response","173","102112","0.0-1.0-172.0","",""
"null","sound/msl/dog.wav","null","audio-keyboard-response","174","102612","0.0-1.0-173.0","",""
"null","sound/msl/boing.wav","null","audio-keyboard-response","175","103114","0.0-1.0-174.0","",""
"null","sound/msl/ding.wav","null","audio-keyboard-response","176","103612","0.0-1.0-175.0","",""
"null","sound/msl/cow.wav","null","audio-keyboard-response","177","104123","0.0-1.0-176.0","",""
"null","sound/msl/bird.wav","null","audio-keyboard-response","178","104634","0.0-1.0-177.0","",""
"null","sound/msl/Water.wav","null","audio-keyboard-response","179","105144","0.0-1.0-178.0","",""
"null","sound/msl/organ.wav","null","audio-keyboard-response","180","105642","0.0-1.0-179.0","",""
"null","sound/msl/cat.wav","null","audio-keyboard-response","181","106143","0.0-1.0-180.0","",""
"null","sound/msl/slide_whistle.wav","null","audio-keyboard-response","182","106643","0.0-1.0-181.0","",""
"null","sound/msl/dog.wav","null","audio-keyboard-response","183","107153","0.0-1.0-182.0","",""
"null","sound/msl/goat.wav","null","audio-keyboard-response","184","107694","0.0-1.0-183.0","",""
"null","sound/msl/door.wav","null","audio-keyboard-response","185","108192","0.0-1.0-184.0","",""
"null","sound/msl/clock.wav","null","audio-keyboard-response","186","108743","0.0-1.0-185.0","",""
"null","sound/msl/duck.wav","null","audio-keyboard-response","187","109243","0.0-1.0-186.0","",""
"null","sound/msl/frog.wav","null","audio-keyboard-response","188","109753","0.0-1.0-187.0","",""
"null","sound/msl/door_bell.wav","null","audio-keyboard-response","189","110252","0.0-1.0-188.0","",""
"null","sound/msl/boing.wav","null","audio-keyboard-response","190","110753","0.0-1.0-189.0","",""
"null","sound/msl/ding.wav","null","audio-keyboard-response","191","111254","0.0-1.0-190.0","",""
"null","sound/msl/cow.wav","null","audio-keyboard-response","192","111763","0.0-1.0-191.0","",""
"null","sound/msl/bird.wav","null","audio-keyboard-response","193","112273","0.0-1.0-192.0","",""
"null","sound/msl/Water.wav","null","audio-keyboard-response","194","112782","0.0-1.0-193.0","",""
"null","sound/msl/organ.wav","null","audio-keyboard-response","195","113283","0.0-1.0-194.0","",""
"null","sound/msl/cat.wav","null","audio-keyboard-response","196","113783","0.0-1.0-195.0","",""
"null","sound/msl/slide_whistle.wav","null","audio-keyboard-response","197","114283","0.0-1.0-196.0","",""
"null","sound/msl/dog.wav","null","audio-keyboard-response","198","114793","0.0-1.0-197.0","",""
"null","sound/msl/duck.wav","null","audio-keyboard-response","199","115293","0.0-1.0-198.0","",""
"null","sound/msl/frog.wav","null","audio-keyboard-response","200","115803","0.0-1.0-199.0","",""
"null","sound/msl/door_bell.wav","null","audio-keyboard-response","201","116313","0.0-1.0-200.0","",""
"null","sound/msl/goat.wav","null","audio-keyboard-response","202","116853","0.0-1.0-201.0","",""
"null","sound/msl/door.wav","null","audio-keyboard-response","203","117354","0.0-1.0-202.0","",""
"null","sound/msl/clock.wav","null","audio-keyboard-response","204","117902","0.0-1.0-203.0","",""
"null","sound/msl/boing.wav","null","audio-keyboard-response","205","118402","0.0-1.0-204.0","",""
"null","sound/msl/ding.wav","null","audio-keyboard-response","206","118912","0.0-1.0-205.0","",""
"null","sound/msl/cow.wav","null","audio-keyboard-response","207","119412","0.0-1.0-206.0","",""
"null","sound/msl/bird.wav","null","audio-keyboard-response","208","119922","0.0-1.0-207.0","",""
"null","sound/msl/Water.wav","null","audio-keyboard-response","209","120434","0.0-1.0-208.0","",""
"null","sound/msl/organ.wav","null","audio-keyboard-response","210","120934","0.0-1.0-209.0","",""
"null","sound/msl/duck.wav","null","audio-keyboard-response","211","121442","0.0-1.0-210.0","",""
"null","sound/msl/frog.wav","null","audio-keyboard-response","212","121954","0.0-1.0-211.0","",""
"null","sound/msl/door_bell.wav","null","audio-keyboard-response","213","122453","0.0-1.0-212.0","",""
"null","sound/msl/boing.wav","null","audio-keyboard-response","214","122953","0.0-1.0-213.0","",""
"null","sound/msl/ding.wav","null","audio-keyboard-response","215","123453","0.0-1.0-214.0","",""
"null","sound/msl/cow.wav","null","audio-keyboard-response","216","123963","0.0-1.0-215.0","",""
"null","sound/msl/cat.wav","null","audio-keyboard-response","217","124464","0.0-1.0-216.0","",""
"null","sound/msl/slide_whistle.wav","null","audio-keyboard-response","218","124963","0.0-1.0-217.0","",""
"null","sound/msl/dog.wav","null","audio-keyboard-response","219","125473","0.0-1.0-218.0","",""
"null","sound/msl/goat.wav","null","audio-keyboard-response","220","126012","0.0-1.0-219.0","",""
"null","sound/msl/door.wav","null","audio-keyboard-response","221","126513","0.0-1.0-220.0","",""
"null","sound/msl/clock.wav","null","audio-keyboard-response","222","127064","0.0-1.0-221.0","",""
"null","sound/msl/bird.wav","null","audio-keyboard-response","223","127564","0.0-1.0-222.0","",""
"null","sound/msl/Water.wav","null","audio-keyboard-response","224","128072","0.0-1.0-223.0","",""
"null","sound/msl/organ.wav","null","audio-keyboard-response","225","128573","0.0-1.0-224.0","",""
"null","sound/msl/cat.wav","null","audio-keyboard-response","226","129074","0.0-1.0-225.0","",""
"null","sound/msl/slide_whistle.wav","null","audio-keyboard-response","227","129573","0.0-1.0-226.0","",""
"null","sound/msl/dog.wav","null","audio-keyboard-response","228","130082","0.0-1.0-227.0","",""
"null","sound/msl/boing.wav","null","audio-keyboard-response","229","130582","0.0-1.0-228.0","",""
"null","sound/msl/ding.wav","null","audio-keyboard-response","230","131082","0.0-1.0-229.0","",""
"null","sound/msl/cow.wav","null","audio-keyboard-response","231","131593","0.0-1.0-230.0","",""
"null","sound/msl/cat.wav","null","audio-keyboard-response","232","132092","0.0-1.0-231.0","",""
"null","sound/msl/slide_whistle.wav","null","audio-keyboard-response","233","132593","0.0-1.0-232.0","",""
"null","sound/msl/dog.wav","null","audio-keyboard-response","234","133094","0.0-1.0-233.0","",""
"null","sound/msl/bird.wav","null","audio-keyboard-response","235","133603","0.0-1.0-234.0","",""
"null","sound/msl/Water.wav","null","audio-keyboard-response","236","134113","0.0-1.0-235.0","",""
"null","sound/msl/organ.wav","null","audio-keyboard-response","237","134613","0.0-1.0-236.0","",""
"null","sound/msl/goat.wav","null","audio-keyboard-response","238","135152","0.0-1.0-237.0","",""
"null","sound/msl/door.wav","null","audio-keyboard-response","239","135654","0.0-1.0-238.0","",""
"null","sound/msl/clock.wav","null","audio-keyboard-response","240","136203","0.0-1.0-239.0","",""
"null","sound/msl/duck.wav","null","audio-keyboard-response","241","136713","0.0-1.0-240.0","",""
"null","sound/msl/frog.wav","null","audio-keyboard-response","242","137212","0.0-1.0-241.0","",""
"null","sound/msl/door_bell.wav","null","audio-keyboard-response","243","137724","0.0-1.0-242.0","",""
"null","sound/msl/boing.wav","null","audio-keyboard-response","244","138223","0.0-1.0-243.0","",""
"null","sound/msl/ding.wav","null","audio-keyboard-response","245","138723","0.0-1.0-244.0","",""
"null","sound/msl/cow.wav","null","audio-keyboard-response","246","139234","0.0-1.0-245.0","",""
"null","sound/msl/bird.wav","null","audio-keyboard-response","247","139732","0.0-1.0-246.0","",""
"null","sound/msl/Water.wav","null","audio-keyboard-response","248","140242","0.0-1.0-247.0","",""
"null","sound/msl/organ.wav","null","audio-keyboard-response","249","140741","0.0-1.0-248.0","",""
"null","sound/msl/goat.wav","null","audio-keyboard-response","250","141283","0.0-1.0-249.0","",""
"null","sound/msl/door.wav","null","audio-keyboard-response","251","141785","0.0-1.0-250.0","",""
"null","sound/msl/clock.wav","null","audio-keyboard-response","252","142333","0.0-1.0-251.0","",""
"null","sound/msl/duck.wav","null","audio-keyboard-response","253","142843","0.0-1.0-252.0","",""
"null","sound/msl/frog.wav","null","audio-keyboard-response","254","143353","0.0-1.0-253.0","",""
"null","sound/msl/door_bell.wav","null","audio-keyboard-response","255","143853","0.0-1.0-254.0","",""
"null","sound/msl/cat.wav","null","audio-keyboard-response","256","144352","0.0-1.0-255.0","",""
"null","sound/msl/slide_whistle.wav","null","audio-keyboard-response","257","144852","0.0-1.0-256.0","",""
"null","sound/msl/dog.wav","null","audio-keyboard-response","258","145363","0.0-1.0-257.0","",""
"null","sound/msl/boing.wav","null","audio-keyboard-response","259","145862","0.0-1.0-258.0","",""
"null","sound/msl/ding.wav","null","audio-keyboard-response","260","146362","0.0-1.0-259.0","",""
"null","sound/msl/cow.wav","null","audio-keyboard-response","261","146872","0.0-1.0-260.0","",""
"null","sound/msl/duck.wav","null","audio-keyboard-response","262","147373","0.0-1.0-261.0","",""
"null","sound/msl/frog.wav","null","audio-keyboard-response","263","147883","0.0-1.0-262.0","",""
"null","sound/msl/door_bell.wav","null","audio-keyboard-response","264","148392","0.0-1.0-263.0","",""
"null","sound/msl/goat.wav","null","audio-keyboard-response","265","148932","0.0-1.0-264.0","",""
"null","sound/msl/door.wav","null","audio-keyboard-response","266","149432","0.0-1.0-265.0","",""
"null","sound/msl/clock.wav","null","audio-keyboard-response","267","149983","0.0-1.0-266.0","",""
"null","sound/msl/cat.wav","null","audio-keyboard-response","268","150483","0.0-1.0-267.0","",""
"null","sound/msl/slide_whistle.wav","null","audio-keyboard-response","269","150983","0.0-1.0-268.0","",""
"null","sound/msl/dog.wav","null","audio-keyboard-response","270","151482","0.0-1.0-269.0","",""
"null","sound/msl/bird.wav","null","audio-keyboard-response","271","151992","0.0-1.0-270.0","",""
"null","sound/msl/Water.wav","null","audio-keyboard-response","272","152501","0.0-1.0-271.0","",""
"null","sound/msl/organ.wav","null","audio-keyboard-response","273","153003","0.0-1.0-272.0","",""
"null","sound/msl/boing.wav","null","audio-keyboard-response","274","153504","0.0-1.0-273.0","",""
"null","sound/msl/ding.wav","null","audio-keyboard-response","275","154003","0.0-1.0-274.0","",""
"null","sound/msl/cow.wav","null","audio-keyboard-response","276","154512","0.0-1.0-275.0","",""
"null","sound/msl/duck.wav","null","audio-keyboard-response","277","155012","0.0-1.0-276.0","",""
"null","sound/msl/frog.wav","null","audio-keyboard-response","278","155523","0.0-1.0-277.0","",""
"null","sound/msl/door_bell.wav","null","audio-keyboard-response","279","156032","0.0-1.0-278.0","",""
"null","sound/msl/goat.wav","null","audio-keyboard-response","280","156573","0.0-1.0-279.0","",""
"null","sound/msl/door.wav","null","audio-keyboard-response","281","157072","0.0-1.0-280.0","",""
"null","sound/msl/clock.wav","null","audio-keyboard-response","282","157623","0.0-1.0-281.0","",""
"null","sound/msl/bird.wav","null","audio-keyboard-response","283","158124","0.0-1.0-282.0","",""
"null","sound/msl/Water.wav","null","audio-keyboard-response","284","158633","0.0-1.0-283.0","",""
"null","sound/msl/organ.wav","null","audio-keyboard-response","285","159132","0.0-1.0-284.0","",""
"null","sound/msl/cat.wav","null","audio-keyboard-response","286","159633","0.0-1.0-285.0","",""
"null","sound/msl/slide_whistle.wav","null","audio-keyboard-response","287","160134","0.0-1.0-286.0","",""
"null","sound/msl/dog.wav","null","audio-keyboard-response","288","160642","0.0-1.0-287.0","",""
"null","sound/msl/boing.wav","null","audio-keyboard-response","289","161143","0.0-1.0-288.0","",""
"null","sound/msl/ding.wav","null","audio-keyboard-response","290","161644","0.0-1.0-289.0","",""
"null","sound/msl/cow.wav","null","audio-keyboard-response","291","162154","0.0-1.0-290.0","",""
"null","sound/msl/goat.wav","null","audio-keyboard-response","292","162692","0.0-1.0-291.0","",""
"null","sound/msl/door.wav","null","audio-keyboard-response","293","163193","0.0-1.0-292.0","",""
"null","sound/msl/clock.wav","null","audio-keyboard-response","294","163744","0.0-1.0-293.0","",""
"null","sound/msl/duck.wav","null","audio-keyboard-response","295","164242","0.0-1.0-294.0","",""
"null","sound/msl/frog.wav","null","audio-keyboard-response","296","164752","0.0-1.0-295.0","",""
"null","sound/msl/door_bell.wav","null","audio-keyboard-response","297","165253","0.0-1.0-296.0","",""
"null","sound/msl/boing.wav","null","audio-keyboard-response","298","165752","0.0-1.0-297.0","",""
"null","sound/msl/ding.wav","null","audio-keyboard-response","299","166253","0.0-1.0-298.0","",""
"null","sound/msl/cow.wav","null","audio-keyboard-response","300","166763","0.0-1.0-299.0","",""
"null","sound/msl/bird.wav","null","audio-keyboard-response","301","167274","0.0-1.0-300.0","",""
"null","sound/msl/Water.wav","null","audio-keyboard-response","302","167784","0.0-1.0-301.0","",""
"null","sound/msl/organ.wav","null","audio-keyboard-response","303","168282","0.0-1.0-302.0","",""
"null","sound/msl/goat.wav","null","audio-keyboard-response","304","168824","0.0-1.0-303.0","",""
"null","sound/msl/door.wav","null","audio-keyboard-response","305","169322","0.0-1.0-304.0","",""
"null","sound/msl/clock.wav","null","audio-keyboard-response","306","169873","0.0-1.0-305.0","",""
"null","sound/msl/cat.wav","null","audio-keyboard-response","307","170374","0.0-1.0-306.0","",""
"null","sound/msl/slide_whistle.wav","null","audio-keyboard-response","308","170872","0.0-1.0-307.0","",""
"null","sound/msl/dog.wav","null","audio-keyboard-response","309","171373","0.0-1.0-308.0","",""
"null","sound/msl/duck.wav","null","audio-keyboard-response","310","171882","0.0-1.0-309.0","",""
"null","sound/msl/frog.wav","null","audio-keyboard-response","311","172393","0.0-1.0-310.0","",""
"null","sound/msl/door_bell.wav","null","audio-keyboard-response","312","172893","0.0-1.0-311.0","",""
"null","sound/msl/boing.wav","null","audio-keyboard-response","313","173393","0.0-1.0-312.0","",""
"null","sound/msl/ding.wav","null","audio-keyboard-response","314","173893","0.0-1.0-313.0","",""
"null","sound/msl/cow.wav","null","audio-keyboard-response","315","174401","0.0-1.0-314.0","",""
"null","sound/msl/bird.wav","null","audio-keyboard-response","316","174912","0.0-1.0-315.0","",""
"null","sound/msl/Water.wav","null","audio-keyboard-response","317","175423","0.0-1.0-316.0","",""
"null","sound/msl/organ.wav","null","audio-keyboard-response","318","175924","0.0-1.0-317.0","",""
"null","sound/msl/goat.wav","null","audio-keyboard-response","319","176462","0.0-1.0-318.0","",""
"null","sound/msl/door.wav","null","audio-keyboard-response","320","176964","0.0-1.0-319.0","",""
"null","sound/msl/clock.wav","null","audio-keyboard-response","321","177513","0.0-1.0-320.0","",""
"null","sound/msl/duck.wav","null","audio-keyboard-response","322","178013","0.0-1.0-321.0","",""
"null","sound/msl/frog.wav","null","audio-keyboard-response","323","178523","0.0-1.0-322.0","",""
"null","sound/msl/door_bell.wav","null","audio-keyboard-response","324","179032","0.0-1.0-323.0","",""
"null","sound/msl/bird.wav","null","audio-keyboard-response","325","179532","0.0-1.0-324.0","",""
"null","sound/msl/Water.wav","null","audio-keyboard-response","326","180044","0.0-1.0-325.0","",""
"null","sound/msl/organ.wav","null","audio-keyboard-response","327","180543","0.0-1.0-326.0","",""
"null","sound/msl/cat.wav","null","audio-keyboard-response","328","181043","0.0-1.0-327.0","",""
"null","sound/msl/slide_whistle.wav","null","audio-keyboard-response","329","181543","0.0-1.0-328.0","",""
"null","sound/msl/dog.wav","null","audio-keyboard-response","330","182042","0.0-1.0-329.0","",""
"null","sound/msl/boing.wav","null","audio-keyboard-response","331","182544","0.0-1.0-330.0","",""
"null","sound/msl/ding.wav","null","audio-keyboard-response","332","183043","0.0-1.0-331.0","",""
"null","sound/msl/cow.wav","null","audio-keyboard-response","333","183553","0.0-1.0-332.0","",""
"null","sound/msl/goat.wav","null","audio-keyboard-response","334","184092","0.0-1.0-333.0","",""
"null","sound/msl/door.wav","null","audio-keyboard-response","335","184592","0.0-1.0-334.0","",""
"null","sound/msl/clock.wav","null","audio-keyboard-response","336","185144","0.0-1.0-335.0","",""
"null","sound/msl/cat.wav","null","audio-keyboard-response","337","185644","0.0-1.0-336.0","",""
"null","sound/msl/slide_whistle.wav","null","audio-keyboard-response","338","186142","0.0-1.0-337.0","",""
"null","sound/msl/dog.wav","null","audio-keyboard-response","339","186642","0.0-1.0-338.0","",""
"null","sound/msl/duck.wav","null","audio-keyboard-response","340","187154","0.0-1.0-339.0","",""
"null","sound/msl/frog.wav","null","audio-keyboard-response","341","187654","0.0-1.0-340.0","",""
"null","sound/msl/door_bell.wav","null","audio-keyboard-response","342","188162","0.0-1.0-341.0","",""
"null","sound/msl/goat.wav","null","audio-keyboard-response","343","188703","0.0-1.0-342.0","",""
"null","sound/msl/door.wav","null","audio-keyboard-response","344","189203","0.0-1.0-343.0","",""
"null","sound/msl/clock.wav","null","audio-keyboard-response","345","189754","0.0-1.0-344.0","",""
"null","sound/msl/duck.wav","null","audio-keyboard-response","346","190253","0.0-1.0-345.0","",""
"null","sound/msl/frog.wav","null","audio-keyboard-response","347","190762","0.0-1.0-346.0","",""
"null","sound/msl/door_bell.wav","null","audio-keyboard-response","348","191273","0.0-1.0-347.0","",""
"null","sound/msl/cat.wav","null","audio-keyboard-response","349","191773","0.0-1.0-348.0","",""
"null","sound/msl/slide_whistle.wav","null","audio-keyboard-response","350","192273","0.0-1.0-349.0","",""
"null","sound/msl/dog.wav","null","audio-keyboard-response","351","192772","0.0-1.0-350.0","",""
"null","sound/msl/boing.wav","null","audio-keyboard-response","352","193273","0.0-1.0-351.0","",""
"null","sound/msl/ding.wav","null","audio-keyboard-response","353","193773","0.0-1.0-352.0","",""
"null","sound/msl/cow.wav","null","audio-keyboard-response","354","194281","0.0-1.0-353.0","",""
"null","sound/msl/goat.wav","null","audio-keyboard-response","355","194820","0.0-1.0-354.0","",""
"null","sound/msl/door.wav","null","audio-keyboard-response","356","195320","0.0-1.0-355.0","",""
"null","sound/msl/clock.wav","null","audio-keyboard-response","357","195869","0.0-1.0-356.0","",""
"null","sound/msl/duck.wav","null","audio-keyboard-response","358","196370","0.0-1.0-357.0","",""
"null","sound/msl/frog.wav","null","audio-keyboard-response","359","196879","0.0-1.0-358.0","",""
"null","sound/msl/door_bell.wav","null","audio-keyboard-response","360","197390","0.0-1.0-359.0","",""
"26460","Instructions2-eng.png","49","image-keyboard-response","361","223852","0.0-2.0","",""
"null","sound/msl/duck.wav","null","audio-keyboard-response","362","224360","0.0-3.0-0.0","",""
"null","sound/msl/Water.wav","null","audio-keyboard-response","363","224870","0.0-3.0-1.0","",""
"null","sound/msl/dog.wav","null","audio-keyboard-response","364","225369","0.0-3.0-2.0","",""
"null","sound/asl/silence.wav","null","audio-keyboard-response","365","225878","0.0-3.0-3.0","",""
"null","sound/msl/duck.wav","null","audio-keyboard-response","366","226391","0.0-3.0-4.0","",""
"null","sound/msl/frog.wav","null","audio-keyboard-response","367","226890","0.0-3.0-5.0","",""
"null","sound/msl/door_bell.wav","null","audio-keyboard-response","368","227401","0.0-3.0-6.0","",""
"3379","sound/asl/silence.wav","50","audio-keyboard-response","369","230782","0.0-3.0-7.0","true",""
"null","sound/msl/boing.wav","null","audio-keyboard-response","370","231280","0.0-4.0-0.0","",""
"null","sound/msl/frog.wav","null","audio-keyboard-response","371","231790","0.0-4.0-1.0","",""
"null","sound/msl/organ.wav","null","audio-keyboard-response","372","232291","0.0-4.0-2.0","",""
"null","sound/asl/silence.wav","null","audio-keyboard-response","373","232798","0.0-4.0-3.0","",""
"null","sound/msl/bird.wav","null","audio-keyboard-response","374","233309","0.0-4.0-4.0","",""
"null","sound/msl/Water.wav","null","audio-keyboard-response","375","233820","0.0-4.0-5.0","",""
"null","sound/msl/organ.wav","null","audio-keyboard-response","376","234318","0.0-4.0-6.0","",""
"1691","sound/asl/silence.wav","50","audio-keyboard-response","377","236016","0.0-4.0-7.0","true",""
"null","sound/msl/cat.wav","null","audio-keyboard-response","378","236521","0.0-5.0-0.0","",""
"null","sound/msl/slide_whistle.wav","null","audio-keyboard-response","379","237021","0.0-5.0-1.0","",""
"null","sound/msl/dog.wav","null","audio-keyboard-response","380","237520","0.0-5.0-2.0","",""
"null","sound/asl/silence.wav","null","audio-keyboard-response","381","238028","0.0-5.0-3.0","",""
"null","sound/msl/duck.wav","null","audio-keyboard-response","382","238520","0.0-5.0-4.0","",""
"null","sound/msl/Water.wav","null","audio-keyboard-response","383","239030","0.0-5.0-5.0","",""
"null","sound/msl/dog.wav","null","audio-keyboard-response","384","239529","0.0-5.0-6.0","",""
"848","sound/asl/silence.wav","49","audio-keyboard-response","385","240385","0.0-5.0-7.0","true",""
"null","sound/msl/boing.wav","null","audio-keyboard-response","386","240879","0.0-6.0-0.0","",""
"null","sound/msl/ding.wav","null","audio-keyboard-response","387","241389","0.0-6.0-1.0","",""
"null","sound/msl/cow.wav","null","audio-keyboard-response","388","241891","0.0-6.0-2.0","",""
"null","sound/asl/silence.wav","null","audio-keyboard-response","389","242408","0.0-6.0-3.0","",""
"null","sound/msl/bird.wav","null","audio-keyboard-response","390","242910","0.0-6.0-4.0","",""
"null","sound/msl/slide_whistle.wav","null","audio-keyboard-response","391","243409","0.0-6.0-5.0","",""
"null","sound/msl/clock.wav","null","audio-keyboard-response","392","243961","0.0-6.0-6.0","",""
"800","sound/asl/silence.wav","49","audio-keyboard-response","393","244763","0.0-6.0-7.0","true",""
"null","sound/msl/goat.wav","null","audio-keyboard-response","394","245300","0.0-7.0-0.0","",""
"null","sound/msl/door.wav","null","audio-keyboard-response","395","245800","0.0-7.0-1.0","",""
"null","sound/msl/clock.wav","null","audio-keyboard-response","396","246350","0.0-7.0-2.0","",""
"null","sound/asl/silence.wav","null","audio-keyboard-response","397","246868","0.0-7.0-3.0","",""
"null","sound/msl/goat.wav","null","audio-keyboard-response","398","247400","0.0-7.0-4.0","",""
"null","sound/msl/ding.wav","null","audio-keyboard-response","399","247909","0.0-7.0-5.0","",""
"null","sound/msl/door_bell.wav","null","audio-keyboard-response","400","248410","0.0-7.0-6.0","",""
"1200","sound/asl/silence.wav","49","audio-keyboard-response","401","249620","0.0-7.0-7.0","true",""
"null","sound/msl/duck.wav","null","audio-keyboard-response","402","250121","0.0-8.0-0.0","",""
"null","sound/msl/Water.wav","null","audio-keyboard-response","403","250630","0.0-8.0-1.0","",""
"null","sound/msl/dog.wav","null","audio-keyboard-response","404","251129","0.0-8.0-2.0","",""
"null","sound/asl/silence.wav","null","audio-keyboard-response","405","251638","0.0-8.0-3.0","",""
"null","sound/msl/boing.wav","null","audio-keyboard-response","406","252141","0.0-8.0-4.0","",""
"null","sound/msl/ding.wav","null","audio-keyboard-response","407","252641","0.0-8.0-5.0","",""
"null","sound/msl/cow.wav","null","audio-keyboard-response","408","253150","0.0-8.0-6.0","",""
"701","sound/asl/silence.wav","50","audio-keyboard-response","409","253850","0.0-8.0-7.0","true",""
"null","sound/msl/duck.wav","null","audio-keyboard-response","410","254362","0.0-9.0-0.0","",""
"null","sound/msl/Water.wav","null","audio-keyboard-response","411","254873","0.0-9.0-1.0","",""
"null","sound/msl/dog.wav","null","audio-keyboard-response","412","255372","0.0-9.0-2.0","",""
"null","sound/asl/silence.wav","null","audio-keyboard-response","413","255881","0.0-9.0-3.0","",""
"null","sound/msl/goat.wav","null","audio-keyboard-response","414","256422","0.0-9.0-4.0","",""
"null","sound/msl/door.wav","null","audio-keyboard-response","415","256922","0.0-9.0-5.0","",""
"null","sound/msl/clock.wav","null","audio-keyboard-response","416","257472","0.0-9.0-6.0","",""
"1611","sound/asl/silence.wav","50","audio-keyboard-response","417","259086","0.0-9.0-7.0","true",""
"null","sound/msl/bird.wav","null","audio-keyboard-response","418","259594","0.0-10.0-0.0","",""
"null","sound/msl/slide_whistle.wav","null","audio-keyboard-response","419","260095","0.0-10.0-1.0","",""
"null","sound/msl/clock.wav","null","audio-keyboard-response","420","260643","0.0-10.0-2.0","",""
"null","sound/asl/silence.wav","null","audio-keyboard-response","421","261152","0.0-10.0-3.0","",""
"null","sound/msl/duck.wav","null","audio-keyboard-response","422","261643","0.0-10.0-4.0","",""
"null","sound/msl/frog.wav","null","audio-keyboard-response","423","262153","0.0-10.0-5.0","",""
"null","sound/msl/door_bell.wav","null","audio-keyboard-response","424","262654","0.0-10.0-6.0","",""
"840","sound/asl/silence.wav","50","audio-keyboard-response","425","263502","0.0-10.0-7.0","true",""
"null","sound/msl/cat.wav","null","audio-keyboard-response","426","264002","0.0-11.0-0.0","",""
"null","sound/msl/door.wav","null","audio-keyboard-response","427","264502","0.0-11.0-1.0","",""
"null","sound/msl/cow.wav","null","audio-keyboard-response","428","265003","0.0-11.0-2.0","",""
"null","sound/asl/silence.wav","null","audio-keyboard-response","429","265512","0.0-11.0-3.0","",""
"null","sound/msl/cat.wav","null","audio-keyboard-response","430","266003","0.0-11.0-4.0","",""
"null","sound/msl/slide_whistle.wav","null","audio-keyboard-response","431","266504","0.0-11.0-5.0","",""
"null","sound/msl/dog.wav","null","audio-keyboard-response","432","267003","0.0-11.0-6.0","",""
"1469","sound/asl/silence.wav","49","audio-keyboard-response","433","268478","0.0-11.0-7.0","false",""
"null","sound/msl/cat.wav","null","audio-keyboard-response","434","268974","0.0-12.0-0.0","",""
"null","sound/msl/door.wav","null","audio-keyboard-response","435","269474","0.0-12.0-1.0","",""
"null","sound/msl/cow.wav","null","audio-keyboard-response","436","269974","0.0-12.0-2.0","",""
"null","sound/asl/silence.wav","null","audio-keyboard-response","437","270482","0.0-12.0-3.0","",""
"null","sound/msl/duck.wav","null","audio-keyboard-response","438","270992","0.0-12.0-4.0","",""
"null","sound/msl/frog.wav","null","audio-keyboard-response","439","271494","0.0-12.0-5.0","",""
"null","sound/msl/door_bell.wav","null","audio-keyboard-response","440","272003","0.0-12.0-6.0","",""
"499","sound/asl/silence.wav","50","audio-keyboard-response","441","272508","0.0-12.0-7.0","true",""
"null","sound/msl/duck.wav","null","audio-keyboard-response","442","273003","0.0-13.0-0.0","",""
"null","sound/msl/frog.wav","null","audio-keyboard-response","443","273514","0.0-13.0-1.0","",""
"null","sound/msl/door_bell.wav","null","audio-keyboard-response","444","274014","0.0-13.0-2.0","",""
"null","sound/asl/silence.wav","null","audio-keyboard-response","445","274521","0.0-13.0-3.0","",""
"null","sound/msl/goat.wav","null","audio-keyboard-response","446","275053","0.0-13.0-4.0","",""
"null","sound/msl/ding.wav","null","audio-keyboard-response","447","275564","0.0-13.0-5.0","",""
"null","sound/msl/door_bell.wav","null","audio-keyboard-response","448","276072","0.0-13.0-6.0","",""
"291","sound/asl/silence.wav","49","audio-keyboard-response","449","276371","0.0-13.0-7.0","true",""
"null","sound/msl/duck.wav","null","audio-keyboard-response","450","276873","0.0-14.0-0.0","",""
"null","sound/msl/frog.wav","null","audio-keyboard-response","451","277374","0.0-14.0-1.0","",""
"null","sound/msl/door_bell.wav","null","audio-keyboard-response","452","277883","0.0-14.0-2.0","",""
"null","sound/asl/silence.wav","null","audio-keyboard-response","453","278401","0.0-14.0-3.0","",""
"null","sound/msl/boing.wav","null","audio-keyboard-response","454","278904","0.0-14.0-4.0","",""
"null","sound/msl/frog.wav","null","audio-keyboard-response","455","279404","0.0-14.0-5.0","",""
"null","sound/msl/organ.wav","null","audio-keyboard-response","456","279903","0.0-14.0-6.0","",""
"381","sound/asl/silence.wav","49","audio-keyboard-response","457","280292","0.0-14.0-7.0","true",""
"null","sound/msl/bird.wav","null","audio-keyboard-response","458","280802","0.0-15.0-0.0","",""
"null","sound/msl/Water.wav","null","audio-keyboard-response","459","281314","0.0-15.0-1.0","",""
"null","sound/msl/organ.wav","null","audio-keyboard-response","460","281813","0.0-15.0-2.0","",""
"null","sound/asl/silence.wav","null","audio-keyboard-response","461","282331","0.0-15.0-3.0","",""
"null","sound/msl/cat.wav","null","audio-keyboard-response","462","282824","0.0-15.0-4.0","",""
"null","sound/msl/door.wav","null","audio-keyboard-response","463","283324","0.0-15.0-5.0","",""
"null","sound/msl/cow.wav","null","audio-keyboard-response","464","283834","0.0-15.0-6.0","",""
"931","sound/asl/silence.wav","49","audio-keyboard-response","465","284765","0.0-15.0-7.0","true",""
"null","sound/msl/cat.wav","null","audio-keyboard-response","466","285264","0.0-16.0-0.0","",""
"null","sound/msl/door.wav","null","audio-keyboard-response","467","285763","0.0-16.0-1.0","",""
"null","sound/msl/cow.wav","null","audio-keyboard-response","468","286272","0.0-16.0-2.0","",""
"null","sound/asl/silence.wav","null","audio-keyboard-response","469","286792","0.0-16.0-3.0","",""
"null","sound/msl/boing.wav","null","audio-keyboard-response","470","287283","0.0-16.0-4.0","",""
"null","sound/msl/ding.wav","null","audio-keyboard-response","471","287793","0.0-16.0-5.0","",""
"null","sound/msl/cow.wav","null","audio-keyboard-response","472","288293","0.0-16.0-6.0","",""
"328","sound/asl/silence.wav","49","audio-keyboard-response","473","288630","0.0-16.0-7.0","false",""
"null","sound/msl/boing.wav","null","audio-keyboard-response","474","289123","0.0-17.0-0.0","",""
"null","sound/msl/ding.wav","null","audio-keyboard-response","475","289634","0.0-17.0-1.0","",""
"null","sound/msl/cow.wav","null","audio-keyboard-response","476","290133","0.0-17.0-2.0","",""
"null","sound/asl/silence.wav","null","audio-keyboard-response","477","290652","0.0-17.0-3.0","",""
"null","sound/msl/boing.wav","null","audio-keyboard-response","478","291153","0.0-17.0-4.0","",""
"null","sound/msl/frog.wav","null","audio-keyboard-response","479","291654","0.0-17.0-5.0","",""
"null","sound/msl/organ.wav","null","audio-keyboard-response","480","292154","0.0-17.0-6.0","",""
"291","sound/asl/silence.wav","50","audio-keyboard-response","481","292453","0.0-17.0-7.0","false",""
"null","sound/msl/bird.wav","null","audio-keyboard-response","482","292963","0.0-18.0-0.0","",""
"null","sound/msl/Water.wav","null","audio-keyboard-response","483","293473","0.0-18.0-1.0","",""
"null","sound/msl/organ.wav","null","audio-keyboard-response","484","293973","0.0-18.0-2.0","",""
"null","sound/asl/silence.wav","null","audio-keyboard-response","485","294481","0.0-18.0-3.0","",""
"null","sound/msl/bird.wav","null","audio-keyboard-response","486","294972","0.0-18.0-4.0","",""
"null","sound/msl/slide_whistle.wav","null","audio-keyboard-response","487","295473","0.0-18.0-5.0","",""
"null","sound/msl/clock.wav","null","audio-keyboard-response","488","296024","0.0-18.0-6.0","",""
"1101","sound/asl/silence.wav","49","audio-keyboard-response","489","297132","0.0-18.0-7.0","true",""
"null","sound/msl/bird.wav","null","audio-keyboard-response","490","297642","0.0-19.0-0.0","",""
"null","sound/msl/Water.wav","null","audio-keyboard-response","491","298153","0.0-19.0-1.0","",""
"null","sound/msl/organ.wav","null","audio-keyboard-response","492","298653","0.0-19.0-2.0","",""
"null","sound/asl/silence.wav","null","audio-keyboard-response","493","299162","0.0-19.0-3.0","",""
"null","sound/msl/duck.wav","null","audio-keyboard-response","494","299673","0.0-19.0-4.0","",""
"null","sound/msl/Water.wav","null","audio-keyboard-response","495","300184","0.0-19.0-5.0","",""
"null","sound/msl/dog.wav","null","audio-keyboard-response","496","300684","0.0-19.0-6.0","",""
"99","sound/asl/silence.wav","49","audio-keyboard-response","497","300788","0.0-19.0-7.0","true",""
"null","sound/msl/cat.wav","null","audio-keyboard-response","498","301283","0.0-20.0-0.0","",""
"null","sound/msl/door.wav","null","audio-keyboard-response","499","301782","0.0-20.0-1.0","",""
"null","sound/msl/cow.wav","null","audio-keyboard-response","500","302284","0.0-20.0-2.0","",""
"null","sound/asl/silence.wav","null","audio-keyboard-response","501","302786","0.0-20.0-3.0","",""
"null","sound/msl/goat.wav","null","audio-keyboard-response","502","303323","0.0-20.0-4.0","",""
"null","sound/msl/door.wav","null","audio-keyboard-response","503","303824","0.0-20.0-5.0","",""
"null","sound/msl/clock.wav","null","audio-keyboard-response","504","304374","0.0-20.0-6.0","",""
"299","sound/asl/silence.wav","50","audio-keyboard-response","505","304679","0.0-20.0-7.0","true",""
"null","sound/msl/cat.wav","null","audio-keyboard-response","506","305172","0.0-21.0-0.0","",""
"null","sound/msl/slide_whistle.wav","null","audio-keyboard-response","507","305673","0.0-21.0-1.0","",""
"null","sound/msl/dog.wav","null","audio-keyboard-response","508","306174","0.0-21.0-2.0","",""
"null","sound/asl/silence.wav","null","audio-keyboard-response","509","306682","0.0-21.0-3.0","",""
"null","sound/msl/boing.wav","null","audio-keyboard-response","510","307184","0.0-21.0-4.0","",""
"null","sound/msl/frog.wav","null","audio-keyboard-response","511","307684","0.0-21.0-5.0","",""
"null","sound/msl/organ.wav","null","audio-keyboard-response","512","308182","0.0-21.0-6.0","",""
"331","sound/asl/silence.wav","49","audio-keyboard-response","513","308519","0.0-21.0-7.0","true",""
"null","sound/msl/goat.wav","null","audio-keyboard-response","514","309054","0.0-22.0-0.0","",""
"null","sound/msl/ding.wav","null","audio-keyboard-response","515","309563","0.0-22.0-1.0","",""
"null","sound/msl/door_bell.wav","null","audio-keyboard-response","516","310073","0.0-22.0-2.0","",""
"null","sound/asl/silence.wav","null","audio-keyboard-response","517","310582","0.0-22.0-3.0","",""
"null","sound/msl/cat.wav","null","audio-keyboard-response","518","311083","0.0-22.0-4.0","",""
"null","sound/msl/slide_whistle.wav","null","audio-keyboard-response","519","311584","0.0-22.0-5.0","",""
"null","sound/msl/dog.wav","null","audio-keyboard-response","520","312083","0.0-22.0-6.0","",""
"520","sound/asl/silence.wav","50","audio-keyboard-response","521","312604","0.0-22.0-7.0","true",""
"null","sound/msl/goat.wav","null","audio-keyboard-response","522","313143","0.0-23.0-0.0","",""
"null","sound/msl/door.wav","null","audio-keyboard-response","523","313643","0.0-23.0-1.0","",""
"null","sound/msl/clock.wav","null","audio-keyboard-response","524","314192","0.0-23.0-2.0","",""
"null","sound/asl/silence.wav","null","audio-keyboard-response","525","314701","0.0-23.0-3.0","",""
"null","sound/msl/boing.wav","null","audio-keyboard-response","526","315193","0.0-23.0-4.0","",""
"null","sound/msl/frog.wav","null","audio-keyboard-response","527","315693","0.0-23.0-5.0","",""
"null","sound/msl/organ.wav","null","audio-keyboard-response","528","316192","0.0-23.0-6.0","",""
"611","sound/asl/silence.wav","50","audio-keyboard-response","529","316808","0.0-23.0-7.0","false",""
"null","sound/msl/bird.wav","null","audio-keyboard-response","530","317312","0.0-24.0-0.0","",""
"null","sound/msl/slide_whistle.wav","null","audio-keyboard-response","531","317812","0.0-24.0-1.0","",""
"null","sound/msl/clock.wav","null","audio-keyboard-response","532","318363","0.0-24.0-2.0","",""
"null","sound/asl/silence.wav","null","audio-keyboard-response","533","318871","0.0-24.0-3.0","",""
"null","sound/msl/cat.wav","null","audio-keyboard-response","534","319372","0.0-24.0-4.0","",""
"null","sound/msl/slide_whistle.wav","null","audio-keyboard-response","535","319873","0.0-24.0-5.0","",""
"null","sound/msl/dog.wav","null","audio-keyboard-response","536","320373","0.0-24.0-6.0","",""
"339","sound/asl/silence.wav","50","audio-keyboard-response","537","320714","0.0-24.0-7.0","true",""
"null","sound/msl/goat.wav","null","audio-keyboard-response","538","321253","0.0-25.0-0.0","",""
"null","sound/msl/ding.wav","null","audio-keyboard-response","539","321763","0.0-25.0-1.0","",""
"null","sound/msl/door_bell.wav","null","audio-keyboard-response","540","322273","0.0-25.0-2.0","",""
"null","sound/asl/silence.wav","null","audio-keyboard-response","541","322781","0.0-25.0-3.0","",""
"null","sound/msl/bird.wav","null","audio-keyboard-response","542","323283","0.0-25.0-4.0","",""
"null","sound/msl/Water.wav","null","audio-keyboard-response","543","323792","0.0-25.0-5.0","",""
"null","sound/msl/organ.wav","null","audio-keyboard-response","544","324293","0.0-25.0-6.0","",""
"568","sound/asl/silence.wav","49","audio-keyboard-response","545","324864","0.0-25.0-7.0","false",""
"null","sound/msl/bird.wav","null","audio-keyboard-response","546","325362","0.0-26.0-0.0","",""
"null","sound/msl/slide_whistle.wav","null","audio-keyboard-response","547","325862","0.0-26.0-1.0","",""
"null","sound/msl/clock.wav","null","audio-keyboard-response","548","326411","0.0-26.0-2.0","",""
"null","sound/asl/silence.wav","null","audio-keyboard-response","549","326921","0.0-26.0-3.0","",""
"null","sound/msl/goat.wav","null","audio-keyboard-response","550","327453","0.0-26.0-4.0","",""
"null","sound/msl/door.wav","null","audio-keyboard-response","551","327951","0.0-26.0-5.0","",""
"null","sound/msl/clock.wav","null","audio-keyboard-response","552","328503","0.0-26.0-6.0","",""
"291","sound/asl/silence.wav","50","audio-keyboard-response","553","328793","0.0-26.0-7.0","true",""
"null","sound/msl/boing.wav","null","audio-keyboard-response","554","329293","0.0-27.0-0.0","",""
"null","sound/msl/ding.wav","null","audio-keyboard-response","555","329803","0.0-27.0-1.0","",""
"null","sound/msl/cow.wav","null","audio-keyboard-response","556","330313","0.0-27.0-2.0","",""
"null","sound/asl/silence.wav","null","audio-keyboard-response","557","330820","0.0-27.0-3.0","",""
"null","sound/msl/goat.wav","null","audio-keyboard-response","558","331364","0.0-27.0-4.0","",""
"null","sound/msl/ding.wav","null","audio-keyboard-response","559","331874","0.0-27.0-5.0","",""
"null","sound/msl/door_bell.wav","null","audio-keyboard-response","560","332372","0.0-27.0-6.0","",""
"688","sound/asl/silence.wav","50","audio-keyboard-response","561","333064","0.0-27.0-7.0","false",""
"3030","","","instructions","562","336094","0.0-28.0","","[{""page_index"":0,""viewing_time"":3029}]"
