"rt","stimulus","key_press","trial_type","trial_index","time_elapsed","internal_node_id","correct","view_history"
"10817","alien.jpg","49","image-keyboard-response","0","10818","0.0-0.0","",""
"null","sound/msl/door_bell.wav","null","audio-keyboard-response","1","11327","0.0-1.0-0.0","",""
"null","sound/msl/slide_whistle.wav","null","audio-keyboard-response","2","11827","0.0-1.0-1.0","",""
"null","sound/msl/frog.wav","null","audio-keyboard-response","3","12327","0.0-1.0-2.0","",""
"null","sound/msl/cow.wav","null","audio-keyboard-response","4","12837","0.0-1.0-3.0","",""
"null","sound/msl/dog.wav","null","audio-keyboard-response","5","13335","0.0-1.0-4.0","",""
"null","sound/msl/clock.wav","null","audio-keyboard-response","6","13887","0.0-1.0-5.0","",""
"null","sound/msl/goat.wav","null","audio-keyboard-response","7","14427","0.0-1.0-6.0","",""
"null","sound/msl/door.wav","null","audio-keyboard-response","8","14926","0.0-1.0-7.0","",""
"null","sound/msl/boing.wav","null","audio-keyboard-response","9","15427","0.0-1.0-8.0","",""
"null","sound/msl/Water.wav","null","audio-keyboard-response","10","15936","0.0-1.0-9.0","",""
"null","sound/msl/bird.wav","null","audio-keyboard-response","11","16447","0.0-1.0-10.0","",""
"null","sound/msl/organ.wav","null","audio-keyboard-response","12","16946","0.0-1.0-11.0","",""
"null","sound/msl/cow.wav","null","audio-keyboard-response","13","17446","0.0-1.0-12.0","",""
"null","sound/msl/dog.wav","null","audio-keyboard-response","14","17956","0.0-1.0-13.0","",""
"null","sound/msl/clock.wav","null","audio-keyboard-response","15","18505","0.0-1.0-14.0","",""
"null","sound/msl/door_bell.wav","null","audio-keyboard-response","16","19006","0.0-1.0-15.0","",""
"null","sound/msl/slide_whistle.wav","null","audio-keyboard-response","17","19507","0.0-1.0-16.0","",""
"null","sound/msl/frog.wav","null","audio-keyboard-response","18","20007","0.0-1.0-17.0","",""
"null","sound/msl/ding.wav","null","audio-keyboard-response","19","20516","0.0-1.0-18.0","",""
"null","sound/msl/duck.wav","null","audio-keyboard-response","20","21016","0.0-1.0-19.0","",""
"null","sound/msl/cat.wav","null","audio-keyboard-response","21","21516","0.0-1.0-20.0","",""
"null","sound/msl/Water.wav","null","audio-keyboard-response","22","22026","0.0-1.0-21.0","",""
"null","sound/msl/bird.wav","null","audio-keyboard-response","23","22525","0.0-1.0-22.0","",""
"null","sound/msl/organ.wav","null","audio-keyboard-response","24","23025","0.0-1.0-23.0","",""
"null","sound/msl/goat.wav","null","audio-keyboard-response","25","23567","0.0-1.0-24.0","",""
"null","sound/msl/door.wav","null","audio-keyboard-response","26","24066","0.0-1.0-25.0","",""
"null","sound/msl/boing.wav","null","audio-keyboard-response","27","24566","0.0-1.0-26.0","",""
"null","sound/msl/door_bell.wav","null","audio-keyboard-response","28","25076","0.0-1.0-27.0","",""
"null","sound/msl/slide_whistle.wav","null","audio-keyboard-response","29","25577","0.0-1.0-28.0","",""
"null","sound/msl/frog.wav","null","audio-keyboard-response","30","26086","0.0-1.0-29.0","",""
"null","sound/msl/cow.wav","null","audio-keyboard-response","31","26597","0.0-1.0-30.0","",""
"null","sound/msl/dog.wav","null","audio-keyboard-response","32","27096","0.0-1.0-31.0","",""
"null","sound/msl/clock.wav","null","audio-keyboard-response","33","27647","0.0-1.0-32.0","",""
"null","sound/msl/ding.wav","null","audio-keyboard-response","34","28157","0.0-1.0-33.0","",""
"null","sound/msl/duck.wav","null","audio-keyboard-response","35","28655","0.0-1.0-34.0","",""
"null","sound/msl/cat.wav","null","audio-keyboard-response","36","29157","0.0-1.0-35.0","",""
"null","sound/msl/goat.wav","null","audio-keyboard-response","37","29696","0.0-1.0-36.0","",""
"null","sound/msl/door.wav","null","audio-keyboard-response","38","30196","0.0-1.0-37.0","",""
"null","sound/msl/boing.wav","null","audio-keyboard-response","39","30696","0.0-1.0-38.0","",""
"null","sound/msl/Water.wav","null","audio-keyboard-response","40","31206","0.0-1.0-39.0","",""
"null","sound/msl/bird.wav","null","audio-keyboard-response","41","31716","0.0-1.0-40.0","",""
"null","sound/msl/organ.wav","null","audio-keyboard-response","42","32215","0.0-1.0-41.0","",""
"null","sound/msl/ding.wav","null","audio-keyboard-response","43","32726","0.0-1.0-42.0","",""
"null","sound/msl/duck.wav","null","audio-keyboard-response","44","33236","0.0-1.0-43.0","",""
"null","sound/msl/cat.wav","null","audio-keyboard-response","45","33736","0.0-1.0-44.0","",""
"null","sound/msl/cow.wav","null","audio-keyboard-response","46","34246","0.0-1.0-45.0","",""
"null","sound/msl/dog.wav","null","audio-keyboard-response","47","34756","0.0-1.0-46.0","",""
"null","sound/msl/clock.wav","null","audio-keyboard-response","48","35306","0.0-1.0-47.0","",""
"null","sound/msl/goat.wav","null","audio-keyboard-response","49","35846","0.0-1.0-48.0","",""
"null","sound/msl/door.wav","null","audio-keyboard-response","50","36347","0.0-1.0-49.0","",""
"null","sound/msl/boing.wav","null","audio-keyboard-response","51","36846","0.0-1.0-50.0","",""
"null","sound/msl/door_bell.wav","null","audio-keyboard-response","52","37356","0.0-1.0-51.0","",""
"null","sound/msl/slide_whistle.wav","null","audio-keyboard-response","53","37857","0.0-1.0-52.0","",""
"null","sound/msl/frog.wav","null","audio-keyboard-response","54","38367","0.0-1.0-53.0","",""
"null","sound/msl/cow.wav","null","audio-keyboard-response","55","38876","0.0-1.0-54.0","",""
"null","sound/msl/dog.wav","null","audio-keyboard-response","56","39377","0.0-1.0-55.0","",""
"null","sound/msl/clock.wav","null","audio-keyboard-response","57","39926","0.0-1.0-56.0","",""
"null","sound/msl/goat.wav","null","audio-keyboard-response","58","40467","0.0-1.0-57.0","",""
"null","sound/msl/door.wav","null","audio-keyboard-response","59","40965","0.0-1.0-58.0","",""
"null","sound/msl/boing.wav","null","audio-keyboard-response","60","41467","0.0-1.0-59.0","",""
"null","sound/msl/Water.wav","null","audio-keyboard-response","61","41976","0.0-1.0-60.0","",""
"null","sound/msl/bird.wav","null","audio-keyboard-response","62","42486","0.0-1.0-61.0","",""
"null","sound/msl/organ.wav","null","audio-keyboard-response","63","42986","0.0-1.0-62.0","",""
"null","sound/msl/ding.wav","null","audio-keyboard-response","64","43486","0.0-1.0-63.0","",""
"null","sound/msl/duck.wav","null","audio-keyboard-response","65","43996","0.0-1.0-64.0","",""
"null","sound/msl/cat.wav","null","audio-keyboard-response","66","44497","0.0-1.0-65.0","",""
"null","sound/msl/cow.wav","null","audio-keyboard-response","67","45006","0.0-1.0-66.0","",""
"null","sound/msl/dog.wav","null","audio-keyboard-response","68","45516","0.0-1.0-67.0","",""
"null","sound/msl/clock.wav","null","audio-keyboard-response","69","46066","0.0-1.0-68.0","",""
"null","sound/msl/door_bell.wav","null","audio-keyboard-response","70","46566","0.0-1.0-69.0","",""
"null","sound/msl/slide_whistle.wav","null","audio-keyboard-response","71","47066","0.0-1.0-70.0","",""
"null","sound/msl/frog.wav","null","audio-keyboard-response","72","47567","0.0-1.0-71.0","",""
"null","sound/msl/goat.wav","null","audio-keyboard-response","73","48106","0.0-1.0-72.0","",""
"null","sound/msl/door.wav","null","audio-keyboard-response","74","48606","0.0-1.0-73.0","",""
"null","sound/msl/boing.wav","null","audio-keyboard-response","75","49106","0.0-1.0-74.0","",""
"null","sound/msl/Water.wav","null","audio-keyboard-response","76","49616","0.0-1.0-75.0","",""
"null","sound/msl/bird.wav","null","audio-keyboard-response","77","50126","0.0-1.0-76.0","",""
"null","sound/msl/organ.wav","null","audio-keyboard-response","78","50626","0.0-1.0-77.0","",""
"null","sound/msl/goat.wav","null","audio-keyboard-response","79","51165","0.0-1.0-78.0","",""
"null","sound/msl/door.wav","null","audio-keyboard-response","80","51667","0.0-1.0-79.0","",""
"null","sound/msl/boing.wav","null","audio-keyboard-response","81","52167","0.0-1.0-80.0","",""
"null","sound/msl/ding.wav","null","audio-keyboard-response","82","52676","0.0-1.0-81.0","",""
"null","sound/msl/duck.wav","null","audio-keyboard-response","83","53176","0.0-1.0-82.0","",""
"null","sound/msl/cat.wav","null","audio-keyboard-response","84","53676","0.0-1.0-83.0","",""
"null","sound/msl/door_bell.wav","null","audio-keyboard-response","85","54176","0.0-1.0-84.0","",""
"null","sound/msl/slide_whistle.wav","null","audio-keyboard-response","86","54675","0.0-1.0-85.0","",""
"null","sound/msl/frog.wav","null","audio-keyboard-response","87","55176","0.0-1.0-86.0","",""
"null","sound/msl/cow.wav","null","audio-keyboard-response","88","55686","0.0-1.0-87.0","",""
"null","sound/msl/dog.wav","null","audio-keyboard-response","89","56194","0.0-1.0-88.0","",""
"null","sound/msl/clock.wav","null","audio-keyboard-response","90","56742","0.0-1.0-89.0","",""
"null","sound/msl/ding.wav","null","audio-keyboard-response","91","57243","0.0-1.0-90.0","",""
"null","sound/msl/duck.wav","null","audio-keyboard-response","92","57754","0.0-1.0-91.0","",""
"null","sound/msl/cat.wav","null","audio-keyboard-response","93","58254","0.0-1.0-92.0","",""
"null","sound/msl/Water.wav","null","audio-keyboard-response","94","58763","0.0-1.0-93.0","",""
"null","sound/msl/bird.wav","null","audio-keyboard-response","95","59273","0.0-1.0-94.0","",""
"null","sound/msl/organ.wav","null","audio-keyboard-response","96","59773","0.0-1.0-95.0","",""
"null","sound/msl/goat.wav","null","audio-keyboard-response","97","60314","0.0-1.0-96.0","",""
"null","sound/msl/door.wav","null","audio-keyboard-response","98","60813","0.0-1.0-97.0","",""
"null","sound/msl/boing.wav","null","audio-keyboard-response","99","61313","0.0-1.0-98.0","",""
"null","sound/msl/cow.wav","null","audio-keyboard-response","100","61813","0.0-1.0-99.0","",""
"null","sound/msl/dog.wav","null","audio-keyboard-response","101","62323","0.0-1.0-100.0","",""
"null","sound/msl/clock.wav","null","audio-keyboard-response","102","62874","0.0-1.0-101.0","",""
"null","sound/msl/ding.wav","null","audio-keyboard-response","103","63374","0.0-1.0-102.0","",""
"null","sound/msl/duck.wav","null","audio-keyboard-response","104","63883","0.0-1.0-103.0","",""
"null","sound/msl/cat.wav","null","audio-keyboard-response","105","64383","0.0-1.0-104.0","",""
"null","sound/msl/door_bell.wav","null","audio-keyboard-response","106","64883","0.0-1.0-105.0","",""
"null","sound/msl/slide_whistle.wav","null","audio-keyboard-response","107","65383","0.0-1.0-106.0","",""
"null","sound/msl/frog.wav","null","audio-keyboard-response","108","65884","0.0-1.0-107.0","",""
"null","sound/msl/cow.wav","null","audio-keyboard-response","109","66393","0.0-1.0-108.0","",""
"null","sound/msl/dog.wav","null","audio-keyboard-response","110","66893","0.0-1.0-109.0","",""
"null","sound/msl/clock.wav","null","audio-keyboard-response","111","67443","0.0-1.0-110.0","",""
"null","sound/msl/Water.wav","null","audio-keyboard-response","112","67953","0.0-1.0-111.0","",""
"null","sound/msl/bird.wav","null","audio-keyboard-response","113","68452","0.0-1.0-112.0","",""
"null","sound/msl/organ.wav","null","audio-keyboard-response","114","68954","0.0-1.0-113.0","",""
"null","sound/msl/ding.wav","null","audio-keyboard-response","115","69453","0.0-1.0-114.0","",""
"null","sound/msl/duck.wav","null","audio-keyboard-response","116","69964","0.0-1.0-115.0","",""
"null","sound/msl/cat.wav","null","audio-keyboard-response","117","70463","0.0-1.0-116.0","",""
"null","sound/msl/goat.wav","null","audio-keyboard-response","118","71003","0.0-1.0-117.0","",""
"null","sound/msl/door.wav","null","audio-keyboard-response","119","71504","0.0-1.0-118.0","",""
"null","sound/msl/boing.wav","null","audio-keyboard-response","120","72004","0.0-1.0-119.0","",""
"null","sound/msl/door_bell.wav","null","audio-keyboard-response","121","72514","0.0-1.0-120.0","",""
"null","sound/msl/slide_whistle.wav","null","audio-keyboard-response","122","73013","0.0-1.0-121.0","",""
"null","sound/msl/frog.wav","null","audio-keyboard-response","123","73523","0.0-1.0-122.0","",""
"null","sound/msl/cow.wav","null","audio-keyboard-response","124","74033","0.0-1.0-123.0","",""
"null","sound/msl/dog.wav","null","audio-keyboard-response","125","74534","0.0-1.0-124.0","",""
"null","sound/msl/clock.wav","null","audio-keyboard-response","126","75083","0.0-1.0-125.0","",""
"null","sound/msl/ding.wav","null","audio-keyboard-response","127","75593","0.0-1.0-126.0","",""
"null","sound/msl/duck.wav","null","audio-keyboard-response","128","76093","0.0-1.0-127.0","",""
"null","sound/msl/cat.wav","null","audio-keyboard-response","129","76593","0.0-1.0-128.0","",""
"null","sound/msl/Water.wav","null","audio-keyboard-response","130","77103","0.0-1.0-129.0","",""
"null","sound/msl/bird.wav","null","audio-keyboard-response","131","77603","0.0-1.0-130.0","",""
"null","sound/msl/organ.wav","null","audio-keyboard-response","132","78103","0.0-1.0-131.0","",""
"null","sound/msl/cow.wav","null","audio-keyboard-response","133","78603","0.0-1.0-132.0","",""
"null","sound/msl/dog.wav","null","audio-keyboard-response","134","79112","0.0-1.0-133.0","",""
"null","sound/msl/clock.wav","null","audio-keyboard-response","135","79663","0.0-1.0-134.0","",""
"null","sound/msl/goat.wav","null","audio-keyboard-response","136","80202","0.0-1.0-135.0","",""
"null","sound/msl/door.wav","null","audio-keyboard-response","137","80703","0.0-1.0-136.0","",""
"null","sound/msl/boing.wav","null","audio-keyboard-response","138","81203","0.0-1.0-137.0","",""
"null","sound/msl/Water.wav","null","audio-keyboard-response","139","81713","0.0-1.0-138.0","",""
"null","sound/msl/bird.wav","null","audio-keyboard-response","140","82213","0.0-1.0-139.0","",""
"null","sound/msl/organ.wav","null","audio-keyboard-response","141","82714","0.0-1.0-140.0","",""
"null","sound/msl/door_bell.wav","null","audio-keyboard-response","142","83213","0.0-1.0-141.0","",""
"null","sound/msl/slide_whistle.wav","null","audio-keyboard-response","143","83714","0.0-1.0-142.0","",""
"null","sound/msl/frog.wav","null","audio-keyboard-response","144","84213","0.0-1.0-143.0","",""
"null","sound/msl/ding.wav","null","audio-keyboard-response","145","84722","0.0-1.0-144.0","",""
"null","sound/msl/duck.wav","null","audio-keyboard-response","146","85233","0.0-1.0-145.0","",""
"null","sound/msl/cat.wav","null","audio-keyboard-response","147","85734","0.0-1.0-146.0","",""
"null","sound/msl/goat.wav","null","audio-keyboard-response","148","86273","0.0-1.0-147.0","",""
"null","sound/msl/door.wav","null","audio-keyboard-response","149","86773","0.0-1.0-148.0","",""
"null","sound/msl/boing.wav","null","audio-keyboard-response","150","87273","0.0-1.0-149.0","",""
"null","sound/msl/door_bell.wav","null","audio-keyboard-response","151","87773","0.0-1.0-150.0","",""
"null","sound/msl/slide_whistle.wav","null","audio-keyboard-response","152","88273","0.0-1.0-151.0","",""
"null","sound/msl/frog.wav","null","audio-keyboard-response","153","88773","0.0-1.0-152.0","",""
"null","sound/msl/cow.wav","null","audio-keyboard-response","154","89283","0.0-1.0-153.0","",""
"null","sound/msl/dog.wav","null","audio-keyboard-response","155","89794","0.0-1.0-154.0","",""
"null","sound/msl/clock.wav","null","audio-keyboard-response","156","90343","0.0-1.0-155.0","",""
"null","sound/msl/Water.wav","null","audio-keyboard-response","157","90853","0.0-1.0-156.0","",""
"null","sound/msl/bird.wav","null","audio-keyboard-response","158","91363","0.0-1.0-157.0","",""
"null","sound/msl/organ.wav","null","audio-keyboard-response","159","91863","0.0-1.0-158.0","",""
"null","sound/msl/ding.wav","null","audio-keyboard-response","160","92363","0.0-1.0-159.0","",""
"null","sound/msl/duck.wav","null","audio-keyboard-response","161","92873","0.0-1.0-160.0","",""
"null","sound/msl/cat.wav","null","audio-keyboard-response","162","93374","0.0-1.0-161.0","",""
"null","sound/msl/cow.wav","null","audio-keyboard-response","163","93883","0.0-1.0-162.0","",""
"null","sound/msl/dog.wav","null","audio-keyboard-response","164","94394","0.0-1.0-163.0","",""
"null","sound/msl/clock.wav","null","audio-keyboard-response","165","94943","0.0-1.0-164.0","",""
"null","sound/msl/Water.wav","null","audio-keyboard-response","166","95454","0.0-1.0-165.0","",""
"null","sound/msl/bird.wav","null","audio-keyboard-response","167","95963","0.0-1.0-166.0","",""
"null","sound/msl/organ.wav","null","audio-keyboard-response","168","96463","0.0-1.0-167.0","",""
"null","sound/msl/door_bell.wav","null","audio-keyboard-response","169","96964","0.0-1.0-168.0","",""
"null","sound/msl/slide_whistle.wav","null","audio-keyboard-response","170","97463","0.0-1.0-169.0","",""
"null","sound/msl/frog.wav","null","audio-keyboard-response","171","97963","0.0-1.0-170.0","",""
"null","sound/msl/goat.wav","null","audio-keyboard-response","172","98503","0.0-1.0-171.0","",""
"null","sound/msl/door.wav","null","audio-keyboard-response","173","99003","0.0-1.0-172.0","",""
"null","sound/msl/boing.wav","null","audio-keyboard-response","174","99504","0.0-1.0-173.0","",""
"null","sound/msl/ding.wav","null","audio-keyboard-response","175","100003","0.0-1.0-174.0","",""
"null","sound/msl/duck.wav","null","audio-keyboard-response","176","100513","0.0-1.0-175.0","",""
"null","sound/msl/cat.wav","null","audio-keyboard-response","177","101013","0.0-1.0-176.0","",""
"null","sound/msl/cow.wav","null","audio-keyboard-response","178","101523","0.0-1.0-177.0","",""
"null","sound/msl/dog.wav","null","audio-keyboard-response","179","102033","0.0-1.0-178.0","",""
"null","sound/msl/clock.wav","null","audio-keyboard-response","180","102584","0.0-1.0-179.0","",""
"null","sound/msl/goat.wav","null","audio-keyboard-response","181","103123","0.0-1.0-180.0","",""
"null","sound/msl/door.wav","null","audio-keyboard-response","182","103623","0.0-1.0-181.0","",""
"null","sound/msl/boing.wav","null","audio-keyboard-response","183","104123","0.0-1.0-182.0","",""
"null","sound/msl/Water.wav","null","audio-keyboard-response","184","104633","0.0-1.0-183.0","",""
"null","sound/msl/bird.wav","null","audio-keyboard-response","185","105132","0.0-1.0-184.0","",""
"null","sound/msl/organ.wav","null","audio-keyboard-response","186","105633","0.0-1.0-185.0","",""
"null","sound/msl/door_bell.wav","null","audio-keyboard-response","187","106133","0.0-1.0-186.0","",""
"null","sound/msl/slide_whistle.wav","null","audio-keyboard-response","188","106633","0.0-1.0-187.0","",""
"null","sound/msl/frog.wav","null","audio-keyboard-response","189","107132","0.0-1.0-188.0","",""
"null","sound/msl/ding.wav","null","audio-keyboard-response","190","107642","0.0-1.0-189.0","",""
"null","sound/msl/duck.wav","null","audio-keyboard-response","191","108154","0.0-1.0-190.0","",""
"null","sound/msl/cat.wav","null","audio-keyboard-response","192","108653","0.0-1.0-191.0","",""
"null","sound/msl/cow.wav","null","audio-keyboard-response","193","109163","0.0-1.0-192.0","",""
"null","sound/msl/dog.wav","null","audio-keyboard-response","194","109672","0.0-1.0-193.0","",""
"null","sound/msl/clock.wav","null","audio-keyboard-response","195","110223","0.0-1.0-194.0","",""
"null","sound/msl/goat.wav","null","audio-keyboard-response","196","110763","0.0-1.0-195.0","",""
"null","sound/msl/door.wav","null","audio-keyboard-response","197","111263","0.0-1.0-196.0","",""
"null","sound/msl/boing.wav","null","audio-keyboard-response","198","111763","0.0-1.0-197.0","",""
"null","sound/msl/door_bell.wav","null","audio-keyboard-response","199","112273","0.0-1.0-198.0","",""
"null","sound/msl/slide_whistle.wav","null","audio-keyboard-response","200","112773","0.0-1.0-199.0","",""
"null","sound/msl/frog.wav","null","audio-keyboard-response","201","113283","0.0-1.0-200.0","",""
"null","sound/msl/Water.wav","null","audio-keyboard-response","202","113793","0.0-1.0-201.0","",""
"null","sound/msl/bird.wav","null","audio-keyboard-response","203","114293","0.0-1.0-202.0","",""
"null","sound/msl/organ.wav","null","audio-keyboard-response","204","114794","0.0-1.0-203.0","",""
"null","sound/msl/ding.wav","null","audio-keyboard-response","205","115292","0.0-1.0-204.0","",""
"null","sound/msl/duck.wav","null","audio-keyboard-response","206","115803","0.0-1.0-205.0","",""
"null","sound/msl/cat.wav","null","audio-keyboard-response","207","116305","0.0-1.0-206.0","",""
"null","sound/msl/cow.wav","null","audio-keyboard-response","208","116804","0.0-1.0-207.0","",""
"null","sound/msl/dog.wav","null","audio-keyboard-response","209","117314","0.0-1.0-208.0","",""
"null","sound/msl/clock.wav","null","audio-keyboard-response","210","117863","0.0-1.0-209.0","",""
"null","sound/msl/door_bell.wav","null","audio-keyboard-response","211","118364","0.0-1.0-210.0","",""
"null","sound/msl/slide_whistle.wav","null","audio-keyboard-response","212","118865","0.0-1.0-211.0","",""
"null","sound/msl/frog.wav","null","audio-keyboard-response","213","119364","0.0-1.0-212.0","",""
"null","sound/msl/ding.wav","null","audio-keyboard-response","214","119873","0.0-1.0-213.0","",""
"null","sound/msl/duck.wav","null","audio-keyboard-response","215","120374","0.0-1.0-214.0","",""
"null","sound/msl/cat.wav","null","audio-keyboard-response","216","120874","0.0-1.0-215.0","",""
"null","sound/msl/goat.wav","null","audio-keyboard-response","217","121413","0.0-1.0-216.0","",""
"null","sound/msl/door.wav","null","audio-keyboard-response","218","121914","0.0-1.0-217.0","",""
"null","sound/msl/boing.wav","null","audio-keyboard-response","219","122414","0.0-1.0-218.0","",""
"null","sound/msl/Water.wav","null","audio-keyboard-response","220","122924","0.0-1.0-219.0","",""
"null","sound/msl/bird.wav","null","audio-keyboard-response","221","123433","0.0-1.0-220.0","",""
"null","sound/msl/organ.wav","null","audio-keyboard-response","222","123934","0.0-1.0-221.0","",""
"null","sound/msl/cow.wav","null","audio-keyboard-response","223","124444","0.0-1.0-222.0","",""
"null","sound/msl/dog.wav","null","audio-keyboard-response","224","124954","0.0-1.0-223.0","",""
"null","sound/msl/clock.wav","null","audio-keyboard-response","225","125504","0.0-1.0-224.0","",""
"null","sound/msl/goat.wav","null","audio-keyboard-response","226","126044","0.0-1.0-225.0","",""
"null","sound/msl/door.wav","null","audio-keyboard-response","227","126544","0.0-1.0-226.0","",""
"null","sound/msl/boing.wav","null","audio-keyboard-response","228","127044","0.0-1.0-227.0","",""
"null","sound/msl/ding.wav","null","audio-keyboard-response","229","127554","0.0-1.0-228.0","",""
"null","sound/msl/duck.wav","null","audio-keyboard-response","230","128053","0.0-1.0-229.0","",""
"null","sound/msl/cat.wav","null","audio-keyboard-response","231","128554","0.0-1.0-230.0","",""
"null","sound/msl/goat.wav","null","audio-keyboard-response","232","129094","0.0-1.0-231.0","",""
"null","sound/msl/door.wav","null","audio-keyboard-response","233","129593","0.0-1.0-232.0","",""
"null","sound/msl/boing.wav","null","audio-keyboard-response","234","130093","0.0-1.0-233.0","",""
"null","sound/msl/cow.wav","null","audio-keyboard-response","235","130603","0.0-1.0-234.0","",""
"null","sound/msl/dog.wav","null","audio-keyboard-response","236","131114","0.0-1.0-235.0","",""
"null","sound/msl/clock.wav","null","audio-keyboard-response","237","131664","0.0-1.0-236.0","",""
"null","sound/msl/Water.wav","null","audio-keyboard-response","238","132173","0.0-1.0-237.0","",""
"null","sound/msl/bird.wav","null","audio-keyboard-response","239","132684","0.0-1.0-238.0","",""
"null","sound/msl/organ.wav","null","audio-keyboard-response","240","133183","0.0-1.0-239.0","",""
"null","sound/msl/door_bell.wav","null","audio-keyboard-response","241","133683","0.0-1.0-240.0","",""
"null","sound/msl/slide_whistle.wav","null","audio-keyboard-response","242","134183","0.0-1.0-241.0","",""
"null","sound/msl/frog.wav","null","audio-keyboard-response","243","134684","0.0-1.0-242.0","",""
"null","sound/msl/ding.wav","null","audio-keyboard-response","244","135193","0.0-1.0-243.0","",""
"null","sound/msl/duck.wav","null","audio-keyboard-response","245","135693","0.0-1.0-244.0","",""
"null","sound/msl/cat.wav","null","audio-keyboard-response","246","136193","0.0-1.0-245.0","",""
"null","sound/msl/cow.wav","null","audio-keyboard-response","247","136694","0.0-1.0-246.0","",""
"null","sound/msl/dog.wav","null","audio-keyboard-response","248","137204","0.0-1.0-247.0","",""
"null","sound/msl/clock.wav","null","audio-keyboard-response","249","137753","0.0-1.0-248.0","",""
"null","sound/msl/Water.wav","null","audio-keyboard-response","250","138263","0.0-1.0-249.0","",""
"null","sound/msl/bird.wav","null","audio-keyboard-response","251","138764","0.0-1.0-250.0","",""
"null","sound/msl/organ.wav","null","audio-keyboard-response","252","139264","0.0-1.0-251.0","",""
"null","sound/msl/door_bell.wav","null","audio-keyboard-response","253","139763","0.0-1.0-252.0","",""
"null","sound/msl/slide_whistle.wav","null","audio-keyboard-response","254","140264","0.0-1.0-253.0","",""
"null","sound/msl/frog.wav","null","audio-keyboard-response","255","140764","0.0-1.0-254.0","",""
"null","sound/msl/goat.wav","null","audio-keyboard-response","256","141304","0.0-1.0-255.0","",""
"null","sound/msl/door.wav","null","audio-keyboard-response","257","141803","0.0-1.0-256.0","",""
"null","sound/msl/boing.wav","null","audio-keyboard-response","258","142304","0.0-1.0-257.0","",""
"null","sound/msl/ding.wav","null","audio-keyboard-response","259","142804","0.0-1.0-258.0","",""
"null","sound/msl/duck.wav","null","audio-keyboard-response","260","143314","0.0-1.0-259.0","",""
"null","sound/msl/cat.wav","null","audio-keyboard-response","261","143814","0.0-1.0-260.0","",""
"null","sound/msl/door_bell.wav","null","audio-keyboard-response","262","144324","0.0-1.0-261.0","",""
"null","sound/msl/slide_whistle.wav","null","audio-keyboard-response","263","144824","0.0-1.0-262.0","",""
"null","sound/msl/frog.wav","null","audio-keyboard-response","264","145324","0.0-1.0-263.0","",""
"null","sound/msl/Water.wav","null","audio-keyboard-response","265","145834","0.0-1.0-264.0","",""
"null","sound/msl/bird.wav","null","audio-keyboard-response","266","146334","0.0-1.0-265.0","",""
"null","sound/msl/organ.wav","null","audio-keyboard-response","267","146833","0.0-1.0-266.0","",""
"null","sound/msl/goat.wav","null","audio-keyboard-response","268","147373","0.0-1.0-267.0","",""
"null","sound/msl/door.wav","null","audio-keyboard-response","269","147874","0.0-1.0-268.0","",""
"null","sound/msl/boing.wav","null","audio-keyboard-response","270","148374","0.0-1.0-269.0","",""
"null","sound/msl/cow.wav","null","audio-keyboard-response","271","148883","0.0-1.0-270.0","",""
"null","sound/msl/dog.wav","null","audio-keyboard-response","272","149394","0.0-1.0-271.0","",""
"null","sound/msl/clock.wav","null","audio-keyboard-response","273","149944","0.0-1.0-272.0","",""
"null","sound/msl/ding.wav","null","audio-keyboard-response","274","150443","0.0-1.0-273.0","",""
"null","sound/msl/duck.wav","null","audio-keyboard-response","275","150953","0.0-1.0-274.0","",""
"null","sound/msl/cat.wav","null","audio-keyboard-response","276","151454","0.0-1.0-275.0","",""
"null","sound/msl/door_bell.wav","null","audio-keyboard-response","277","151964","0.0-1.0-276.0","",""
"null","sound/msl/slide_whistle.wav","null","audio-keyboard-response","278","152464","0.0-1.0-277.0","",""
"null","sound/msl/frog.wav","null","audio-keyboard-response","279","152964","0.0-1.0-278.0","",""
"null","sound/msl/Water.wav","null","audio-keyboard-response","280","153474","0.0-1.0-279.0","",""
"null","sound/msl/bird.wav","null","audio-keyboard-response","281","153974","0.0-1.0-280.0","",""
"null","sound/msl/organ.wav","null","audio-keyboard-response","282","154474","0.0-1.0-281.0","",""
"null","sound/msl/cow.wav","null","audio-keyboard-response","283","154973","0.0-1.0-282.0","",""
"null","sound/msl/dog.wav","null","audio-keyboard-response","284","155484","0.0-1.0-283.0","",""
"null","sound/msl/clock.wav","null","audio-keyboard-response","285","156033","0.0-1.0-284.0","",""
"null","sound/msl/goat.wav","null","audio-keyboard-response","286","156574","0.0-1.0-285.0","",""
"null","sound/msl/door.wav","null","audio-keyboard-response","287","157074","0.0-1.0-286.0","",""
"null","sound/msl/boing.wav","null","audio-keyboard-response","288","157574","0.0-1.0-287.0","",""
"null","sound/msl/ding.wav","null","audio-keyboard-response","289","158084","0.0-1.0-288.0","",""
"null","sound/msl/duck.wav","null","audio-keyboard-response","290","158594","0.0-1.0-289.0","",""
"null","sound/msl/cat.wav","null","audio-keyboard-response","291","159094","0.0-1.0-290.0","",""
"null","sound/msl/Water.wav","null","audio-keyboard-response","292","159603","0.0-1.0-291.0","",""
"null","sound/msl/bird.wav","null","audio-keyboard-response","293","160114","0.0-1.0-292.0","",""
"null","sound/msl/organ.wav","null","audio-keyboard-response","294","160613","0.0-1.0-293.0","",""
"null","sound/msl/door_bell.wav","null","audio-keyboard-response","295","161123","0.0-1.0-294.0","",""
"null","sound/msl/slide_whistle.wav","null","audio-keyboard-response","296","161623","0.0-1.0-295.0","",""
"null","sound/msl/frog.wav","null","audio-keyboard-response","297","162124","0.0-1.0-296.0","",""
"null","sound/msl/ding.wav","null","audio-keyboard-response","298","162633","0.0-1.0-297.0","",""
"null","sound/msl/duck.wav","null","audio-keyboard-response","299","163133","0.0-1.0-298.0","",""
"null","sound/msl/cat.wav","null","audio-keyboard-response","300","163633","0.0-1.0-299.0","",""
"null","sound/msl/cow.wav","null","audio-keyboard-response","301","164134","0.0-1.0-300.0","",""
"null","sound/msl/dog.wav","null","audio-keyboard-response","302","164643","0.0-1.0-301.0","",""
"null","sound/msl/clock.wav","null","audio-keyboard-response","303","165194","0.0-1.0-302.0","",""
"null","sound/msl/Water.wav","null","audio-keyboard-response","304","165703","0.0-1.0-303.0","",""
"null","sound/msl/bird.wav","null","audio-keyboard-response","305","166204","0.0-1.0-304.0","",""
"null","sound/msl/organ.wav","null","audio-keyboard-response","306","166704","0.0-1.0-305.0","",""
"null","sound/msl/goat.wav","null","audio-keyboard-response","307","167243","0.0-1.0-306.0","",""
"null","sound/msl/door.wav","null","audio-keyboard-response","308","167745","0.0-1.0-307.0","",""
"null","sound/msl/boing.wav","null","audio-keyboard-response","309","168243","0.0-1.0-308.0","",""
"null","sound/msl/door_bell.wav","null","audio-keyboard-response","310","168754","0.0-1.0-309.0","",""
"null","sound/msl/slide_whistle.wav","null","audio-keyboard-response","311","169253","0.0-1.0-310.0","",""
"null","sound/msl/frog.wav","null","audio-keyboard-response","312","169765","0.0-1.0-311.0","",""
"null","sound/msl/ding.wav","null","audio-keyboard-response","313","170273","0.0-1.0-312.0","",""
"null","sound/msl/duck.wav","null","audio-keyboard-response","314","170773","0.0-1.0-313.0","",""
"null","sound/msl/cat.wav","null","audio-keyboard-response","315","171274","0.0-1.0-314.0","",""
"null","sound/msl/cow.wav","null","audio-keyboard-response","316","171774","0.0-1.0-315.0","",""
"null","sound/msl/dog.wav","null","audio-keyboard-response","317","172284","0.0-1.0-316.0","",""
"null","sound/msl/clock.wav","null","audio-keyboard-response","318","172834","0.0-1.0-317.0","",""
"null","sound/msl/Water.wav","null","audio-keyboard-response","319","173344","0.0-1.0-318.0","",""
"null","sound/msl/bird.wav","null","audio-keyboard-response","320","173843","0.0-1.0-319.0","",""
"null","sound/msl/organ.wav","null","audio-keyboard-response","321","174344","0.0-1.0-320.0","",""
"null","sound/msl/door_bell.wav","null","audio-keyboard-response","322","174843","0.0-1.0-321.0","",""
"null","sound/msl/slide_whistle.wav","null","audio-keyboard-response","323","175343","0.0-1.0-322.0","",""
"null","sound/msl/frog.wav","null","audio-keyboard-response","324","175843","0.0-1.0-323.0","",""
"null","sound/msl/cow.wav","null","audio-keyboard-response","325","176356","0.0-1.0-324.0","",""
"null","sound/msl/dog.wav","null","audio-keyboard-response","326","176856","0.0-1.0-325.0","",""
"null","sound/msl/clock.wav","null","audio-keyboard-response","327","177406","0.0-1.0-326.0","",""
"null","sound/msl/goat.wav","null","audio-keyboard-response","328","177946","0.0-1.0-327.0","",""
"null","sound/msl/door.wav","null","audio-keyboard-response","329","178446","0.0-1.0-328.0","",""
"null","sound/msl/boing.wav","null","audio-keyboard-response","330","178946","0.0-1.0-329.0","",""
"null","sound/msl/ding.wav","null","audio-keyboard-response","331","179446","0.0-1.0-330.0","",""
"null","sound/msl/duck.wav","null","audio-keyboard-response","332","179956","0.0-1.0-331.0","",""
"null","sound/msl/cat.wav","null","audio-keyboard-response","333","180457","0.0-1.0-332.0","",""
"null","sound/msl/Water.wav","null","audio-keyboard-response","334","180966","0.0-1.0-333.0","",""
"null","sound/msl/bird.wav","null","audio-keyboard-response","335","181476","0.0-1.0-334.0","",""
"null","sound/msl/organ.wav","null","audio-keyboard-response","336","181976","0.0-1.0-335.0","",""
"null","sound/msl/goat.wav","null","audio-keyboard-response","337","182516","0.0-1.0-336.0","",""
"null","sound/msl/door.wav","null","audio-keyboard-response","338","183016","0.0-1.0-337.0","",""
"null","sound/msl/boing.wav","null","audio-keyboard-response","339","183516","0.0-1.0-338.0","",""
"null","sound/msl/door_bell.wav","null","audio-keyboard-response","340","184016","0.0-1.0-339.0","",""
"null","sound/msl/slide_whistle.wav","null","audio-keyboard-response","341","184516","0.0-1.0-340.0","",""
"null","sound/msl/frog.wav","null","audio-keyboard-response","342","185017","0.0-1.0-341.0","",""
"null","sound/msl/Water.wav","null","audio-keyboard-response","343","185526","0.0-1.0-342.0","",""
"null","sound/msl/bird.wav","null","audio-keyboard-response","344","186036","0.0-1.0-343.0","",""
"null","sound/msl/organ.wav","null","audio-keyboard-response","345","186536","0.0-1.0-344.0","",""
"null","sound/msl/door_bell.wav","null","audio-keyboard-response","346","187046","0.0-1.0-345.0","",""
"null","sound/msl/slide_whistle.wav","null","audio-keyboard-response","347","187546","0.0-1.0-346.0","",""
"null","sound/msl/frog.wav","null","audio-keyboard-response","348","188046","0.0-1.0-347.0","",""
"null","sound/msl/goat.wav","null","audio-keyboard-response","349","188586","0.0-1.0-348.0","",""
"null","sound/msl/door.wav","null","audio-keyboard-response","350","189086","0.0-1.0-349.0","",""
"null","sound/msl/boing.wav","null","audio-keyboard-response","351","189587","0.0-1.0-350.0","",""
"null","sound/msl/ding.wav","null","audio-keyboard-response","352","190086","0.0-1.0-351.0","",""
"null","sound/msl/duck.wav","null","audio-keyboard-response","353","190596","0.0-1.0-352.0","",""
"null","sound/msl/cat.wav","null","audio-keyboard-response","354","191096","0.0-1.0-353.0","",""
"null","sound/msl/Water.wav","null","audio-keyboard-response","355","191607","0.0-1.0-354.0","",""
"null","sound/msl/bird.wav","null","audio-keyboard-response","356","192116","0.0-1.0-355.0","",""
"null","sound/msl/organ.wav","null","audio-keyboard-response","357","192616","0.0-1.0-356.0","",""
"null","sound/msl/door_bell.wav","null","audio-keyboard-response","358","193125","0.0-1.0-357.0","",""
"null","sound/msl/slide_whistle.wav","null","audio-keyboard-response","359","193626","0.0-1.0-358.0","",""
"null","sound/msl/frog.wav","null","audio-keyboard-response","360","194127","0.0-1.0-359.0","",""
"24204","Instructions2-eng.png","49","image-keyboard-response","361","218332","0.0-2.0","",""
"null","sound/msl/door_bell.wav","null","audio-keyboard-response","362","218836","0.0-3.0-0.0","",""
"null","sound/msl/slide_whistle.wav","null","audio-keyboard-response","363","219337","0.0-3.0-1.0","",""
"null","sound/msl/frog.wav","null","audio-keyboard-response","364","219847","0.0-3.0-2.0","",""
"null","sound/asl/silence.wav","null","audio-keyboard-response","365","220348","0.0-3.0-3.0","",""
"null","sound/msl/ding.wav","null","audio-keyboard-response","366","220846","0.0-3.0-4.0","",""
"null","sound/msl/slide_whistle.wav","null","audio-keyboard-response","367","221346","0.0-3.0-5.0","",""
"null","sound/msl/clock.wav","null","audio-keyboard-response","368","221896","0.0-3.0-6.0","",""
"5099","sound/asl/silence.wav","49","audio-keyboard-response","369","227000","0.0-3.0-7.0","true",""
"null","sound/msl/Water.wav","null","audio-keyboard-response","370","227507","0.0-4.0-0.0","",""
"null","sound/msl/duck.wav","null","audio-keyboard-response","371","228006","0.0-4.0-1.0","",""
"null","sound/msl/frog.wav","null","audio-keyboard-response","372","228517","0.0-4.0-2.0","",""
"null","sound/asl/silence.wav","null","audio-keyboard-response","373","229025","0.0-4.0-3.0","",""
"null","sound/msl/goat.wav","null","audio-keyboard-response","374","229566","0.0-4.0-4.0","",""
"null","sound/msl/door.wav","null","audio-keyboard-response","375","230066","0.0-4.0-5.0","",""
"null","sound/msl/boing.wav","null","audio-keyboard-response","376","230566","0.0-4.0-6.0","",""
"840","sound/asl/silence.wav","50","audio-keyboard-response","377","231412","0.0-4.0-7.0","true",""
"null","sound/msl/cow.wav","null","audio-keyboard-response","378","231916","0.0-5.0-0.0","",""
"null","sound/msl/dog.wav","null","audio-keyboard-response","379","232416","0.0-5.0-1.0","",""
"null","sound/msl/clock.wav","null","audio-keyboard-response","380","232967","0.0-5.0-2.0","",""
"null","sound/asl/silence.wav","null","audio-keyboard-response","381","233485","0.0-5.0-3.0","",""
"null","sound/msl/door_bell.wav","null","audio-keyboard-response","382","233976","0.0-5.0-4.0","",""
"null","sound/msl/dog.wav","null","audio-keyboard-response","383","234486","0.0-5.0-5.0","",""
"null","sound/msl/boing.wav","null","audio-keyboard-response","384","234987","0.0-5.0-6.0","",""
"632","sound/asl/silence.wav","49","audio-keyboard-response","385","235622","0.0-5.0-7.0","true",""
"null","sound/msl/goat.wav","null","audio-keyboard-response","386","236157","0.0-6.0-0.0","",""
"null","sound/msl/bird.wav","null","audio-keyboard-response","387","236657","0.0-6.0-1.0","",""
"null","sound/msl/cat.wav","null","audio-keyboard-response","388","237157","0.0-6.0-2.0","",""
"null","sound/asl/silence.wav","null","audio-keyboard-response","389","237676","0.0-6.0-3.0","",""
"null","sound/msl/ding.wav","null","audio-keyboard-response","390","238176","0.0-6.0-4.0","",""
"null","sound/msl/duck.wav","null","audio-keyboard-response","391","238687","0.0-6.0-5.0","",""
"null","sound/msl/cat.wav","null","audio-keyboard-response","392","239186","0.0-6.0-6.0","",""
"2531","sound/asl/silence.wav","50","audio-keyboard-response","393","241723","0.0-6.0-7.0","true",""
"null","sound/msl/ding.wav","null","audio-keyboard-response","394","242217","0.0-7.0-0.0","",""
"null","sound/msl/duck.wav","null","audio-keyboard-response","395","242726","0.0-7.0-1.0","",""
"null","sound/msl/cat.wav","null","audio-keyboard-response","396","243227","0.0-7.0-2.0","",""
"null","sound/asl/silence.wav","null","audio-keyboard-response","397","243745","0.0-7.0-3.0","",""
"null","sound/msl/Water.wav","null","audio-keyboard-response","398","244256","0.0-7.0-4.0","",""
"null","sound/msl/duck.wav","null","audio-keyboard-response","399","244766","0.0-7.0-5.0","",""
"null","sound/msl/frog.wav","null","audio-keyboard-response","400","245276","0.0-7.0-6.0","",""
"5080","sound/asl/silence.wav","49","audio-keyboard-response","401","250364","0.0-7.0-7.0","true",""
"null","sound/msl/goat.wav","null","audio-keyboard-response","402","250897","0.0-8.0-0.0","",""
"null","sound/msl/door.wav","null","audio-keyboard-response","403","251396","0.0-8.0-1.0","",""
"null","sound/msl/boing.wav","null","audio-keyboard-response","404","251896","0.0-8.0-2.0","",""
"null","sound/asl/silence.wav","null","audio-keyboard-response","405","252397","0.0-8.0-3.0","",""
"null","sound/msl/door_bell.wav","null","audio-keyboard-response","406","252896","0.0-8.0-4.0","",""
"null","sound/msl/dog.wav","null","audio-keyboard-response","407","253405","0.0-8.0-5.0","",""
"null","sound/msl/boing.wav","null","audio-keyboard-response","408","253907","0.0-8.0-6.0","",""
"2760","sound/asl/silence.wav","50","audio-keyboard-response","409","256674","0.0-8.0-7.0","false",""
"null","sound/msl/ding.wav","null","audio-keyboard-response","410","257166","0.0-9.0-0.0","",""
"null","sound/msl/duck.wav","null","audio-keyboard-response","411","257676","0.0-9.0-1.0","",""
"null","sound/msl/cat.wav","null","audio-keyboard-response","412","258177","0.0-9.0-2.0","",""
"null","sound/asl/silence.wav","null","audio-keyboard-response","413","258685","0.0-9.0-3.0","",""
"null","sound/msl/cow.wav","null","audio-keyboard-response","414","259196","0.0-9.0-4.0","",""
"null","sound/msl/door.wav","null","audio-keyboard-response","415","259695","0.0-9.0-5.0","",""
"null","sound/msl/organ.wav","null","audio-keyboard-response","416","260197","0.0-9.0-6.0","",""
"360","sound/asl/silence.wav","49","audio-keyboard-response","417","260557","0.0-9.0-7.0","true",""
"null","sound/msl/door_bell.wav","null","audio-keyboard-response","418","261056","0.0-10.0-0.0","",""
"null","sound/msl/dog.wav","null","audio-keyboard-response","419","261566","0.0-10.0-1.0","",""
"null","sound/msl/boing.wav","null","audio-keyboard-response","420","262066","0.0-10.0-2.0","",""
"null","sound/asl/silence.wav","null","audio-keyboard-response","421","262575","0.0-10.0-3.0","",""
"null","sound/msl/ding.wav","null","audio-keyboard-response","422","263086","0.0-10.0-4.0","",""
"null","sound/msl/duck.wav","null","audio-keyboard-response","423","263595","0.0-10.0-5.0","",""
"null","sound/msl/cat.wav","null","audio-keyboard-response","424","264096","0.0-10.0-6.0","",""
"779","sound/asl/silence.wav","50","audio-keyboard-response","425","264885","0.0-10.0-7.0","true",""
"null","sound/msl/door_bell.wav","null","audio-keyboard-response","426","265396","0.0-11.0-0.0","",""
"null","sound/msl/dog.wav","null","audio-keyboard-response","427","265897","0.0-11.0-1.0","",""
"null","sound/msl/boing.wav","null","audio-keyboard-response","428","266396","0.0-11.0-2.0","",""
"null","sound/asl/silence.wav","null","audio-keyboard-response","429","266915","0.0-11.0-3.0","",""
"null","sound/msl/Water.wav","null","audio-keyboard-response","430","267426","0.0-11.0-4.0","",""
"null","sound/msl/bird.wav","null","audio-keyboard-response","431","267926","0.0-11.0-5.0","",""
"null","sound/msl/organ.wav","null","audio-keyboard-response","432","268426","0.0-11.0-6.0","",""
"1800","sound/asl/silence.wav","49","audio-keyboard-response","433","270230","0.0-11.0-7.0","false",""
"null","sound/msl/door_bell.wav","null","audio-keyboard-response","434","270725","0.0-12.0-0.0","",""
"null","sound/msl/slide_whistle.wav","null","audio-keyboard-response","435","271226","0.0-12.0-1.0","",""
"null","sound/msl/frog.wav","null","audio-keyboard-response","436","271726","0.0-12.0-2.0","",""
"null","sound/asl/silence.wav","null","audio-keyboard-response","437","272235","0.0-12.0-3.0","",""
"null","sound/msl/Water.wav","null","audio-keyboard-response","438","272747","0.0-12.0-4.0","",""
"null","sound/msl/duck.wav","null","audio-keyboard-response","439","273247","0.0-12.0-5.0","",""
"null","sound/msl/frog.wav","null","audio-keyboard-response","440","273756","0.0-12.0-6.0","",""
"629","sound/asl/silence.wav","49","audio-keyboard-response","441","274386","0.0-12.0-7.0","true",""
"null","sound/msl/cow.wav","null","audio-keyboard-response","442","274886","0.0-13.0-0.0","",""
"null","sound/msl/door.wav","null","audio-keyboard-response","443","275386","0.0-13.0-1.0","",""
"null","sound/msl/organ.wav","null","audio-keyboard-response","444","275886","0.0-13.0-2.0","",""
"null","sound/asl/silence.wav","null","audio-keyboard-response","445","276405","0.0-13.0-3.0","",""
"null","sound/msl/Water.wav","null","audio-keyboard-response","446","276905","0.0-13.0-4.0","",""
"null","sound/msl/bird.wav","null","audio-keyboard-response","447","277406","0.0-13.0-5.0","",""
"null","sound/msl/organ.wav","null","audio-keyboard-response","448","277906","0.0-13.0-6.0","",""
"2221","sound/asl/silence.wav","50","audio-keyboard-response","449","280131","0.0-13.0-7.0","true",""
"null","sound/msl/ding.wav","null","audio-keyboard-response","450","280636","0.0-14.0-0.0","",""
"null","sound/msl/slide_whistle.wav","null","audio-keyboard-response","451","281135","0.0-14.0-1.0","",""
"null","sound/msl/clock.wav","null","audio-keyboard-response","452","281686","0.0-14.0-2.0","",""
"null","sound/asl/silence.wav","null","audio-keyboard-response","453","282205","0.0-14.0-3.0","",""
"null","sound/msl/cow.wav","null","audio-keyboard-response","454","282696","0.0-14.0-4.0","",""
"null","sound/msl/dog.wav","null","audio-keyboard-response","455","283206","0.0-14.0-5.0","",""
"null","sound/msl/clock.wav","null","audio-keyboard-response","456","283757","0.0-14.0-6.0","",""
"1091","sound/asl/silence.wav","50","audio-keyboard-response","457","284854","0.0-14.0-7.0","true",""
"null","sound/msl/Water.wav","null","audio-keyboard-response","458","285356","0.0-15.0-0.0","",""
"null","sound/msl/duck.wav","null","audio-keyboard-response","459","285856","0.0-15.0-1.0","",""
"null","sound/msl/frog.wav","null","audio-keyboard-response","460","286366","0.0-15.0-2.0","",""
"null","sound/asl/silence.wav","null","audio-keyboard-response","461","286885","0.0-15.0-3.0","",""
"null","sound/msl/cow.wav","null","audio-keyboard-response","462","287397","0.0-15.0-4.0","",""
"null","sound/msl/dog.wav","null","audio-keyboard-response","463","287896","0.0-15.0-5.0","",""
"null","sound/msl/clock.wav","null","audio-keyboard-response","464","288446","0.0-15.0-6.0","",""
"2840","sound/asl/silence.wav","50","audio-keyboard-response","465","291296","0.0-15.0-7.0","true",""
"null","sound/msl/goat.wav","null","audio-keyboard-response","466","291837","0.0-16.0-0.0","",""
"null","sound/msl/bird.wav","null","audio-keyboard-response","467","292336","0.0-16.0-1.0","",""
"null","sound/msl/cat.wav","null","audio-keyboard-response","468","292836","0.0-16.0-2.0","",""
"null","sound/asl/silence.wav","null","audio-keyboard-response","469","293337","0.0-16.0-3.0","",""
"null","sound/msl/door_bell.wav","null","audio-keyboard-response","470","293846","0.0-16.0-4.0","",""
"null","sound/msl/slide_whistle.wav","null","audio-keyboard-response","471","294346","0.0-16.0-5.0","",""
"null","sound/msl/frog.wav","null","audio-keyboard-response","472","294845","0.0-16.0-6.0","",""
"200","sound/asl/silence.wav","50","audio-keyboard-response","473","295047","0.0-16.0-7.0","true",""
"null","sound/msl/cow.wav","null","audio-keyboard-response","474","295556","0.0-17.0-0.0","",""
"null","sound/msl/dog.wav","null","audio-keyboard-response","475","296056","0.0-17.0-1.0","",""
"null","sound/msl/clock.wav","null","audio-keyboard-response","476","296606","0.0-17.0-2.0","",""
"null","sound/asl/silence.wav","null","audio-keyboard-response","477","297125","0.0-17.0-3.0","",""
"null","sound/msl/goat.wav","null","audio-keyboard-response","478","297656","0.0-17.0-4.0","",""
"null","sound/msl/bird.wav","null","audio-keyboard-response","479","298166","0.0-17.0-5.0","",""
"null","sound/msl/cat.wav","null","audio-keyboard-response","480","298665","0.0-17.0-6.0","",""
"632","sound/asl/silence.wav","49","audio-keyboard-response","481","299305","0.0-17.0-7.0","true",""
"null","sound/msl/goat.wav","null","audio-keyboard-response","482","299835","0.0-18.0-0.0","",""
"null","sound/msl/bird.wav","null","audio-keyboard-response","483","300335","0.0-18.0-1.0","",""
"null","sound/msl/cat.wav","null","audio-keyboard-response","484","300836","0.0-18.0-2.0","",""
"null","sound/asl/silence.wav","null","audio-keyboard-response","485","301355","0.0-18.0-3.0","",""
"null","sound/msl/Water.wav","null","audio-keyboard-response","486","301865","0.0-18.0-4.0","",""
"null","sound/msl/bird.wav","null","audio-keyboard-response","487","302366","0.0-18.0-5.0","",""
"null","sound/msl/organ.wav","null","audio-keyboard-response","488","302866","0.0-18.0-6.0","",""
"571","sound/asl/silence.wav","50","audio-keyboard-response","489","303440","0.0-18.0-7.0","true",""
"null","sound/msl/door_bell.wav","null","audio-keyboard-response","490","303936","0.0-19.0-0.0","",""
"null","sound/msl/dog.wav","null","audio-keyboard-response","491","304445","0.0-19.0-1.0","",""
"null","sound/msl/boing.wav","null","audio-keyboard-response","492","304945","0.0-19.0-2.0","",""
"null","sound/asl/silence.wav","null","audio-keyboard-response","493","305454","0.0-19.0-3.0","",""
"null","sound/msl/door_bell.wav","null","audio-keyboard-response","494","305966","0.0-19.0-4.0","",""
"null","sound/msl/slide_whistle.wav","null","audio-keyboard-response","495","306465","0.0-19.0-5.0","",""
"null","sound/msl/frog.wav","null","audio-keyboard-response","496","306965","0.0-19.0-6.0","",""
"509","sound/asl/silence.wav","50","audio-keyboard-response","497","307483","0.0-19.0-7.0","true",""
"null","sound/msl/Water.wav","null","audio-keyboard-response","498","307986","0.0-20.0-0.0","",""
"null","sound/msl/bird.wav","null","audio-keyboard-response","499","308486","0.0-20.0-1.0","",""
"null","sound/msl/organ.wav","null","audio-keyboard-response","500","308986","0.0-20.0-2.0","",""
"null","sound/asl/silence.wav","null","audio-keyboard-response","501","309487","0.0-20.0-3.0","",""
"null","sound/msl/Water.wav","null","audio-keyboard-response","502","309996","0.0-20.0-4.0","",""
"null","sound/msl/duck.wav","null","audio-keyboard-response","503","310496","0.0-20.0-5.0","",""
"null","sound/msl/frog.wav","null","audio-keyboard-response","504","311006","0.0-20.0-6.0","",""
"1691","sound/asl/silence.wav","49","audio-keyboard-response","505","312700","0.0-20.0-7.0","true",""
"null","sound/msl/cow.wav","null","audio-keyboard-response","506","313206","0.0-21.0-0.0","",""
"null","sound/msl/dog.wav","null","audio-keyboard-response","507","313715","0.0-21.0-1.0","",""
"null","sound/msl/clock.wav","null","audio-keyboard-response","508","314266","0.0-21.0-2.0","",""
"null","sound/asl/silence.wav","null","audio-keyboard-response","509","314767","0.0-21.0-3.0","",""
"null","sound/msl/cow.wav","null","audio-keyboard-response","510","315276","0.0-21.0-4.0","",""
"null","sound/msl/door.wav","null","audio-keyboard-response","511","315776","0.0-21.0-5.0","",""
"null","sound/msl/organ.wav","null","audio-keyboard-response","512","316275","0.0-21.0-6.0","",""
"1480","sound/asl/silence.wav","49","audio-keyboard-response","513","317759","0.0-21.0-7.0","true",""
"null","sound/msl/cow.wav","null","audio-keyboard-response","514","318257","0.0-22.0-0.0","",""
"null","sound/msl/door.wav","null","audio-keyboard-response","515","318755","0.0-22.0-1.0","",""
"null","sound/msl/organ.wav","null","audio-keyboard-response","516","319255","0.0-22.0-2.0","",""
"null","sound/asl/silence.wav","null","audio-keyboard-response","517","319775","0.0-22.0-3.0","",""
"null","sound/msl/goat.wav","null","audio-keyboard-response","518","320315","0.0-22.0-4.0","",""
"null","sound/msl/door.wav","null","audio-keyboard-response","519","320815","0.0-22.0-5.0","",""
"null","sound/msl/boing.wav","null","audio-keyboard-response","520","321316","0.0-22.0-6.0","",""
"1200","sound/asl/silence.wav","50","audio-keyboard-response","521","322523","0.0-22.0-7.0","true",""
"null","sound/msl/ding.wav","null","audio-keyboard-response","522","323015","0.0-23.0-0.0","",""
"null","sound/msl/duck.wav","null","audio-keyboard-response","523","323525","0.0-23.0-1.0","",""
"null","sound/msl/cat.wav","null","audio-keyboard-response","524","324026","0.0-23.0-2.0","",""
"null","sound/asl/silence.wav","null","audio-keyboard-response","525","324535","0.0-23.0-3.0","",""
"null","sound/msl/ding.wav","null","audio-keyboard-response","526","325046","0.0-23.0-4.0","",""
"null","sound/msl/slide_whistle.wav","null","audio-keyboard-response","527","325547","0.0-23.0-5.0","",""
"null","sound/msl/clock.wav","null","audio-keyboard-response","528","326096","0.0-23.0-6.0","",""
"360","sound/asl/silence.wav","49","audio-keyboard-response","529","326462","0.0-23.0-7.0","true",""
"null","sound/msl/goat.wav","null","audio-keyboard-response","530","326996","0.0-24.0-0.0","",""
"null","sound/msl/bird.wav","null","audio-keyboard-response","531","327496","0.0-24.0-1.0","",""
"null","sound/msl/cat.wav","null","audio-keyboard-response","532","327995","0.0-24.0-2.0","",""
"null","sound/asl/silence.wav","null","audio-keyboard-response","533","328515","0.0-24.0-3.0","",""
"null","sound/msl/goat.wav","null","audio-keyboard-response","534","329056","0.0-24.0-4.0","",""
"null","sound/msl/door.wav","null","audio-keyboard-response","535","329556","0.0-24.0-5.0","",""
"null","sound/msl/boing.wav","null","audio-keyboard-response","536","330056","0.0-24.0-6.0","",""
"589","sound/asl/silence.wav","50","audio-keyboard-response","537","330654","0.0-24.0-7.0","true",""
"null","sound/msl/Water.wav","null","audio-keyboard-response","538","331166","0.0-25.0-0.0","",""
"null","sound/msl/bird.wav","null","audio-keyboard-response","539","331675","0.0-25.0-1.0","",""
"null","sound/msl/organ.wav","null","audio-keyboard-response","540","332175","0.0-25.0-2.0","",""
"null","sound/asl/silence.wav","null","audio-keyboard-response","541","332693","0.0-25.0-3.0","",""
"null","sound/msl/ding.wav","null","audio-keyboard-response","542","333195","0.0-25.0-4.0","",""
"null","sound/msl/slide_whistle.wav","null","audio-keyboard-response","543","333696","0.0-25.0-5.0","",""
"null","sound/msl/clock.wav","null","audio-keyboard-response","544","334245","0.0-25.0-6.0","",""
"499","sound/asl/silence.wav","50","audio-keyboard-response","545","334754","0.0-25.0-7.0","false",""
"null","sound/msl/cow.wav","null","audio-keyboard-response","546","335246","0.0-26.0-0.0","",""
"null","sound/msl/door.wav","null","audio-keyboard-response","547","335746","0.0-26.0-1.0","",""
"null","sound/msl/organ.wav","null","audio-keyboard-response","548","336246","0.0-26.0-2.0","",""
"null","sound/asl/silence.wav","null","audio-keyboard-response","549","336755","0.0-26.0-3.0","",""
"null","sound/msl/door_bell.wav","null","audio-keyboard-response","550","337246","0.0-26.0-4.0","",""
"null","sound/msl/slide_whistle.wav","null","audio-keyboard-response","551","337746","0.0-26.0-5.0","",""
"null","sound/msl/frog.wav","null","audio-keyboard-response","552","338246","0.0-26.0-6.0","",""
"960","sound/asl/silence.wav","50","audio-keyboard-response","553","339212","0.0-26.0-7.0","true",""
"null","sound/msl/goat.wav","null","audio-keyboard-response","554","339745","0.0-27.0-0.0","",""
"null","sound/msl/door.wav","null","audio-keyboard-response","555","340245","0.0-27.0-1.0","",""
"null","sound/msl/boing.wav","null","audio-keyboard-response","556","340745","0.0-27.0-2.0","",""
"null","sound/asl/silence.wav","null","audio-keyboard-response","557","341255","0.0-27.0-3.0","",""
"null","sound/msl/ding.wav","null","audio-keyboard-response","558","341766","0.0-27.0-4.0","",""
"null","sound/msl/slide_whistle.wav","null","audio-keyboard-response","559","342266","0.0-27.0-5.0","",""
"null","sound/msl/clock.wav","null","audio-keyboard-response","560","342816","0.0-27.0-6.0","",""
"640","sound/asl/silence.wav","50","audio-keyboard-response","561","343456","0.0-27.0-7.0","false",""
"1628","","","instructions","562","345085","0.0-28.0","","[{""page_index"":0,""viewing_time"":1627}]"
