"rt","stimulus","key_press","trial_type","trial_index","time_elapsed","internal_node_id","correct","view_history"
"7246","alien.jpg","49","image-keyboard-response","0","7247","0.0-0.0","",""
"null","sound/msl/door_bell.wav","null","audio-keyboard-response","1","7742","0.0-1.0-0.0","",""
"null","sound/msl/goat.wav","null","audio-keyboard-response","2","8282","0.0-1.0-1.0","",""
"null","sound/msl/frog.wav","null","audio-keyboard-response","3","8784","0.0-1.0-2.0","",""
"null","sound/msl/door.wav","null","audio-keyboard-response","4","9283","0.0-1.0-3.0","",""
"null","sound/msl/cat.wav","null","audio-keyboard-response","5","9783","0.0-1.0-4.0","",""
"null","sound/msl/bird.wav","null","audio-keyboard-response","6","10293","0.0-1.0-5.0","",""
"null","sound/msl/ding.wav","null","audio-keyboard-response","7","10793","0.0-1.0-6.0","",""
"null","sound/msl/slide_whistle.wav","null","audio-keyboard-response","8","11292","0.0-1.0-7.0","",""
"null","sound/msl/clock.wav","null","audio-keyboard-response","9","11843","0.0-1.0-8.0","",""
"null","sound/msl/dog.wav","null","audio-keyboard-response","10","12342","0.0-1.0-9.0","",""
"null","sound/msl/duck.wav","null","audio-keyboard-response","11","12853","0.0-1.0-10.0","",""
"null","sound/msl/boing.wav","null","audio-keyboard-response","12","13353","0.0-1.0-11.0","",""
"null","sound/msl/door.wav","null","audio-keyboard-response","13","13852","0.0-1.0-12.0","",""
"null","sound/msl/cat.wav","null","audio-keyboard-response","14","14352","0.0-1.0-13.0","",""
"null","sound/msl/bird.wav","null","audio-keyboard-response","15","14861","0.0-1.0-14.0","",""
"null","sound/msl/door_bell.wav","null","audio-keyboard-response","16","15372","0.0-1.0-15.0","",""
"null","sound/msl/goat.wav","null","audio-keyboard-response","17","15913","0.0-1.0-16.0","",""
"null","sound/msl/frog.wav","null","audio-keyboard-response","18","16423","0.0-1.0-17.0","",""
"null","sound/msl/organ.wav","null","audio-keyboard-response","19","16922","0.0-1.0-18.0","",""
"null","sound/msl/Water.wav","null","audio-keyboard-response","20","17433","0.0-1.0-19.0","",""
"null","sound/msl/cow.wav","null","audio-keyboard-response","21","17942","0.0-1.0-20.0","",""
"null","sound/msl/dog.wav","null","audio-keyboard-response","22","18452","0.0-1.0-21.0","",""
"null","sound/msl/duck.wav","null","audio-keyboard-response","23","18952","0.0-1.0-22.0","",""
"null","sound/msl/boing.wav","null","audio-keyboard-response","24","19453","0.0-1.0-23.0","",""
"null","sound/msl/ding.wav","null","audio-keyboard-response","25","19953","0.0-1.0-24.0","",""
"null","sound/msl/slide_whistle.wav","null","audio-keyboard-response","26","20453","0.0-1.0-25.0","",""
"null","sound/msl/clock.wav","null","audio-keyboard-response","27","21004","0.0-1.0-26.0","",""
"null","sound/msl/door_bell.wav","null","audio-keyboard-response","28","21503","0.0-1.0-27.0","",""
"null","sound/msl/goat.wav","null","audio-keyboard-response","29","22043","0.0-1.0-28.0","",""
"null","sound/msl/frog.wav","null","audio-keyboard-response","30","22541","0.0-1.0-29.0","",""
"null","sound/msl/door.wav","null","audio-keyboard-response","31","23041","0.0-1.0-30.0","",""
"null","sound/msl/cat.wav","null","audio-keyboard-response","32","23541","0.0-1.0-31.0","",""
"null","sound/msl/bird.wav","null","audio-keyboard-response","33","24051","0.0-1.0-32.0","",""
"null","sound/msl/organ.wav","null","audio-keyboard-response","34","24553","0.0-1.0-33.0","",""
"null","sound/msl/Water.wav","null","audio-keyboard-response","35","25061","0.0-1.0-34.0","",""
"null","sound/msl/cow.wav","null","audio-keyboard-response","36","25571","0.0-1.0-35.0","",""
"null","sound/msl/ding.wav","null","audio-keyboard-response","37","26073","0.0-1.0-36.0","",""
"null","sound/msl/slide_whistle.wav","null","audio-keyboard-response","38","26571","0.0-1.0-37.0","",""
"null","sound/msl/clock.wav","null","audio-keyboard-response","39","27121","0.0-1.0-38.0","",""
"null","sound/msl/dog.wav","null","audio-keyboard-response","40","27621","0.0-1.0-39.0","",""
"null","sound/msl/duck.wav","null","audio-keyboard-response","41","28131","0.0-1.0-40.0","",""
"null","sound/msl/boing.wav","null","audio-keyboard-response","42","28633","0.0-1.0-41.0","",""
"null","sound/msl/organ.wav","null","audio-keyboard-response","43","29131","0.0-1.0-42.0","",""
"null","sound/msl/Water.wav","null","audio-keyboard-response","44","29643","0.0-1.0-43.0","",""
"null","sound/msl/cow.wav","null","audio-keyboard-response","45","30143","0.0-1.0-44.0","",""
"null","sound/msl/door.wav","null","audio-keyboard-response","46","30641","0.0-1.0-45.0","",""
"null","sound/msl/cat.wav","null","audio-keyboard-response","47","31142","0.0-1.0-46.0","",""
"null","sound/msl/bird.wav","null","audio-keyboard-response","48","31652","0.0-1.0-47.0","",""
"null","sound/msl/ding.wav","null","audio-keyboard-response","49","32153","0.0-1.0-48.0","",""
"null","sound/msl/slide_whistle.wav","null","audio-keyboard-response","50","32653","0.0-1.0-49.0","",""
"null","sound/msl/clock.wav","null","audio-keyboard-response","51","33203","0.0-1.0-50.0","",""
"null","sound/msl/door_bell.wav","null","audio-keyboard-response","52","33703","0.0-1.0-51.0","",""
"null","sound/msl/goat.wav","null","audio-keyboard-response","53","34242","0.0-1.0-52.0","",""
"null","sound/msl/frog.wav","null","audio-keyboard-response","54","34743","0.0-1.0-53.0","",""
"null","sound/msl/door.wav","null","audio-keyboard-response","55","35243","0.0-1.0-54.0","",""
"null","sound/msl/cat.wav","null","audio-keyboard-response","56","35743","0.0-1.0-55.0","",""
"null","sound/msl/bird.wav","null","audio-keyboard-response","57","36252","0.0-1.0-56.0","",""
"null","sound/msl/ding.wav","null","audio-keyboard-response","58","36753","0.0-1.0-57.0","",""
"null","sound/msl/slide_whistle.wav","null","audio-keyboard-response","59","37253","0.0-1.0-58.0","",""
"null","sound/msl/clock.wav","null","audio-keyboard-response","60","37803","0.0-1.0-59.0","",""
"null","sound/msl/dog.wav","null","audio-keyboard-response","61","38303","0.0-1.0-60.0","",""
"null","sound/msl/duck.wav","null","audio-keyboard-response","62","38813","0.0-1.0-61.0","",""
"null","sound/msl/boing.wav","null","audio-keyboard-response","63","39312","0.0-1.0-62.0","",""
"null","sound/msl/organ.wav","null","audio-keyboard-response","64","39812","0.0-1.0-63.0","",""
"null","sound/msl/Water.wav","null","audio-keyboard-response","65","40323","0.0-1.0-64.0","",""
"null","sound/msl/cow.wav","null","audio-keyboard-response","66","40823","0.0-1.0-65.0","",""
"null","sound/msl/door.wav","null","audio-keyboard-response","67","41325","0.0-1.0-66.0","",""
"null","sound/msl/cat.wav","null","audio-keyboard-response","68","41824","0.0-1.0-67.0","",""
"null","sound/msl/bird.wav","null","audio-keyboard-response","69","42336","0.0-1.0-68.0","",""
"null","sound/msl/door_bell.wav","null","audio-keyboard-response","70","42836","0.0-1.0-69.0","",""
"null","sound/msl/goat.wav","null","audio-keyboard-response","71","43375","0.0-1.0-70.0","",""
"null","sound/msl/frog.wav","null","audio-keyboard-response","72","43873","0.0-1.0-71.0","",""
"null","sound/msl/ding.wav","null","audio-keyboard-response","73","44384","0.0-1.0-72.0","",""
"null","sound/msl/slide_whistle.wav","null","audio-keyboard-response","74","44883","0.0-1.0-73.0","",""
"null","sound/msl/clock.wav","null","audio-keyboard-response","75","45433","0.0-1.0-74.0","",""
"null","sound/msl/dog.wav","null","audio-keyboard-response","76","45944","0.0-1.0-75.0","",""
"null","sound/msl/duck.wav","null","audio-keyboard-response","77","46453","0.0-1.0-76.0","",""
"null","sound/msl/boing.wav","null","audio-keyboard-response","78","46954","0.0-1.0-77.0","",""
"null","sound/msl/ding.wav","null","audio-keyboard-response","79","47464","0.0-1.0-78.0","",""
"null","sound/msl/slide_whistle.wav","null","audio-keyboard-response","80","47965","0.0-1.0-79.0","",""
"null","sound/msl/clock.wav","null","audio-keyboard-response","81","48515","0.0-1.0-80.0","",""
"null","sound/msl/organ.wav","null","audio-keyboard-response","82","49014","0.0-1.0-81.0","",""
"null","sound/msl/Water.wav","null","audio-keyboard-response","83","49526","0.0-1.0-82.0","",""
"null","sound/msl/cow.wav","null","audio-keyboard-response","84","50024","0.0-1.0-83.0","",""
"null","sound/msl/door_bell.wav","null","audio-keyboard-response","85","50534","0.0-1.0-84.0","",""
"null","sound/msl/goat.wav","null","audio-keyboard-response","86","51075","0.0-1.0-85.0","",""
"null","sound/msl/frog.wav","null","audio-keyboard-response","87","51586","0.0-1.0-86.0","",""
"null","sound/msl/door.wav","null","audio-keyboard-response","88","52085","0.0-1.0-87.0","",""
"null","sound/msl/cat.wav","null","audio-keyboard-response","89","52585","0.0-1.0-88.0","",""
"null","sound/msl/bird.wav","null","audio-keyboard-response","90","53095","0.0-1.0-89.0","",""
"null","sound/msl/organ.wav","null","audio-keyboard-response","91","53595","0.0-1.0-90.0","",""
"null","sound/msl/Water.wav","null","audio-keyboard-response","92","54105","0.0-1.0-91.0","",""
"null","sound/msl/cow.wav","null","audio-keyboard-response","93","54614","0.0-1.0-92.0","",""
"null","sound/msl/dog.wav","null","audio-keyboard-response","94","55115","0.0-1.0-93.0","",""
"null","sound/msl/duck.wav","null","audio-keyboard-response","95","55625","0.0-1.0-94.0","",""
"null","sound/msl/boing.wav","null","audio-keyboard-response","96","56123","0.0-1.0-95.0","",""
"null","sound/msl/ding.wav","null","audio-keyboard-response","97","56623","0.0-1.0-96.0","",""
"null","sound/msl/slide_whistle.wav","null","audio-keyboard-response","98","57126","0.0-1.0-97.0","",""
"null","sound/msl/clock.wav","null","audio-keyboard-response","99","57674","0.0-1.0-98.0","",""
"null","sound/msl/door.wav","null","audio-keyboard-response","100","58174","0.0-1.0-99.0","",""
"null","sound/msl/cat.wav","null","audio-keyboard-response","101","58675","0.0-1.0-100.0","",""
"null","sound/msl/bird.wav","null","audio-keyboard-response","102","59184","0.0-1.0-101.0","",""
"null","sound/msl/organ.wav","null","audio-keyboard-response","103","59684","0.0-1.0-102.0","",""
"null","sound/msl/Water.wav","null","audio-keyboard-response","104","60195","0.0-1.0-103.0","",""
"null","sound/msl/cow.wav","null","audio-keyboard-response","105","60705","0.0-1.0-104.0","",""
"null","sound/msl/door_bell.wav","null","audio-keyboard-response","106","61215","0.0-1.0-105.0","",""
"null","sound/msl/goat.wav","null","audio-keyboard-response","107","61755","0.0-1.0-106.0","",""
"null","sound/msl/frog.wav","null","audio-keyboard-response","108","62263","0.0-1.0-107.0","",""
"null","sound/msl/door.wav","null","audio-keyboard-response","109","62764","0.0-1.0-108.0","",""
"null","sound/msl/cat.wav","null","audio-keyboard-response","110","63264","0.0-1.0-109.0","",""
"null","sound/msl/bird.wav","null","audio-keyboard-response","111","63775","0.0-1.0-110.0","",""
"null","sound/msl/dog.wav","null","audio-keyboard-response","112","64275","0.0-1.0-111.0","",""
"null","sound/msl/duck.wav","null","audio-keyboard-response","113","64785","0.0-1.0-112.0","",""
"null","sound/msl/boing.wav","null","audio-keyboard-response","114","65285","0.0-1.0-113.0","",""
"null","sound/msl/organ.wav","null","audio-keyboard-response","115","65785","0.0-1.0-114.0","",""
"null","sound/msl/Water.wav","null","audio-keyboard-response","116","66296","0.0-1.0-115.0","",""
"null","sound/msl/cow.wav","null","audio-keyboard-response","117","66794","0.0-1.0-116.0","",""
"null","sound/msl/ding.wav","null","audio-keyboard-response","118","67304","0.0-1.0-117.0","",""
"null","sound/msl/slide_whistle.wav","null","audio-keyboard-response","119","67805","0.0-1.0-118.0","",""
"null","sound/msl/clock.wav","null","audio-keyboard-response","120","68354","0.0-1.0-119.0","",""
"null","sound/msl/door_bell.wav","null","audio-keyboard-response","121","68865","0.0-1.0-120.0","",""
"null","sound/msl/goat.wav","null","audio-keyboard-response","122","69405","0.0-1.0-121.0","",""
"null","sound/msl/frog.wav","null","audio-keyboard-response","123","69904","0.0-1.0-122.0","",""
"null","sound/msl/door.wav","null","audio-keyboard-response","124","70406","0.0-1.0-123.0","",""
"null","sound/msl/cat.wav","null","audio-keyboard-response","125","70905","0.0-1.0-124.0","",""
"null","sound/msl/bird.wav","null","audio-keyboard-response","126","71414","0.0-1.0-125.0","",""
"null","sound/msl/organ.wav","null","audio-keyboard-response","127","71915","0.0-1.0-126.0","",""
"null","sound/msl/Water.wav","null","audio-keyboard-response","128","72423","0.0-1.0-127.0","",""
"null","sound/msl/cow.wav","null","audio-keyboard-response","129","72933","0.0-1.0-128.0","",""
"null","sound/msl/dog.wav","null","audio-keyboard-response","130","73432","0.0-1.0-129.0","",""
"null","sound/msl/duck.wav","null","audio-keyboard-response","131","73943","0.0-1.0-130.0","",""
"null","sound/msl/boing.wav","null","audio-keyboard-response","132","74445","0.0-1.0-131.0","",""
"null","sound/msl/door.wav","null","audio-keyboard-response","133","74944","0.0-1.0-132.0","",""
"null","sound/msl/cat.wav","null","audio-keyboard-response","134","75444","0.0-1.0-133.0","",""
"null","sound/msl/bird.wav","null","audio-keyboard-response","135","75945","0.0-1.0-134.0","",""
"null","sound/msl/ding.wav","null","audio-keyboard-response","136","76455","0.0-1.0-135.0","",""
"null","sound/msl/slide_whistle.wav","null","audio-keyboard-response","137","76953","0.0-1.0-136.0","",""
"null","sound/msl/clock.wav","null","audio-keyboard-response","138","77504","0.0-1.0-137.0","",""
"null","sound/msl/dog.wav","null","audio-keyboard-response","139","78014","0.0-1.0-138.0","",""
"null","sound/msl/duck.wav","null","audio-keyboard-response","140","78515","0.0-1.0-139.0","",""
"null","sound/msl/boing.wav","null","audio-keyboard-response","141","79014","0.0-1.0-140.0","",""
"null","sound/msl/door_bell.wav","null","audio-keyboard-response","142","79515","0.0-1.0-141.0","",""
"null","sound/msl/goat.wav","null","audio-keyboard-response","143","80053","0.0-1.0-142.0","",""
"null","sound/msl/frog.wav","null","audio-keyboard-response","144","80553","0.0-1.0-143.0","",""
"null","sound/msl/organ.wav","null","audio-keyboard-response","145","81054","0.0-1.0-144.0","",""
"null","sound/msl/Water.wav","null","audio-keyboard-response","146","81564","0.0-1.0-145.0","",""
"null","sound/msl/cow.wav","null","audio-keyboard-response","147","82065","0.0-1.0-146.0","",""
"null","sound/msl/ding.wav","null","audio-keyboard-response","148","82574","0.0-1.0-147.0","",""
"null","sound/msl/slide_whistle.wav","null","audio-keyboard-response","149","83074","0.0-1.0-148.0","",""
"null","sound/msl/clock.wav","null","audio-keyboard-response","150","83625","0.0-1.0-149.0","",""
"null","sound/msl/door_bell.wav","null","audio-keyboard-response","151","84135","0.0-1.0-150.0","",""
"null","sound/msl/goat.wav","null","audio-keyboard-response","152","84675","0.0-1.0-151.0","",""
"null","sound/msl/frog.wav","null","audio-keyboard-response","153","85184","0.0-1.0-152.0","",""
"null","sound/msl/door.wav","null","audio-keyboard-response","154","85685","0.0-1.0-153.0","",""
"null","sound/msl/cat.wav","null","audio-keyboard-response","155","86184","0.0-1.0-154.0","",""
"null","sound/msl/bird.wav","null","audio-keyboard-response","156","86695","0.0-1.0-155.0","",""
"null","sound/msl/dog.wav","null","audio-keyboard-response","157","87195","0.0-1.0-156.0","",""
"null","sound/msl/duck.wav","null","audio-keyboard-response","158","87704","0.0-1.0-157.0","",""
"null","sound/msl/boing.wav","null","audio-keyboard-response","159","88205","0.0-1.0-158.0","",""
"null","sound/msl/organ.wav","null","audio-keyboard-response","160","88703","0.0-1.0-159.0","",""
"null","sound/msl/Water.wav","null","audio-keyboard-response","161","89215","0.0-1.0-160.0","",""
"null","sound/msl/cow.wav","null","audio-keyboard-response","162","89715","0.0-1.0-161.0","",""
"null","sound/msl/door.wav","null","audio-keyboard-response","163","90215","0.0-1.0-162.0","",""
"null","sound/msl/cat.wav","null","audio-keyboard-response","164","90715","0.0-1.0-163.0","",""
"null","sound/msl/bird.wav","null","audio-keyboard-response","165","91224","0.0-1.0-164.0","",""
"null","sound/msl/dog.wav","null","audio-keyboard-response","166","91734","0.0-1.0-165.0","",""
"null","sound/msl/duck.wav","null","audio-keyboard-response","167","92235","0.0-1.0-166.0","",""
"null","sound/msl/boing.wav","null","audio-keyboard-response","168","92735","0.0-1.0-167.0","",""
"null","sound/msl/door_bell.wav","null","audio-keyboard-response","169","93234","0.0-1.0-168.0","",""
"null","sound/msl/goat.wav","null","audio-keyboard-response","170","93773","0.0-1.0-169.0","",""
"null","sound/msl/frog.wav","null","audio-keyboard-response","171","94275","0.0-1.0-170.0","",""
"null","sound/msl/ding.wav","null","audio-keyboard-response","172","94785","0.0-1.0-171.0","",""
"null","sound/msl/slide_whistle.wav","null","audio-keyboard-response","173","95285","0.0-1.0-172.0","",""
"null","sound/msl/clock.wav","null","audio-keyboard-response","174","95835","0.0-1.0-173.0","",""
"null","sound/msl/organ.wav","null","audio-keyboard-response","175","96334","0.0-1.0-174.0","",""
"null","sound/msl/Water.wav","null","audio-keyboard-response","176","96845","0.0-1.0-175.0","",""
"null","sound/msl/cow.wav","null","audio-keyboard-response","177","97343","0.0-1.0-176.0","",""
"null","sound/msl/door.wav","null","audio-keyboard-response","178","97845","0.0-1.0-177.0","",""
"null","sound/msl/cat.wav","null","audio-keyboard-response","179","98345","0.0-1.0-178.0","",""
"null","sound/msl/bird.wav","null","audio-keyboard-response","180","98855","0.0-1.0-179.0","",""
"null","sound/msl/ding.wav","null","audio-keyboard-response","181","99355","0.0-1.0-180.0","",""
"null","sound/msl/slide_whistle.wav","null","audio-keyboard-response","182","99853","0.0-1.0-181.0","",""
"null","sound/msl/clock.wav","null","audio-keyboard-response","183","100403","0.0-1.0-182.0","",""
"null","sound/msl/dog.wav","null","audio-keyboard-response","184","100904","0.0-1.0-183.0","",""
"null","sound/msl/duck.wav","null","audio-keyboard-response","185","101412","0.0-1.0-184.0","",""
"null","sound/msl/boing.wav","null","audio-keyboard-response","186","101913","0.0-1.0-185.0","",""
"null","sound/msl/door_bell.wav","null","audio-keyboard-response","187","102421","0.0-1.0-186.0","",""
"null","sound/msl/goat.wav","null","audio-keyboard-response","188","102963","0.0-1.0-187.0","",""
"null","sound/msl/frog.wav","null","audio-keyboard-response","189","103463","0.0-1.0-188.0","",""
"null","sound/msl/organ.wav","null","audio-keyboard-response","190","103963","0.0-1.0-189.0","",""
"null","sound/msl/Water.wav","null","audio-keyboard-response","191","104474","0.0-1.0-190.0","",""
"null","sound/msl/cow.wav","null","audio-keyboard-response","192","104984","0.0-1.0-191.0","",""
"null","sound/msl/door.wav","null","audio-keyboard-response","193","105483","0.0-1.0-192.0","",""
"null","sound/msl/cat.wav","null","audio-keyboard-response","194","105984","0.0-1.0-193.0","",""
"null","sound/msl/bird.wav","null","audio-keyboard-response","195","106492","0.0-1.0-194.0","",""
"null","sound/msl/ding.wav","null","audio-keyboard-response","196","106993","0.0-1.0-195.0","",""
"null","sound/msl/slide_whistle.wav","null","audio-keyboard-response","197","107493","0.0-1.0-196.0","",""
"null","sound/msl/clock.wav","null","audio-keyboard-response","198","108044","0.0-1.0-197.0","",""
"null","sound/msl/door_bell.wav","null","audio-keyboard-response","199","108544","0.0-1.0-198.0","",""
"null","sound/msl/goat.wav","null","audio-keyboard-response","200","109084","0.0-1.0-199.0","",""
"null","sound/msl/frog.wav","null","audio-keyboard-response","201","109584","0.0-1.0-200.0","",""
"null","sound/msl/dog.wav","null","audio-keyboard-response","202","110093","0.0-1.0-201.0","",""
"null","sound/msl/duck.wav","null","audio-keyboard-response","203","110593","0.0-1.0-202.0","",""
"null","sound/msl/boing.wav","null","audio-keyboard-response","204","111094","0.0-1.0-203.0","",""
"null","sound/msl/organ.wav","null","audio-keyboard-response","205","111593","0.0-1.0-204.0","",""
"null","sound/msl/Water.wav","null","audio-keyboard-response","206","112103","0.0-1.0-205.0","",""
"null","sound/msl/cow.wav","null","audio-keyboard-response","207","112612","0.0-1.0-206.0","",""
"null","sound/msl/door.wav","null","audio-keyboard-response","208","113114","0.0-1.0-207.0","",""
"null","sound/msl/cat.wav","null","audio-keyboard-response","209","113613","0.0-1.0-208.0","",""
"null","sound/msl/bird.wav","null","audio-keyboard-response","210","114113","0.0-1.0-209.0","",""
"null","sound/msl/door_bell.wav","null","audio-keyboard-response","211","114624","0.0-1.0-210.0","",""
"null","sound/msl/goat.wav","null","audio-keyboard-response","212","115164","0.0-1.0-211.0","",""
"null","sound/msl/frog.wav","null","audio-keyboard-response","213","115662","0.0-1.0-212.0","",""
"null","sound/msl/organ.wav","null","audio-keyboard-response","214","116163","0.0-1.0-213.0","",""
"null","sound/msl/Water.wav","null","audio-keyboard-response","215","116672","0.0-1.0-214.0","",""
"null","sound/msl/cow.wav","null","audio-keyboard-response","216","117184","0.0-1.0-215.0","",""
"null","sound/msl/ding.wav","null","audio-keyboard-response","217","117692","0.0-1.0-216.0","",""
"null","sound/msl/slide_whistle.wav","null","audio-keyboard-response","218","118193","0.0-1.0-217.0","",""
"null","sound/msl/clock.wav","null","audio-keyboard-response","219","118742","0.0-1.0-218.0","",""
"null","sound/msl/dog.wav","null","audio-keyboard-response","220","119253","0.0-1.0-219.0","",""
"null","sound/msl/duck.wav","null","audio-keyboard-response","221","119754","0.0-1.0-220.0","",""
"null","sound/msl/boing.wav","null","audio-keyboard-response","222","120253","0.0-1.0-221.0","",""
"null","sound/msl/door.wav","null","audio-keyboard-response","223","120753","0.0-1.0-222.0","",""
"null","sound/msl/cat.wav","null","audio-keyboard-response","224","121251","0.0-1.0-223.0","",""
"null","sound/msl/bird.wav","null","audio-keyboard-response","225","121752","0.0-1.0-224.0","",""
"null","sound/msl/ding.wav","null","audio-keyboard-response","226","122262","0.0-1.0-225.0","",""
"null","sound/msl/slide_whistle.wav","null","audio-keyboard-response","227","122770","0.0-1.0-226.0","",""
"null","sound/msl/clock.wav","null","audio-keyboard-response","228","123313","0.0-1.0-227.0","",""
"null","sound/msl/organ.wav","null","audio-keyboard-response","229","123812","0.0-1.0-228.0","",""
"null","sound/msl/Water.wav","null","audio-keyboard-response","230","124324","0.0-1.0-229.0","",""
"null","sound/msl/cow.wav","null","audio-keyboard-response","231","124822","0.0-1.0-230.0","",""
"null","sound/msl/ding.wav","null","audio-keyboard-response","232","125333","0.0-1.0-231.0","",""
"null","sound/msl/slide_whistle.wav","null","audio-keyboard-response","233","125832","0.0-1.0-232.0","",""
"null","sound/msl/clock.wav","null","audio-keyboard-response","234","126383","0.0-1.0-233.0","",""
"null","sound/msl/door.wav","null","audio-keyboard-response","235","126885","0.0-1.0-234.0","",""
"null","sound/msl/cat.wav","null","audio-keyboard-response","236","127384","0.0-1.0-235.0","",""
"null","sound/msl/bird.wav","null","audio-keyboard-response","237","127893","0.0-1.0-236.0","",""
"null","sound/msl/dog.wav","null","audio-keyboard-response","238","128393","0.0-1.0-237.0","",""
"null","sound/msl/duck.wav","null","audio-keyboard-response","239","128901","0.0-1.0-238.0","",""
"null","sound/msl/boing.wav","null","audio-keyboard-response","240","129403","0.0-1.0-239.0","",""
"null","sound/msl/door_bell.wav","null","audio-keyboard-response","241","129902","0.0-1.0-240.0","",""
"null","sound/msl/goat.wav","null","audio-keyboard-response","242","130444","0.0-1.0-241.0","",""
"null","sound/msl/frog.wav","null","audio-keyboard-response","243","130944","0.0-1.0-242.0","",""
"null","sound/msl/organ.wav","null","audio-keyboard-response","244","131443","0.0-1.0-243.0","",""
"null","sound/msl/Water.wav","null","audio-keyboard-response","245","131953","0.0-1.0-244.0","",""
"null","sound/msl/cow.wav","null","audio-keyboard-response","246","132461","0.0-1.0-245.0","",""
"null","sound/msl/door.wav","null","audio-keyboard-response","247","132962","0.0-1.0-246.0","",""
"null","sound/msl/cat.wav","null","audio-keyboard-response","248","133462","0.0-1.0-247.0","",""
"null","sound/msl/bird.wav","null","audio-keyboard-response","249","133972","0.0-1.0-248.0","",""
"null","sound/msl/dog.wav","null","audio-keyboard-response","250","134472","0.0-1.0-249.0","",""
"null","sound/msl/duck.wav","null","audio-keyboard-response","251","134982","0.0-1.0-250.0","",""
"null","sound/msl/boing.wav","null","audio-keyboard-response","252","135482","0.0-1.0-251.0","",""
"null","sound/msl/door_bell.wav","null","audio-keyboard-response","253","135982","0.0-1.0-252.0","",""
"null","sound/msl/goat.wav","null","audio-keyboard-response","254","136524","0.0-1.0-253.0","",""
"null","sound/msl/frog.wav","null","audio-keyboard-response","255","137022","0.0-1.0-254.0","",""
"null","sound/msl/ding.wav","null","audio-keyboard-response","256","137533","0.0-1.0-255.0","",""
"null","sound/msl/slide_whistle.wav","null","audio-keyboard-response","257","138032","0.0-1.0-256.0","",""
"null","sound/msl/clock.wav","null","audio-keyboard-response","258","138583","0.0-1.0-257.0","",""
"null","sound/msl/organ.wav","null","audio-keyboard-response","259","139083","0.0-1.0-258.0","",""
"null","sound/msl/Water.wav","null","audio-keyboard-response","260","139594","0.0-1.0-259.0","",""
"null","sound/msl/cow.wav","null","audio-keyboard-response","261","140104","0.0-1.0-260.0","",""
"null","sound/msl/door_bell.wav","null","audio-keyboard-response","262","140614","0.0-1.0-261.0","",""
"null","sound/msl/goat.wav","null","audio-keyboard-response","263","141153","0.0-1.0-262.0","",""
"null","sound/msl/frog.wav","null","audio-keyboard-response","264","141664","0.0-1.0-263.0","",""
"null","sound/msl/dog.wav","null","audio-keyboard-response","265","142173","0.0-1.0-264.0","",""
"null","sound/msl/duck.wav","null","audio-keyboard-response","266","142674","0.0-1.0-265.0","",""
"null","sound/msl/boing.wav","null","audio-keyboard-response","267","143173","0.0-1.0-266.0","",""
"null","sound/msl/ding.wav","null","audio-keyboard-response","268","143673","0.0-1.0-267.0","",""
"null","sound/msl/slide_whistle.wav","null","audio-keyboard-response","269","144174","0.0-1.0-268.0","",""
"null","sound/msl/clock.wav","null","audio-keyboard-response","270","144724","0.0-1.0-269.0","",""
"null","sound/msl/door.wav","null","audio-keyboard-response","271","145222","0.0-1.0-270.0","",""
"null","sound/msl/cat.wav","null","audio-keyboard-response","272","145724","0.0-1.0-271.0","",""
"null","sound/msl/bird.wav","null","audio-keyboard-response","273","146223","0.0-1.0-272.0","",""
"null","sound/msl/organ.wav","null","audio-keyboard-response","274","146722","0.0-1.0-273.0","",""
"null","sound/msl/Water.wav","null","audio-keyboard-response","275","147234","0.0-1.0-274.0","",""
"null","sound/msl/cow.wav","null","audio-keyboard-response","276","147744","0.0-1.0-275.0","",""
"null","sound/msl/door_bell.wav","null","audio-keyboard-response","277","148253","0.0-1.0-276.0","",""
"null","sound/msl/goat.wav","null","audio-keyboard-response","278","148793","0.0-1.0-277.0","",""
"null","sound/msl/frog.wav","null","audio-keyboard-response","279","149304","0.0-1.0-278.0","",""
"null","sound/msl/dog.wav","null","audio-keyboard-response","280","149815","0.0-1.0-279.0","",""
"null","sound/msl/duck.wav","null","audio-keyboard-response","281","150313","0.0-1.0-280.0","",""
"null","sound/msl/boing.wav","null","audio-keyboard-response","282","150813","0.0-1.0-281.0","",""
"null","sound/msl/door.wav","null","audio-keyboard-response","283","151314","0.0-1.0-282.0","",""
"null","sound/msl/cat.wav","null","audio-keyboard-response","284","151812","0.0-1.0-283.0","",""
"null","sound/msl/bird.wav","null","audio-keyboard-response","285","152313","0.0-1.0-284.0","",""
"null","sound/msl/ding.wav","null","audio-keyboard-response","286","152823","0.0-1.0-285.0","",""
"null","sound/msl/slide_whistle.wav","null","audio-keyboard-response","287","153323","0.0-1.0-286.0","",""
"null","sound/msl/clock.wav","null","audio-keyboard-response","288","153874","0.0-1.0-287.0","",""
"null","sound/msl/organ.wav","null","audio-keyboard-response","289","154373","0.0-1.0-288.0","",""
"null","sound/msl/Water.wav","null","audio-keyboard-response","290","154883","0.0-1.0-289.0","",""
"null","sound/msl/cow.wav","null","audio-keyboard-response","291","155383","0.0-1.0-290.0","",""
"null","sound/msl/dog.wav","null","audio-keyboard-response","292","155894","0.0-1.0-291.0","",""
"null","sound/msl/duck.wav","null","audio-keyboard-response","293","156392","0.0-1.0-292.0","",""
"null","sound/msl/boing.wav","null","audio-keyboard-response","294","156894","0.0-1.0-293.0","",""
"null","sound/msl/door_bell.wav","null","audio-keyboard-response","295","157394","0.0-1.0-294.0","",""
"null","sound/msl/goat.wav","null","audio-keyboard-response","296","157933","0.0-1.0-295.0","",""
"null","sound/msl/frog.wav","null","audio-keyboard-response","297","158434","0.0-1.0-296.0","",""
"null","sound/msl/organ.wav","null","audio-keyboard-response","298","158934","0.0-1.0-297.0","",""
"null","sound/msl/Water.wav","null","audio-keyboard-response","299","159443","0.0-1.0-298.0","",""
"null","sound/msl/cow.wav","null","audio-keyboard-response","300","159943","0.0-1.0-299.0","",""
"null","sound/msl/door.wav","null","audio-keyboard-response","301","160443","0.0-1.0-300.0","",""
"null","sound/msl/cat.wav","null","audio-keyboard-response","302","160942","0.0-1.0-301.0","",""
"null","sound/msl/bird.wav","null","audio-keyboard-response","303","161453","0.0-1.0-302.0","",""
"null","sound/msl/dog.wav","null","audio-keyboard-response","304","161954","0.0-1.0-303.0","",""
"null","sound/msl/duck.wav","null","audio-keyboard-response","305","162463","0.0-1.0-304.0","",""
"null","sound/msl/boing.wav","null","audio-keyboard-response","306","162963","0.0-1.0-305.0","",""
"null","sound/msl/ding.wav","null","audio-keyboard-response","307","163463","0.0-1.0-306.0","",""
"null","sound/msl/slide_whistle.wav","null","audio-keyboard-response","308","163963","0.0-1.0-307.0","",""
"null","sound/msl/clock.wav","null","audio-keyboard-response","309","164513","0.0-1.0-308.0","",""
"null","sound/msl/door_bell.wav","null","audio-keyboard-response","310","165024","0.0-1.0-309.0","",""
"null","sound/msl/goat.wav","null","audio-keyboard-response","311","165565","0.0-1.0-310.0","",""
"null","sound/msl/frog.wav","null","audio-keyboard-response","312","166064","0.0-1.0-311.0","",""
"null","sound/msl/organ.wav","null","audio-keyboard-response","313","166565","0.0-1.0-312.0","",""
"null","sound/msl/Water.wav","null","audio-keyboard-response","314","167074","0.0-1.0-313.0","",""
"null","sound/msl/cow.wav","null","audio-keyboard-response","315","167584","0.0-1.0-314.0","",""
"null","sound/msl/door.wav","null","audio-keyboard-response","316","168084","0.0-1.0-315.0","",""
"null","sound/msl/cat.wav","null","audio-keyboard-response","317","168585","0.0-1.0-316.0","",""
"null","sound/msl/bird.wav","null","audio-keyboard-response","318","169095","0.0-1.0-317.0","",""
"null","sound/msl/dog.wav","null","audio-keyboard-response","319","169595","0.0-1.0-318.0","",""
"null","sound/msl/duck.wav","null","audio-keyboard-response","320","170104","0.0-1.0-319.0","",""
"null","sound/msl/boing.wav","null","audio-keyboard-response","321","170604","0.0-1.0-320.0","",""
"null","sound/msl/door_bell.wav","null","audio-keyboard-response","322","171104","0.0-1.0-321.0","",""
"null","sound/msl/goat.wav","null","audio-keyboard-response","323","171645","0.0-1.0-322.0","",""
"null","sound/msl/frog.wav","null","audio-keyboard-response","324","172145","0.0-1.0-323.0","",""
"null","sound/msl/door.wav","null","audio-keyboard-response","325","172644","0.0-1.0-324.0","",""
"null","sound/msl/cat.wav","null","audio-keyboard-response","326","173144","0.0-1.0-325.0","",""
"null","sound/msl/bird.wav","null","audio-keyboard-response","327","173654","0.0-1.0-326.0","",""
"null","sound/msl/ding.wav","null","audio-keyboard-response","328","174154","0.0-1.0-327.0","",""
"null","sound/msl/slide_whistle.wav","null","audio-keyboard-response","329","174654","0.0-1.0-328.0","",""
"null","sound/msl/clock.wav","null","audio-keyboard-response","330","175204","0.0-1.0-329.0","",""
"null","sound/msl/organ.wav","null","audio-keyboard-response","331","175704","0.0-1.0-330.0","",""
"null","sound/msl/Water.wav","null","audio-keyboard-response","332","176214","0.0-1.0-331.0","",""
"null","sound/msl/cow.wav","null","audio-keyboard-response","333","176714","0.0-1.0-332.0","",""
"null","sound/msl/dog.wav","null","audio-keyboard-response","334","177223","0.0-1.0-333.0","",""
"null","sound/msl/duck.wav","null","audio-keyboard-response","335","177735","0.0-1.0-334.0","",""
"null","sound/msl/boing.wav","null","audio-keyboard-response","336","178235","0.0-1.0-335.0","",""
"null","sound/msl/ding.wav","null","audio-keyboard-response","337","178744","0.0-1.0-336.0","",""
"null","sound/msl/slide_whistle.wav","null","audio-keyboard-response","338","179244","0.0-1.0-337.0","",""
"null","sound/msl/clock.wav","null","audio-keyboard-response","339","179795","0.0-1.0-338.0","",""
"null","sound/msl/door_bell.wav","null","audio-keyboard-response","340","180303","0.0-1.0-339.0","",""
"null","sound/msl/goat.wav","null","audio-keyboard-response","341","180843","0.0-1.0-340.0","",""
"null","sound/msl/frog.wav","null","audio-keyboard-response","342","181344","0.0-1.0-341.0","",""
"null","sound/msl/dog.wav","null","audio-keyboard-response","343","181855","0.0-1.0-342.0","",""
"null","sound/msl/duck.wav","null","audio-keyboard-response","344","182355","0.0-1.0-343.0","",""
"null","sound/msl/boing.wav","null","audio-keyboard-response","345","182854","0.0-1.0-344.0","",""
"null","sound/msl/door_bell.wav","null","audio-keyboard-response","346","183354","0.0-1.0-345.0","",""
"null","sound/msl/goat.wav","null","audio-keyboard-response","347","183894","0.0-1.0-346.0","",""
"null","sound/msl/frog.wav","null","audio-keyboard-response","348","184394","0.0-1.0-347.0","",""
"null","sound/msl/ding.wav","null","audio-keyboard-response","349","184905","0.0-1.0-348.0","",""
"null","sound/msl/slide_whistle.wav","null","audio-keyboard-response","350","185404","0.0-1.0-349.0","",""
"null","sound/msl/clock.wav","null","audio-keyboard-response","351","185955","0.0-1.0-350.0","",""
"null","sound/msl/organ.wav","null","audio-keyboard-response","352","186454","0.0-1.0-351.0","",""
"null","sound/msl/Water.wav","null","audio-keyboard-response","353","186963","0.0-1.0-352.0","",""
"null","sound/msl/cow.wav","null","audio-keyboard-response","354","187464","0.0-1.0-353.0","",""
"null","sound/msl/dog.wav","null","audio-keyboard-response","355","187972","0.0-1.0-354.0","",""
"null","sound/msl/duck.wav","null","audio-keyboard-response","356","188473","0.0-1.0-355.0","",""
"null","sound/msl/boing.wav","null","audio-keyboard-response","357","188973","0.0-1.0-356.0","",""
"null","sound/msl/door_bell.wav","null","audio-keyboard-response","358","189474","0.0-1.0-357.0","",""
"null","sound/msl/goat.wav","null","audio-keyboard-response","359","190013","0.0-1.0-358.0","",""
"null","sound/msl/frog.wav","null","audio-keyboard-response","360","190515","0.0-1.0-359.0","",""
"27255","Instructions2-eng.png","49","image-keyboard-response","361","217771","0.0-2.0","",""
"null","sound/msl/door_bell.wav","null","audio-keyboard-response","362","218263","0.0-3.0-0.0","",""
"null","sound/msl/cat.wav","null","audio-keyboard-response","363","218764","0.0-3.0-1.0","",""
"null","sound/msl/clock.wav","null","audio-keyboard-response","364","219314","0.0-3.0-2.0","",""
"null","sound/asl/silence.wav","null","audio-keyboard-response","365","219815","0.0-3.0-3.0","",""
"null","sound/msl/organ.wav","null","audio-keyboard-response","366","220315","0.0-3.0-4.0","",""
"null","sound/msl/Water.wav","null","audio-keyboard-response","367","220824","0.0-3.0-5.0","",""
"null","sound/msl/cow.wav","null","audio-keyboard-response","368","221335","0.0-3.0-6.0","",""
"1760","sound/asl/silence.wav","49","audio-keyboard-response","369","223092","0.0-3.0-7.0","false",""
"null","sound/msl/door_bell.wav","null","audio-keyboard-response","370","223588","0.0-4.0-0.0","",""
"null","sound/msl/cat.wav","null","audio-keyboard-response","371","224089","0.0-4.0-1.0","",""
"null","sound/msl/clock.wav","null","audio-keyboard-response","372","224639","0.0-4.0-2.0","",""
"null","sound/asl/silence.wav","null","audio-keyboard-response","373","225143","0.0-4.0-3.0","",""
"null","sound/msl/door_bell.wav","null","audio-keyboard-response","374","225650","0.0-4.0-4.0","",""
"null","sound/msl/goat.wav","null","audio-keyboard-response","375","226191","0.0-4.0-5.0","",""
"null","sound/msl/frog.wav","null","audio-keyboard-response","376","226700","0.0-4.0-6.0","",""
"899","sound/asl/silence.wav","49","audio-keyboard-response","377","227600","0.0-4.0-7.0","false",""
"null","sound/msl/ding.wav","null","audio-keyboard-response","378","228099","0.0-5.0-0.0","",""
"null","sound/msl/duck.wav","null","audio-keyboard-response","379","228608","0.0-5.0-1.0","",""
"null","sound/msl/cow.wav","null","audio-keyboard-response","380","229108","0.0-5.0-2.0","",""
"null","sound/asl/silence.wav","null","audio-keyboard-response","381","229617","0.0-5.0-3.0","",""
"null","sound/msl/organ.wav","null","audio-keyboard-response","382","230118","0.0-5.0-4.0","",""
"null","sound/msl/Water.wav","null","audio-keyboard-response","383","230629","0.0-5.0-5.0","",""
"null","sound/msl/cow.wav","null","audio-keyboard-response","384","231140","0.0-5.0-6.0","",""
"619","sound/asl/silence.wav","49","audio-keyboard-response","385","231760","0.0-5.0-7.0","false",""
"null","sound/msl/ding.wav","null","audio-keyboard-response","386","232259","0.0-6.0-0.0","",""
"null","sound/msl/duck.wav","null","audio-keyboard-response","387","232770","0.0-6.0-1.0","",""
"null","sound/msl/cow.wav","null","audio-keyboard-response","388","233269","0.0-6.0-2.0","",""
"null","sound/asl/silence.wav","null","audio-keyboard-response","389","233778","0.0-6.0-3.0","",""
"null","sound/msl/ding.wav","null","audio-keyboard-response","390","234269","0.0-6.0-4.0","",""
"null","sound/msl/slide_whistle.wav","null","audio-keyboard-response","391","234770","0.0-6.0-5.0","",""
"null","sound/msl/clock.wav","null","audio-keyboard-response","392","235319","0.0-6.0-6.0","",""
"832","sound/asl/silence.wav","50","audio-keyboard-response","393","236155","0.0-6.0-7.0","true",""
"null","sound/msl/organ.wav","null","audio-keyboard-response","394","236649","0.0-7.0-0.0","",""
"null","sound/msl/Water.wav","null","audio-keyboard-response","395","237157","0.0-7.0-1.0","",""
"null","sound/msl/cow.wav","null","audio-keyboard-response","396","237660","0.0-7.0-2.0","",""
"null","sound/asl/silence.wav","null","audio-keyboard-response","397","238167","0.0-7.0-3.0","",""
"null","sound/msl/door.wav","null","audio-keyboard-response","398","238671","0.0-7.0-4.0","",""
"null","sound/msl/slide_whistle.wav","null","audio-keyboard-response","399","239169","0.0-7.0-5.0","",""
"null","sound/msl/boing.wav","null","audio-keyboard-response","400","239670","0.0-7.0-6.0","",""
"1299","sound/asl/silence.wav","50","audio-keyboard-response","401","240972","0.0-7.0-7.0","false",""
"null","sound/msl/ding.wav","null","audio-keyboard-response","402","241468","0.0-8.0-0.0","",""
"null","sound/msl/slide_whistle.wav","null","audio-keyboard-response","403","241969","0.0-8.0-1.0","",""
"null","sound/msl/clock.wav","null","audio-keyboard-response","404","242519","0.0-8.0-2.0","",""
"null","sound/asl/silence.wav","null","audio-keyboard-response","405","243037","0.0-8.0-3.0","",""
"null","sound/msl/organ.wav","null","audio-keyboard-response","406","243529","0.0-8.0-4.0","",""
"null","sound/msl/goat.wav","null","audio-keyboard-response","407","244070","0.0-8.0-5.0","",""
"null","sound/msl/bird.wav","null","audio-keyboard-response","408","244579","0.0-8.0-6.0","",""
"1011","sound/asl/silence.wav","50","audio-keyboard-response","409","245596","0.0-8.0-7.0","false",""
"null","sound/msl/dog.wav","null","audio-keyboard-response","410","246100","0.0-9.0-0.0","",""
"null","sound/msl/duck.wav","null","audio-keyboard-response","411","246610","0.0-9.0-1.0","",""
"null","sound/msl/boing.wav","null","audio-keyboard-response","412","247110","0.0-9.0-2.0","",""
"null","sound/asl/silence.wav","null","audio-keyboard-response","413","247618","0.0-9.0-3.0","",""
"null","sound/msl/organ.wav","null","audio-keyboard-response","414","248119","0.0-9.0-4.0","",""
"null","sound/msl/goat.wav","null","audio-keyboard-response","415","248658","0.0-9.0-5.0","",""
"null","sound/msl/bird.wav","null","audio-keyboard-response","416","249170","0.0-9.0-6.0","",""
"661","sound/asl/silence.wav","49","audio-keyboard-response","417","249834","0.0-9.0-7.0","true",""
"null","sound/msl/ding.wav","null","audio-keyboard-response","418","250338","0.0-10.0-0.0","",""
"null","sound/msl/slide_whistle.wav","null","audio-keyboard-response","419","250840","0.0-10.0-1.0","",""
"null","sound/msl/clock.wav","null","audio-keyboard-response","420","251390","0.0-10.0-2.0","",""
"null","sound/asl/silence.wav","null","audio-keyboard-response","421","251908","0.0-10.0-3.0","",""
"null","sound/msl/door_bell.wav","null","audio-keyboard-response","422","252410","0.0-10.0-4.0","",""
"null","sound/msl/cat.wav","null","audio-keyboard-response","423","252908","0.0-10.0-5.0","",""
"null","sound/msl/clock.wav","null","audio-keyboard-response","424","253460","0.0-10.0-6.0","",""
"709","sound/asl/silence.wav","49","audio-keyboard-response","425","254174","0.0-10.0-7.0","true",""
"null","sound/msl/door_bell.wav","null","audio-keyboard-response","426","254670","0.0-11.0-0.0","",""
"null","sound/msl/cat.wav","null","audio-keyboard-response","427","255168","0.0-11.0-1.0","",""
"null","sound/msl/clock.wav","null","audio-keyboard-response","428","255720","0.0-11.0-2.0","",""
"null","sound/asl/silence.wav","null","audio-keyboard-response","429","256227","0.0-11.0-3.0","",""
"null","sound/msl/dog.wav","null","audio-keyboard-response","430","256730","0.0-11.0-4.0","",""
"null","sound/msl/duck.wav","null","audio-keyboard-response","431","257228","0.0-11.0-5.0","",""
"null","sound/msl/boing.wav","null","audio-keyboard-response","432","257729","0.0-11.0-6.0","",""
"621","sound/asl/silence.wav","50","audio-keyboard-response","433","258355","0.0-11.0-7.0","true",""
"null","sound/msl/organ.wav","null","audio-keyboard-response","434","258850","0.0-12.0-0.0","",""
"null","sound/msl/Water.wav","null","audio-keyboard-response","435","259358","0.0-12.0-1.0","",""
"null","sound/msl/cow.wav","null","audio-keyboard-response","436","259859","0.0-12.0-2.0","",""
"null","sound/asl/silence.wav","null","audio-keyboard-response","437","260378","0.0-12.0-3.0","",""
"null","sound/msl/organ.wav","null","audio-keyboard-response","438","260879","0.0-12.0-4.0","",""
"null","sound/msl/goat.wav","null","audio-keyboard-response","439","261419","0.0-12.0-5.0","",""
"null","sound/msl/bird.wav","null","audio-keyboard-response","440","261928","0.0-12.0-6.0","",""
"429","sound/asl/silence.wav","49","audio-keyboard-response","441","262367","0.0-12.0-7.0","true",""
"null","sound/msl/door.wav","null","audio-keyboard-response","442","262860","0.0-13.0-0.0","",""
"null","sound/msl/cat.wav","null","audio-keyboard-response","443","263360","0.0-13.0-1.0","",""
"null","sound/msl/bird.wav","null","audio-keyboard-response","444","263858","0.0-13.0-2.0","",""
"null","sound/asl/silence.wav","null","audio-keyboard-response","445","264378","0.0-13.0-3.0","",""
"null","sound/msl/ding.wav","null","audio-keyboard-response","446","264870","0.0-13.0-4.0","",""
"null","sound/msl/duck.wav","null","audio-keyboard-response","447","265380","0.0-13.0-5.0","",""
"null","sound/msl/cow.wav","null","audio-keyboard-response","448","265890","0.0-13.0-6.0","",""
"709","sound/asl/silence.wav","50","audio-keyboard-response","449","266598","0.0-13.0-7.0","false",""
"null","sound/msl/door.wav","null","audio-keyboard-response","450","267100","0.0-14.0-0.0","",""
"null","sound/msl/slide_whistle.wav","null","audio-keyboard-response","451","267600","0.0-14.0-1.0","",""
"null","sound/msl/boing.wav","null","audio-keyboard-response","452","268099","0.0-14.0-2.0","",""
"null","sound/asl/silence.wav","null","audio-keyboard-response","453","268618","0.0-14.0-3.0","",""
"null","sound/msl/dog.wav","null","audio-keyboard-response","454","269109","0.0-14.0-4.0","",""
"null","sound/msl/duck.wav","null","audio-keyboard-response","455","269618","0.0-14.0-5.0","",""
"null","sound/msl/boing.wav","null","audio-keyboard-response","456","270117","0.0-14.0-6.0","",""
"720","sound/asl/silence.wav","50","audio-keyboard-response","457","270844","0.0-14.0-7.0","true",""
"null","sound/msl/door.wav","null","audio-keyboard-response","458","271340","0.0-15.0-0.0","",""
"null","sound/msl/cat.wav","null","audio-keyboard-response","459","271840","0.0-15.0-1.0","",""
"null","sound/msl/bird.wav","null","audio-keyboard-response","460","272340","0.0-15.0-2.0","",""
"null","sound/asl/silence.wav","null","audio-keyboard-response","461","272847","0.0-15.0-3.0","",""
"null","sound/msl/door_bell.wav","null","audio-keyboard-response","462","273340","0.0-15.0-4.0","",""
"null","sound/msl/cat.wav","null","audio-keyboard-response","463","273840","0.0-15.0-5.0","",""
"null","sound/msl/clock.wav","null","audio-keyboard-response","464","274390","0.0-15.0-6.0","",""
"779","sound/asl/silence.wav","50","audio-keyboard-response","465","275178","0.0-15.0-7.0","false",""
"null","sound/msl/organ.wav","null","audio-keyboard-response","466","275680","0.0-16.0-0.0","",""
"null","sound/msl/Water.wav","null","audio-keyboard-response","467","276190","0.0-16.0-1.0","",""
"null","sound/msl/cow.wav","null","audio-keyboard-response","468","276699","0.0-16.0-2.0","",""
"null","sound/asl/silence.wav","null","audio-keyboard-response","469","277218","0.0-16.0-3.0","",""
"null","sound/msl/dog.wav","null","audio-keyboard-response","470","277710","0.0-16.0-4.0","",""
"null","sound/msl/Water.wav","null","audio-keyboard-response","471","278220","0.0-16.0-5.0","",""
"null","sound/msl/frog.wav","null","audio-keyboard-response","472","278730","0.0-16.0-6.0","",""
"771","sound/asl/silence.wav","50","audio-keyboard-response","473","279504","0.0-16.0-7.0","false",""
"null","sound/msl/dog.wav","null","audio-keyboard-response","474","280010","0.0-17.0-0.0","",""
"null","sound/msl/Water.wav","null","audio-keyboard-response","475","280520","0.0-17.0-1.0","",""
"null","sound/msl/frog.wav","null","audio-keyboard-response","476","281020","0.0-17.0-2.0","",""
"null","sound/asl/silence.wav","null","audio-keyboard-response","477","281527","0.0-17.0-3.0","",""
"null","sound/msl/ding.wav","null","audio-keyboard-response","478","282020","0.0-17.0-4.0","",""
"null","sound/msl/slide_whistle.wav","null","audio-keyboard-response","479","282520","0.0-17.0-5.0","",""
"null","sound/msl/clock.wav","null","audio-keyboard-response","480","283069","0.0-17.0-6.0","",""
"509","sound/asl/silence.wav","50","audio-keyboard-response","481","283582","0.0-17.0-7.0","true",""
"null","sound/msl/door_bell.wav","null","audio-keyboard-response","482","284089","0.0-18.0-0.0","",""
"null","sound/msl/goat.wav","null","audio-keyboard-response","483","284627","0.0-18.0-1.0","",""
"null","sound/msl/frog.wav","null","audio-keyboard-response","484","285137","0.0-18.0-2.0","",""
"null","sound/asl/silence.wav","null","audio-keyboard-response","485","285646","0.0-18.0-3.0","",""
"null","sound/msl/organ.wav","null","audio-keyboard-response","486","286137","0.0-18.0-4.0","",""
"null","sound/msl/goat.wav","null","audio-keyboard-response","487","286677","0.0-18.0-5.0","",""
"null","sound/msl/bird.wav","null","audio-keyboard-response","488","287179","0.0-18.0-6.0","",""
"699","sound/asl/silence.wav","49","audio-keyboard-response","489","287886","0.0-18.0-7.0","true",""
"null","sound/msl/ding.wav","null","audio-keyboard-response","490","288377","0.0-19.0-0.0","",""
"null","sound/msl/duck.wav","null","audio-keyboard-response","491","288889","0.0-19.0-1.0","",""
"null","sound/msl/cow.wav","null","audio-keyboard-response","492","289389","0.0-19.0-2.0","",""
"null","sound/asl/silence.wav","null","audio-keyboard-response","493","289890","0.0-19.0-3.0","",""
"null","sound/msl/dog.wav","null","audio-keyboard-response","494","290388","0.0-19.0-4.0","",""
"null","sound/msl/duck.wav","null","audio-keyboard-response","495","290899","0.0-19.0-5.0","",""
"null","sound/msl/boing.wav","null","audio-keyboard-response","496","291398","0.0-19.0-6.0","",""
"632","sound/asl/silence.wav","50","audio-keyboard-response","497","292030","0.0-19.0-7.0","true",""
"null","sound/msl/door_bell.wav","null","audio-keyboard-response","498","292537","0.0-20.0-0.0","",""
"null","sound/msl/goat.wav","null","audio-keyboard-response","499","293079","0.0-20.0-1.0","",""
"null","sound/msl/frog.wav","null","audio-keyboard-response","500","293578","0.0-20.0-2.0","",""
"null","sound/asl/silence.wav","null","audio-keyboard-response","501","294087","0.0-20.0-3.0","",""
"null","sound/msl/dog.wav","null","audio-keyboard-response","502","294589","0.0-20.0-4.0","",""
"null","sound/msl/Water.wav","null","audio-keyboard-response","503","295099","0.0-20.0-5.0","",""
"null","sound/msl/frog.wav","null","audio-keyboard-response","504","295607","0.0-20.0-6.0","",""
"901","sound/asl/silence.wav","49","audio-keyboard-response","505","296509","0.0-20.0-7.0","true",""
"null","sound/msl/dog.wav","null","audio-keyboard-response","506","297017","0.0-21.0-0.0","",""
"null","sound/msl/duck.wav","null","audio-keyboard-response","507","297527","0.0-21.0-1.0","",""
"null","sound/msl/boing.wav","null","audio-keyboard-response","508","298029","0.0-21.0-2.0","",""
"null","sound/asl/silence.wav","null","audio-keyboard-response","509","298547","0.0-21.0-3.0","",""
"null","sound/msl/dog.wav","null","audio-keyboard-response","510","299049","0.0-21.0-4.0","",""
"null","sound/msl/Water.wav","null","audio-keyboard-response","511","299558","0.0-21.0-5.0","",""
"null","sound/msl/frog.wav","null","audio-keyboard-response","512","300059","0.0-21.0-6.0","",""
"691","sound/asl/silence.wav","49","audio-keyboard-response","513","300757","0.0-21.0-7.0","true",""
"null","sound/msl/door.wav","null","audio-keyboard-response","514","301258","0.0-22.0-0.0","",""
"null","sound/msl/slide_whistle.wav","null","audio-keyboard-response","515","301759","0.0-22.0-1.0","",""
"null","sound/msl/boing.wav","null","audio-keyboard-response","516","302258","0.0-22.0-2.0","",""
"null","sound/asl/silence.wav","null","audio-keyboard-response","517","302766","0.0-22.0-3.0","",""
"null","sound/msl/door_bell.wav","null","audio-keyboard-response","518","303259","0.0-22.0-4.0","",""
"null","sound/msl/goat.wav","null","audio-keyboard-response","519","303799","0.0-22.0-5.0","",""
"null","sound/msl/frog.wav","null","audio-keyboard-response","520","304298","0.0-22.0-6.0","",""
"680","sound/asl/silence.wav","49","audio-keyboard-response","521","304981","0.0-22.0-7.0","false",""
"null","sound/msl/dog.wav","null","audio-keyboard-response","522","305487","0.0-23.0-0.0","",""
"null","sound/msl/Water.wav","null","audio-keyboard-response","523","305998","0.0-23.0-1.0","",""
"null","sound/msl/frog.wav","null","audio-keyboard-response","524","306497","0.0-23.0-2.0","",""
"null","sound/asl/silence.wav","null","audio-keyboard-response","525","307006","0.0-23.0-3.0","",""
"null","sound/msl/door.wav","null","audio-keyboard-response","526","307496","0.0-23.0-4.0","",""
"null","sound/msl/cat.wav","null","audio-keyboard-response","527","307996","0.0-23.0-5.0","",""
"null","sound/msl/bird.wav","null","audio-keyboard-response","528","308499","0.0-23.0-6.0","",""
"731","sound/asl/silence.wav","50","audio-keyboard-response","529","309237","0.0-23.0-7.0","true",""
"null","sound/msl/door.wav","null","audio-keyboard-response","530","309729","0.0-24.0-0.0","",""
"null","sound/msl/cat.wav","null","audio-keyboard-response","531","310229","0.0-24.0-1.0","",""
"null","sound/msl/bird.wav","null","audio-keyboard-response","532","310738","0.0-24.0-2.0","",""
"null","sound/asl/silence.wav","null","audio-keyboard-response","533","311246","0.0-24.0-3.0","",""
"null","sound/msl/door.wav","null","audio-keyboard-response","534","311749","0.0-24.0-4.0","",""
"null","sound/msl/slide_whistle.wav","null","audio-keyboard-response","535","312248","0.0-24.0-5.0","",""
"null","sound/msl/boing.wav","null","audio-keyboard-response","536","312749","0.0-24.0-6.0","",""
"568","sound/asl/silence.wav","49","audio-keyboard-response","537","313321","0.0-24.0-7.0","true",""
"null","sound/msl/organ.wav","null","audio-keyboard-response","538","313818","0.0-25.0-0.0","",""
"null","sound/msl/goat.wav","null","audio-keyboard-response","539","314359","0.0-25.0-1.0","",""
"null","sound/msl/bird.wav","null","audio-keyboard-response","540","314859","0.0-25.0-2.0","",""
"null","sound/asl/silence.wav","null","audio-keyboard-response","541","315366","0.0-25.0-3.0","",""
"null","sound/msl/door.wav","null","audio-keyboard-response","542","315859","0.0-25.0-4.0","",""
"null","sound/msl/cat.wav","null","audio-keyboard-response","543","316358","0.0-25.0-5.0","",""
"null","sound/msl/bird.wav","null","audio-keyboard-response","544","316859","0.0-25.0-6.0","",""
"520","sound/asl/silence.wav","49","audio-keyboard-response","545","317385","0.0-25.0-7.0","false",""
"null","sound/msl/ding.wav","null","audio-keyboard-response","546","317889","0.0-26.0-0.0","",""
"null","sound/msl/duck.wav","null","audio-keyboard-response","547","318387","0.0-26.0-1.0","",""
"null","sound/msl/cow.wav","null","audio-keyboard-response","548","318897","0.0-26.0-2.0","",""
"null","sound/asl/silence.wav","null","audio-keyboard-response","549","319415","0.0-26.0-3.0","",""
"null","sound/msl/door_bell.wav","null","audio-keyboard-response","550","319907","0.0-26.0-4.0","",""
"null","sound/msl/goat.wav","null","audio-keyboard-response","551","320448","0.0-26.0-5.0","",""
"null","sound/msl/frog.wav","null","audio-keyboard-response","552","320948","0.0-26.0-6.0","",""
"480","sound/asl/silence.wav","49","audio-keyboard-response","553","321433","0.0-26.0-7.0","false",""
"null","sound/msl/door.wav","null","audio-keyboard-response","554","321929","0.0-27.0-0.0","",""
"null","sound/msl/slide_whistle.wav","null","audio-keyboard-response","555","322428","0.0-27.0-1.0","",""
"null","sound/msl/boing.wav","null","audio-keyboard-response","556","322928","0.0-27.0-2.0","",""
"null","sound/asl/silence.wav","null","audio-keyboard-response","557","323446","0.0-27.0-3.0","",""
"null","sound/msl/ding.wav","null","audio-keyboard-response","558","323938","0.0-27.0-4.0","",""
"null","sound/msl/slide_whistle.wav","null","audio-keyboard-response","559","324437","0.0-27.0-5.0","",""
"null","sound/msl/clock.wav","null","audio-keyboard-response","560","324987","0.0-27.0-6.0","",""
"640","sound/asl/silence.wav","50","audio-keyboard-response","561","325633","0.0-27.0-7.0","true",""
"3319","","","instructions","562","328954","0.0-28.0","","[{""page_index"":0,""viewing_time"":3319}]"
