"rt","stimulus","key_press","trial_type","trial_index","time_elapsed","internal_node_id","correct","view_history"
"26042","alien.jpg","49","image-keyboard-response","0","26046","0.0-0.0","",""
"null","sound/msl/bird.wav","null","audio-keyboard-response","1","26557","0.0-1.0-0.0","",""
"null","sound/msl/goat.wav","null","audio-keyboard-response","2","27106","0.0-1.0-1.0","",""
"null","sound/msl/cow.wav","null","audio-keyboard-response","3","27627","0.0-1.0-2.0","",""
"null","sound/msl/frog.wav","null","audio-keyboard-response","4","28146","0.0-1.0-3.0","",""
"null","sound/msl/ding.wav","null","audio-keyboard-response","5","28666","0.0-1.0-4.0","",""
"null","sound/msl/dog.wav","null","audio-keyboard-response","6","29186","0.0-1.0-5.0","",""
"null","sound/msl/boing.wav","null","audio-keyboard-response","7","29696","0.0-1.0-6.0","",""
"null","sound/msl/Water.wav","null","audio-keyboard-response","8","30217","0.0-1.0-7.0","",""
"null","sound/msl/duck.wav","null","audio-keyboard-response","9","30727","0.0-1.0-8.0","",""
"null","sound/msl/door_bell.wav","null","audio-keyboard-response","10","31237","0.0-1.0-9.0","",""
"null","sound/msl/door.wav","null","audio-keyboard-response","11","31748","0.0-1.0-10.0","",""
"null","sound/msl/slide_whistle.wav","null","audio-keyboard-response","12","32262","0.0-1.0-11.0","",""
"null","sound/msl/frog.wav","null","audio-keyboard-response","13","32782","0.0-1.0-12.0","",""
"null","sound/msl/ding.wav","null","audio-keyboard-response","14","33303","0.0-1.0-13.0","",""
"null","sound/msl/dog.wav","null","audio-keyboard-response","15","33822","0.0-1.0-14.0","",""
"null","sound/msl/bird.wav","null","audio-keyboard-response","16","34343","0.0-1.0-15.0","",""
"null","sound/msl/goat.wav","null","audio-keyboard-response","17","34893","0.0-1.0-16.0","",""
"null","sound/msl/cow.wav","null","audio-keyboard-response","18","35403","0.0-1.0-17.0","",""
"null","sound/msl/clock.wav","null","audio-keyboard-response","19","35963","0.0-1.0-18.0","",""
"null","sound/msl/organ.wav","null","audio-keyboard-response","20","36473","0.0-1.0-19.0","",""
"null","sound/msl/cat.wav","null","audio-keyboard-response","21","36983","0.0-1.0-20.0","",""
"null","sound/msl/door_bell.wav","null","audio-keyboard-response","22","37503","0.0-1.0-21.0","",""
"null","sound/msl/door.wav","null","audio-keyboard-response","23","38013","0.0-1.0-22.0","",""
"null","sound/msl/slide_whistle.wav","null","audio-keyboard-response","24","38522","0.0-1.0-23.0","",""
"null","sound/msl/boing.wav","null","audio-keyboard-response","25","39032","0.0-1.0-24.0","",""
"null","sound/msl/Water.wav","null","audio-keyboard-response","26","39553","0.0-1.0-25.0","",""
"null","sound/msl/duck.wav","null","audio-keyboard-response","27","40073","0.0-1.0-26.0","",""
"null","sound/msl/bird.wav","null","audio-keyboard-response","28","40593","0.0-1.0-27.0","",""
"null","sound/msl/goat.wav","null","audio-keyboard-response","29","41143","0.0-1.0-28.0","",""
"null","sound/msl/cow.wav","null","audio-keyboard-response","30","41664","0.0-1.0-29.0","",""
"null","sound/msl/frog.wav","null","audio-keyboard-response","31","42183","0.0-1.0-30.0","",""
"null","sound/msl/ding.wav","null","audio-keyboard-response","32","42703","0.0-1.0-31.0","",""
"null","sound/msl/dog.wav","null","audio-keyboard-response","33","43224","0.0-1.0-32.0","",""
"null","sound/msl/clock.wav","null","audio-keyboard-response","34","43784","0.0-1.0-33.0","",""
"null","sound/msl/organ.wav","null","audio-keyboard-response","35","44294","0.0-1.0-34.0","",""
"null","sound/msl/cat.wav","null","audio-keyboard-response","36","44803","0.0-1.0-35.0","",""
"null","sound/msl/boing.wav","null","audio-keyboard-response","37","45313","0.0-1.0-36.0","",""
"null","sound/msl/Water.wav","null","audio-keyboard-response","38","45834","0.0-1.0-37.0","",""
"null","sound/msl/duck.wav","null","audio-keyboard-response","39","46353","0.0-1.0-38.0","",""
"null","sound/msl/door_bell.wav","null","audio-keyboard-response","40","46873","0.0-1.0-39.0","",""
"null","sound/msl/door.wav","null","audio-keyboard-response","41","47383","0.0-1.0-40.0","",""
"null","sound/msl/slide_whistle.wav","null","audio-keyboard-response","42","47904","0.0-1.0-41.0","",""
"null","sound/msl/clock.wav","null","audio-keyboard-response","43","48464","0.0-1.0-42.0","",""
"null","sound/msl/organ.wav","null","audio-keyboard-response","44","48974","0.0-1.0-43.0","",""
"null","sound/msl/cat.wav","null","audio-keyboard-response","45","49484","0.0-1.0-44.0","",""
"null","sound/msl/frog.wav","null","audio-keyboard-response","46","49995","0.0-1.0-45.0","",""
"null","sound/msl/ding.wav","null","audio-keyboard-response","47","50514","0.0-1.0-46.0","",""
"null","sound/msl/dog.wav","null","audio-keyboard-response","48","51035","0.0-1.0-47.0","",""
"null","sound/msl/boing.wav","null","audio-keyboard-response","49","51544","0.0-1.0-48.0","",""
"null","sound/msl/Water.wav","null","audio-keyboard-response","50","52064","0.0-1.0-49.0","",""
"null","sound/msl/duck.wav","null","audio-keyboard-response","51","52584","0.0-1.0-50.0","",""
"null","sound/msl/bird.wav","null","audio-keyboard-response","52","53105","0.0-1.0-51.0","",""
"null","sound/msl/goat.wav","null","audio-keyboard-response","53","53655","0.0-1.0-52.0","",""
"null","sound/msl/cow.wav","null","audio-keyboard-response","54","54165","0.0-1.0-53.0","",""
"null","sound/msl/frog.wav","null","audio-keyboard-response","55","54675","0.0-1.0-54.0","",""
"null","sound/msl/ding.wav","null","audio-keyboard-response","56","55194","0.0-1.0-55.0","",""
"null","sound/msl/dog.wav","null","audio-keyboard-response","57","55715","0.0-1.0-56.0","",""
"null","sound/msl/boing.wav","null","audio-keyboard-response","58","56225","0.0-1.0-57.0","",""
"null","sound/msl/Water.wav","null","audio-keyboard-response","59","56745","0.0-1.0-58.0","",""
"null","sound/msl/duck.wav","null","audio-keyboard-response","60","57266","0.0-1.0-59.0","",""
"null","sound/msl/door_bell.wav","null","audio-keyboard-response","61","57785","0.0-1.0-60.0","",""
"null","sound/msl/door.wav","null","audio-keyboard-response","62","58295","0.0-1.0-61.0","",""
"null","sound/msl/slide_whistle.wav","null","audio-keyboard-response","63","58805","0.0-1.0-62.0","",""
"null","sound/msl/clock.wav","null","audio-keyboard-response","64","59366","0.0-1.0-63.0","",""
"null","sound/msl/organ.wav","null","audio-keyboard-response","65","59876","0.0-1.0-64.0","",""
"null","sound/msl/cat.wav","null","audio-keyboard-response","66","60386","0.0-1.0-65.0","",""
"null","sound/msl/frog.wav","null","audio-keyboard-response","67","60906","0.0-1.0-66.0","",""
"null","sound/msl/ding.wav","null","audio-keyboard-response","68","61426","0.0-1.0-67.0","",""
"null","sound/msl/dog.wav","null","audio-keyboard-response","69","61946","0.0-1.0-68.0","",""
"null","sound/msl/bird.wav","null","audio-keyboard-response","70","62466","0.0-1.0-69.0","",""
"null","sound/msl/goat.wav","null","audio-keyboard-response","71","63016","0.0-1.0-70.0","",""
"null","sound/msl/cow.wav","null","audio-keyboard-response","72","63526","0.0-1.0-71.0","",""
"null","sound/msl/boing.wav","null","audio-keyboard-response","73","64037","0.0-1.0-72.0","",""
"null","sound/msl/Water.wav","null","audio-keyboard-response","74","64591","0.0-1.0-73.0","",""
"null","sound/msl/duck.wav","null","audio-keyboard-response","75","65107","0.0-1.0-74.0","",""
"null","sound/msl/door_bell.wav","null","audio-keyboard-response","76","65627","0.0-1.0-75.0","",""
"null","sound/msl/door.wav","null","audio-keyboard-response","77","66136","0.0-1.0-76.0","",""
"null","sound/msl/slide_whistle.wav","null","audio-keyboard-response","78","66647","0.0-1.0-77.0","",""
"null","sound/msl/boing.wav","null","audio-keyboard-response","79","67157","0.0-1.0-78.0","",""
"null","sound/msl/Water.wav","null","audio-keyboard-response","80","67676","0.0-1.0-79.0","",""
"null","sound/msl/duck.wav","null","audio-keyboard-response","81","68196","0.0-1.0-80.0","",""
"null","sound/msl/clock.wav","null","audio-keyboard-response","82","68758","0.0-1.0-81.0","",""
"null","sound/msl/organ.wav","null","audio-keyboard-response","83","69266","0.0-1.0-82.0","",""
"null","sound/msl/cat.wav","null","audio-keyboard-response","84","69777","0.0-1.0-83.0","",""
"null","sound/msl/bird.wav","null","audio-keyboard-response","85","70287","0.0-1.0-84.0","",""
"null","sound/msl/goat.wav","null","audio-keyboard-response","86","70837","0.0-1.0-85.0","",""
"null","sound/msl/cow.wav","null","audio-keyboard-response","87","71358","0.0-1.0-86.0","",""
"null","sound/msl/frog.wav","null","audio-keyboard-response","88","71877","0.0-1.0-87.0","",""
"null","sound/msl/ding.wav","null","audio-keyboard-response","89","72397","0.0-1.0-88.0","",""
"null","sound/msl/dog.wav","null","audio-keyboard-response","90","72913","0.0-1.0-89.0","",""
"null","sound/msl/clock.wav","null","audio-keyboard-response","91","73473","0.0-1.0-90.0","",""
"null","sound/msl/organ.wav","null","audio-keyboard-response","92","73983","0.0-1.0-91.0","",""
"null","sound/msl/cat.wav","null","audio-keyboard-response","93","74493","0.0-1.0-92.0","",""
"null","sound/msl/door_bell.wav","null","audio-keyboard-response","94","75002","0.0-1.0-93.0","",""
"null","sound/msl/door.wav","null","audio-keyboard-response","95","75513","0.0-1.0-94.0","",""
"null","sound/msl/slide_whistle.wav","null","audio-keyboard-response","96","76033","0.0-1.0-95.0","",""
"null","sound/msl/boing.wav","null","audio-keyboard-response","97","76542","0.0-1.0-96.0","",""
"null","sound/msl/Water.wav","null","audio-keyboard-response","98","77062","0.0-1.0-97.0","",""
"null","sound/msl/duck.wav","null","audio-keyboard-response","99","77584","0.0-1.0-98.0","",""
"null","sound/msl/frog.wav","null","audio-keyboard-response","100","78103","0.0-1.0-99.0","",""
"null","sound/msl/ding.wav","null","audio-keyboard-response","101","78624","0.0-1.0-100.0","",""
"null","sound/msl/dog.wav","null","audio-keyboard-response","102","79143","0.0-1.0-101.0","",""
"null","sound/msl/clock.wav","null","audio-keyboard-response","103","79703","0.0-1.0-102.0","",""
"null","sound/msl/organ.wav","null","audio-keyboard-response","104","80213","0.0-1.0-103.0","",""
"null","sound/msl/cat.wav","null","audio-keyboard-response","105","80724","0.0-1.0-104.0","",""
"null","sound/msl/bird.wav","null","audio-keyboard-response","106","81234","0.0-1.0-105.0","",""
"null","sound/msl/goat.wav","null","audio-keyboard-response","107","81784","0.0-1.0-106.0","",""
"null","sound/msl/cow.wav","null","audio-keyboard-response","108","82303","0.0-1.0-107.0","",""
"null","sound/msl/frog.wav","null","audio-keyboard-response","109","82824","0.0-1.0-108.0","",""
"null","sound/msl/ding.wav","null","audio-keyboard-response","110","83344","0.0-1.0-109.0","",""
"null","sound/msl/dog.wav","null","audio-keyboard-response","111","83864","0.0-1.0-110.0","",""
"null","sound/msl/door_bell.wav","null","audio-keyboard-response","112","84384","0.0-1.0-111.0","",""
"null","sound/msl/door.wav","null","audio-keyboard-response","113","84894","0.0-1.0-112.0","",""
"null","sound/msl/slide_whistle.wav","null","audio-keyboard-response","114","85404","0.0-1.0-113.0","",""
"null","sound/msl/clock.wav","null","audio-keyboard-response","115","85965","0.0-1.0-114.0","",""
"null","sound/msl/organ.wav","null","audio-keyboard-response","116","86475","0.0-1.0-115.0","",""
"null","sound/msl/cat.wav","null","audio-keyboard-response","117","86984","0.0-1.0-116.0","",""
"null","sound/msl/boing.wav","null","audio-keyboard-response","118","87494","0.0-1.0-117.0","",""
"null","sound/msl/Water.wav","null","audio-keyboard-response","119","88014","0.0-1.0-118.0","",""
"null","sound/msl/duck.wav","null","audio-keyboard-response","120","88525","0.0-1.0-119.0","",""
"null","sound/msl/bird.wav","null","audio-keyboard-response","121","89035","0.0-1.0-120.0","",""
"null","sound/msl/goat.wav","null","audio-keyboard-response","122","89585","0.0-1.0-121.0","",""
"null","sound/msl/cow.wav","null","audio-keyboard-response","123","90105","0.0-1.0-122.0","",""
"null","sound/msl/frog.wav","null","audio-keyboard-response","124","90625","0.0-1.0-123.0","",""
"null","sound/msl/ding.wav","null","audio-keyboard-response","125","91145","0.0-1.0-124.0","",""
"null","sound/msl/dog.wav","null","audio-keyboard-response","126","91665","0.0-1.0-125.0","",""
"null","sound/msl/clock.wav","null","audio-keyboard-response","127","92225","0.0-1.0-126.0","",""
"null","sound/msl/organ.wav","null","audio-keyboard-response","128","92734","0.0-1.0-127.0","",""
"null","sound/msl/cat.wav","null","audio-keyboard-response","129","93245","0.0-1.0-128.0","",""
"null","sound/msl/door_bell.wav","null","audio-keyboard-response","130","93755","0.0-1.0-129.0","",""
"null","sound/msl/door.wav","null","audio-keyboard-response","131","94265","0.0-1.0-130.0","",""
"null","sound/msl/slide_whistle.wav","null","audio-keyboard-response","132","94785","0.0-1.0-131.0","",""
"null","sound/msl/frog.wav","null","audio-keyboard-response","133","95306","0.0-1.0-132.0","",""
"null","sound/msl/ding.wav","null","audio-keyboard-response","134","95826","0.0-1.0-133.0","",""
"null","sound/msl/dog.wav","null","audio-keyboard-response","135","96346","0.0-1.0-134.0","",""
"null","sound/msl/boing.wav","null","audio-keyboard-response","136","96855","0.0-1.0-135.0","",""
"null","sound/msl/Water.wav","null","audio-keyboard-response","137","97376","0.0-1.0-136.0","",""
"null","sound/msl/duck.wav","null","audio-keyboard-response","138","97885","0.0-1.0-137.0","",""
"null","sound/msl/door_bell.wav","null","audio-keyboard-response","139","98396","0.0-1.0-138.0","",""
"null","sound/msl/door.wav","null","audio-keyboard-response","140","98906","0.0-1.0-139.0","",""
"null","sound/msl/slide_whistle.wav","null","audio-keyboard-response","141","99426","0.0-1.0-140.0","",""
"null","sound/msl/bird.wav","null","audio-keyboard-response","142","99946","0.0-1.0-141.0","",""
"null","sound/msl/goat.wav","null","audio-keyboard-response","143","100496","0.0-1.0-142.0","",""
"null","sound/msl/cow.wav","null","audio-keyboard-response","144","101006","0.0-1.0-143.0","",""
"null","sound/msl/clock.wav","null","audio-keyboard-response","145","101566","0.0-1.0-144.0","",""
"null","sound/msl/organ.wav","null","audio-keyboard-response","146","102076","0.0-1.0-145.0","",""
"null","sound/msl/cat.wav","null","audio-keyboard-response","147","102586","0.0-1.0-146.0","",""
"null","sound/msl/boing.wav","null","audio-keyboard-response","148","103097","0.0-1.0-147.0","",""
"null","sound/msl/Water.wav","null","audio-keyboard-response","149","103617","0.0-1.0-148.0","",""
"null","sound/msl/duck.wav","null","audio-keyboard-response","150","104126","0.0-1.0-149.0","",""
"null","sound/msl/bird.wav","null","audio-keyboard-response","151","104637","0.0-1.0-150.0","",""
"null","sound/msl/goat.wav","null","audio-keyboard-response","152","105186","0.0-1.0-151.0","",""
"null","sound/msl/cow.wav","null","audio-keyboard-response","153","105707","0.0-1.0-152.0","",""
"null","sound/msl/frog.wav","null","audio-keyboard-response","154","106227","0.0-1.0-153.0","",""
"null","sound/msl/ding.wav","null","audio-keyboard-response","155","106747","0.0-1.0-154.0","",""
"null","sound/msl/dog.wav","null","audio-keyboard-response","156","107266","0.0-1.0-155.0","",""
"null","sound/msl/door_bell.wav","null","audio-keyboard-response","157","107787","0.0-1.0-156.0","",""
"null","sound/msl/door.wav","null","audio-keyboard-response","158","108297","0.0-1.0-157.0","",""
"null","sound/msl/slide_whistle.wav","null","audio-keyboard-response","159","108807","0.0-1.0-158.0","",""
"null","sound/msl/clock.wav","null","audio-keyboard-response","160","109367","0.0-1.0-159.0","",""
"null","sound/msl/organ.wav","null","audio-keyboard-response","161","109877","0.0-1.0-160.0","",""
"null","sound/msl/cat.wav","null","audio-keyboard-response","162","110387","0.0-1.0-161.0","",""
"null","sound/msl/frog.wav","null","audio-keyboard-response","163","110907","0.0-1.0-162.0","",""
"null","sound/msl/ding.wav","null","audio-keyboard-response","164","111427","0.0-1.0-163.0","",""
"null","sound/msl/dog.wav","null","audio-keyboard-response","165","111948","0.0-1.0-164.0","",""
"null","sound/msl/door_bell.wav","null","audio-keyboard-response","166","112468","0.0-1.0-165.0","",""
"null","sound/msl/door.wav","null","audio-keyboard-response","167","112977","0.0-1.0-166.0","",""
"null","sound/msl/slide_whistle.wav","null","audio-keyboard-response","168","113487","0.0-1.0-167.0","",""
"null","sound/msl/bird.wav","null","audio-keyboard-response","169","113992","0.0-1.0-168.0","",""
"null","sound/msl/goat.wav","null","audio-keyboard-response","170","114543","0.0-1.0-169.0","",""
"null","sound/msl/cow.wav","null","audio-keyboard-response","171","115063","0.0-1.0-170.0","",""
"null","sound/msl/boing.wav","null","audio-keyboard-response","172","115573","0.0-1.0-171.0","",""
"null","sound/msl/Water.wav","null","audio-keyboard-response","173","116093","0.0-1.0-172.0","",""
"null","sound/msl/duck.wav","null","audio-keyboard-response","174","116603","0.0-1.0-173.0","",""
"null","sound/msl/clock.wav","null","audio-keyboard-response","175","117163","0.0-1.0-174.0","",""
"null","sound/msl/organ.wav","null","audio-keyboard-response","176","117673","0.0-1.0-175.0","",""
"null","sound/msl/cat.wav","null","audio-keyboard-response","177","118183","0.0-1.0-176.0","",""
"null","sound/msl/frog.wav","null","audio-keyboard-response","178","118703","0.0-1.0-177.0","",""
"null","sound/msl/ding.wav","null","audio-keyboard-response","179","119223","0.0-1.0-178.0","",""
"null","sound/msl/dog.wav","null","audio-keyboard-response","180","119743","0.0-1.0-179.0","",""
"null","sound/msl/boing.wav","null","audio-keyboard-response","181","120253","0.0-1.0-180.0","",""
"null","sound/msl/Water.wav","null","audio-keyboard-response","182","120774","0.0-1.0-181.0","",""
"null","sound/msl/duck.wav","null","audio-keyboard-response","183","121283","0.0-1.0-182.0","",""
"null","sound/msl/door_bell.wav","null","audio-keyboard-response","184","121794","0.0-1.0-183.0","",""
"null","sound/msl/door.wav","null","audio-keyboard-response","185","122304","0.0-1.0-184.0","",""
"null","sound/msl/slide_whistle.wav","null","audio-keyboard-response","186","122825","0.0-1.0-185.0","",""
"null","sound/msl/bird.wav","null","audio-keyboard-response","187","123344","0.0-1.0-186.0","",""
"null","sound/msl/goat.wav","null","audio-keyboard-response","188","123894","0.0-1.0-187.0","",""
"null","sound/msl/cow.wav","null","audio-keyboard-response","189","124404","0.0-1.0-188.0","",""
"null","sound/msl/clock.wav","null","audio-keyboard-response","190","124964","0.0-1.0-189.0","",""
"null","sound/msl/organ.wav","null","audio-keyboard-response","191","125474","0.0-1.0-190.0","",""
"null","sound/msl/cat.wav","null","audio-keyboard-response","192","125984","0.0-1.0-191.0","",""
"null","sound/msl/frog.wav","null","audio-keyboard-response","193","126505","0.0-1.0-192.0","",""
"null","sound/msl/ding.wav","null","audio-keyboard-response","194","127024","0.0-1.0-193.0","",""
"null","sound/msl/dog.wav","null","audio-keyboard-response","195","127544","0.0-1.0-194.0","",""
"null","sound/msl/boing.wav","null","audio-keyboard-response","196","128054","0.0-1.0-195.0","",""
"null","sound/msl/Water.wav","null","audio-keyboard-response","197","128575","0.0-1.0-196.0","",""
"null","sound/msl/duck.wav","null","audio-keyboard-response","198","129086","0.0-1.0-197.0","",""
"null","sound/msl/bird.wav","null","audio-keyboard-response","199","129595","0.0-1.0-198.0","",""
"null","sound/msl/goat.wav","null","audio-keyboard-response","200","130145","0.0-1.0-199.0","",""
"null","sound/msl/cow.wav","null","audio-keyboard-response","201","130666","0.0-1.0-200.0","",""
"null","sound/msl/door_bell.wav","null","audio-keyboard-response","202","131185","0.0-1.0-201.0","",""
"null","sound/msl/door.wav","null","audio-keyboard-response","203","131695","0.0-1.0-202.0","",""
"null","sound/msl/slide_whistle.wav","null","audio-keyboard-response","204","132205","0.0-1.0-203.0","",""
"null","sound/msl/clock.wav","null","audio-keyboard-response","205","132765","0.0-1.0-204.0","",""
"null","sound/msl/organ.wav","null","audio-keyboard-response","206","133277","0.0-1.0-205.0","",""
"null","sound/msl/cat.wav","null","audio-keyboard-response","207","133786","0.0-1.0-206.0","",""
"null","sound/msl/frog.wav","null","audio-keyboard-response","208","134305","0.0-1.0-207.0","",""
"null","sound/msl/ding.wav","null","audio-keyboard-response","209","134826","0.0-1.0-208.0","",""
"null","sound/msl/dog.wav","null","audio-keyboard-response","210","135345","0.0-1.0-209.0","",""
"null","sound/msl/bird.wav","null","audio-keyboard-response","211","135866","0.0-1.0-210.0","",""
"null","sound/msl/goat.wav","null","audio-keyboard-response","212","136416","0.0-1.0-211.0","",""
"null","sound/msl/cow.wav","null","audio-keyboard-response","213","136925","0.0-1.0-212.0","",""
"null","sound/msl/clock.wav","null","audio-keyboard-response","214","137485","0.0-1.0-213.0","",""
"null","sound/msl/organ.wav","null","audio-keyboard-response","215","137996","0.0-1.0-214.0","",""
"null","sound/msl/cat.wav","null","audio-keyboard-response","216","138507","0.0-1.0-215.0","",""
"null","sound/msl/boing.wav","null","audio-keyboard-response","217","139016","0.0-1.0-216.0","",""
"null","sound/msl/Water.wav","null","audio-keyboard-response","218","139537","0.0-1.0-217.0","",""
"null","sound/msl/duck.wav","null","audio-keyboard-response","219","140046","0.0-1.0-218.0","",""
"null","sound/msl/door_bell.wav","null","audio-keyboard-response","220","140556","0.0-1.0-219.0","",""
"null","sound/msl/door.wav","null","audio-keyboard-response","221","141066","0.0-1.0-220.0","",""
"null","sound/msl/slide_whistle.wav","null","audio-keyboard-response","222","141587","0.0-1.0-221.0","",""
"null","sound/msl/frog.wav","null","audio-keyboard-response","223","142107","0.0-1.0-222.0","",""
"null","sound/msl/ding.wav","null","audio-keyboard-response","224","142627","0.0-1.0-223.0","",""
"null","sound/msl/dog.wav","null","audio-keyboard-response","225","143146","0.0-1.0-224.0","",""
"null","sound/msl/boing.wav","null","audio-keyboard-response","226","143657","0.0-1.0-225.0","",""
"null","sound/msl/Water.wav","null","audio-keyboard-response","227","144177","0.0-1.0-226.0","",""
"null","sound/msl/duck.wav","null","audio-keyboard-response","228","144687","0.0-1.0-227.0","",""
"null","sound/msl/clock.wav","null","audio-keyboard-response","229","145247","0.0-1.0-228.0","",""
"null","sound/msl/organ.wav","null","audio-keyboard-response","230","145756","0.0-1.0-229.0","",""
"null","sound/msl/cat.wav","null","audio-keyboard-response","231","146266","0.0-1.0-230.0","",""
"null","sound/msl/boing.wav","null","audio-keyboard-response","232","146777","0.0-1.0-231.0","",""
"null","sound/msl/Water.wav","null","audio-keyboard-response","233","147297","0.0-1.0-232.0","",""
"null","sound/msl/duck.wav","null","audio-keyboard-response","234","147807","0.0-1.0-233.0","",""
"null","sound/msl/frog.wav","null","audio-keyboard-response","235","148317","0.0-1.0-234.0","",""
"null","sound/msl/ding.wav","null","audio-keyboard-response","236","148837","0.0-1.0-235.0","",""
"null","sound/msl/dog.wav","null","audio-keyboard-response","237","149357","0.0-1.0-236.0","",""
"null","sound/msl/door_bell.wav","null","audio-keyboard-response","238","149877","0.0-1.0-237.0","",""
"null","sound/msl/door.wav","null","audio-keyboard-response","239","150388","0.0-1.0-238.0","",""
"null","sound/msl/slide_whistle.wav","null","audio-keyboard-response","240","150908","0.0-1.0-239.0","",""
"null","sound/msl/bird.wav","null","audio-keyboard-response","241","151427","0.0-1.0-240.0","",""
"null","sound/msl/goat.wav","null","audio-keyboard-response","242","151978","0.0-1.0-241.0","",""
"null","sound/msl/cow.wav","null","audio-keyboard-response","243","152488","0.0-1.0-242.0","",""
"null","sound/msl/clock.wav","null","audio-keyboard-response","244","153048","0.0-1.0-243.0","",""
"null","sound/msl/organ.wav","null","audio-keyboard-response","245","153558","0.0-1.0-244.0","",""
"null","sound/msl/cat.wav","null","audio-keyboard-response","246","154068","0.0-1.0-245.0","",""
"null","sound/msl/frog.wav","null","audio-keyboard-response","247","154584","0.0-1.0-246.0","",""
"null","sound/msl/ding.wav","null","audio-keyboard-response","248","155103","0.0-1.0-247.0","",""
"null","sound/msl/dog.wav","null","audio-keyboard-response","249","155623","0.0-1.0-248.0","",""
"null","sound/msl/door_bell.wav","null","audio-keyboard-response","250","156143","0.0-1.0-249.0","",""
"null","sound/msl/door.wav","null","audio-keyboard-response","251","156653","0.0-1.0-250.0","",""
"null","sound/msl/slide_whistle.wav","null","audio-keyboard-response","252","157164","0.0-1.0-251.0","",""
"null","sound/msl/bird.wav","null","audio-keyboard-response","253","157674","0.0-1.0-252.0","",""
"null","sound/msl/goat.wav","null","audio-keyboard-response","254","158223","0.0-1.0-253.0","",""
"null","sound/msl/cow.wav","null","audio-keyboard-response","255","158743","0.0-1.0-254.0","",""
"null","sound/msl/boing.wav","null","audio-keyboard-response","256","159254","0.0-1.0-255.0","",""
"null","sound/msl/Water.wav","null","audio-keyboard-response","257","159773","0.0-1.0-256.0","",""
"null","sound/msl/duck.wav","null","audio-keyboard-response","258","160283","0.0-1.0-257.0","",""
"null","sound/msl/clock.wav","null","audio-keyboard-response","259","160844","0.0-1.0-258.0","",""
"null","sound/msl/organ.wav","null","audio-keyboard-response","260","161354","0.0-1.0-259.0","",""
"null","sound/msl/cat.wav","null","audio-keyboard-response","261","161864","0.0-1.0-260.0","",""
"null","sound/msl/bird.wav","null","audio-keyboard-response","262","162384","0.0-1.0-261.0","",""
"null","sound/msl/goat.wav","null","audio-keyboard-response","263","162934","0.0-1.0-262.0","",""
"null","sound/msl/cow.wav","null","audio-keyboard-response","264","163444","0.0-1.0-263.0","",""
"null","sound/msl/door_bell.wav","null","audio-keyboard-response","265","163954","0.0-1.0-264.0","",""
"null","sound/msl/door.wav","null","audio-keyboard-response","266","164464","0.0-1.0-265.0","",""
"null","sound/msl/slide_whistle.wav","null","audio-keyboard-response","267","164984","0.0-1.0-266.0","",""
"null","sound/msl/boing.wav","null","audio-keyboard-response","268","165494","0.0-1.0-267.0","",""
"null","sound/msl/Water.wav","null","audio-keyboard-response","269","166015","0.0-1.0-268.0","",""
"null","sound/msl/duck.wav","null","audio-keyboard-response","270","166525","0.0-1.0-269.0","",""
"null","sound/msl/frog.wav","null","audio-keyboard-response","271","167035","0.0-1.0-270.0","",""
"null","sound/msl/ding.wav","null","audio-keyboard-response","272","167555","0.0-1.0-271.0","",""
"null","sound/msl/dog.wav","null","audio-keyboard-response","273","168074","0.0-1.0-272.0","",""
"null","sound/msl/clock.wav","null","audio-keyboard-response","274","168635","0.0-1.0-273.0","",""
"null","sound/msl/organ.wav","null","audio-keyboard-response","275","169144","0.0-1.0-274.0","",""
"null","sound/msl/cat.wav","null","audio-keyboard-response","276","169655","0.0-1.0-275.0","",""
"null","sound/msl/bird.wav","null","audio-keyboard-response","277","170165","0.0-1.0-276.0","",""
"null","sound/msl/goat.wav","null","audio-keyboard-response","278","170715","0.0-1.0-277.0","",""
"null","sound/msl/cow.wav","null","audio-keyboard-response","279","171236","0.0-1.0-278.0","",""
"null","sound/msl/door_bell.wav","null","audio-keyboard-response","280","171755","0.0-1.0-279.0","",""
"null","sound/msl/door.wav","null","audio-keyboard-response","281","172265","0.0-1.0-280.0","",""
"null","sound/msl/slide_whistle.wav","null","audio-keyboard-response","282","172786","0.0-1.0-281.0","",""
"null","sound/msl/frog.wav","null","audio-keyboard-response","283","173306","0.0-1.0-282.0","",""
"null","sound/msl/ding.wav","null","audio-keyboard-response","284","173826","0.0-1.0-283.0","",""
"null","sound/msl/dog.wav","null","audio-keyboard-response","285","174346","0.0-1.0-284.0","",""
"null","sound/msl/boing.wav","null","audio-keyboard-response","286","174856","0.0-1.0-285.0","",""
"null","sound/msl/Water.wav","null","audio-keyboard-response","287","175376","0.0-1.0-286.0","",""
"null","sound/msl/duck.wav","null","audio-keyboard-response","288","175885","0.0-1.0-287.0","",""
"null","sound/msl/clock.wav","null","audio-keyboard-response","289","176446","0.0-1.0-288.0","",""
"null","sound/msl/organ.wav","null","audio-keyboard-response","290","176956","0.0-1.0-289.0","",""
"null","sound/msl/cat.wav","null","audio-keyboard-response","291","177466","0.0-1.0-290.0","",""
"null","sound/msl/door_bell.wav","null","audio-keyboard-response","292","177986","0.0-1.0-291.0","",""
"null","sound/msl/door.wav","null","audio-keyboard-response","293","178496","0.0-1.0-292.0","",""
"null","sound/msl/slide_whistle.wav","null","audio-keyboard-response","294","179006","0.0-1.0-293.0","",""
"null","sound/msl/bird.wav","null","audio-keyboard-response","295","179516","0.0-1.0-294.0","",""
"null","sound/msl/goat.wav","null","audio-keyboard-response","296","180066","0.0-1.0-295.0","",""
"null","sound/msl/cow.wav","null","audio-keyboard-response","297","180587","0.0-1.0-296.0","",""
"null","sound/msl/clock.wav","null","audio-keyboard-response","298","181146","0.0-1.0-297.0","",""
"null","sound/msl/organ.wav","null","audio-keyboard-response","299","181656","0.0-1.0-298.0","",""
"null","sound/msl/cat.wav","null","audio-keyboard-response","300","182167","0.0-1.0-299.0","",""
"null","sound/msl/frog.wav","null","audio-keyboard-response","301","182676","0.0-1.0-300.0","",""
"null","sound/msl/ding.wav","null","audio-keyboard-response","302","183197","0.0-1.0-301.0","",""
"null","sound/msl/dog.wav","null","audio-keyboard-response","303","183717","0.0-1.0-302.0","",""
"null","sound/msl/door_bell.wav","null","audio-keyboard-response","304","184237","0.0-1.0-303.0","",""
"null","sound/msl/door.wav","null","audio-keyboard-response","305","184747","0.0-1.0-304.0","",""
"null","sound/msl/slide_whistle.wav","null","audio-keyboard-response","306","185267","0.0-1.0-305.0","",""
"null","sound/msl/boing.wav","null","audio-keyboard-response","307","185777","0.0-1.0-306.0","",""
"null","sound/msl/Water.wav","null","audio-keyboard-response","308","186297","0.0-1.0-307.0","",""
"null","sound/msl/duck.wav","null","audio-keyboard-response","309","186807","0.0-1.0-308.0","",""
"null","sound/msl/bird.wav","null","audio-keyboard-response","310","187317","0.0-1.0-309.0","",""
"null","sound/msl/goat.wav","null","audio-keyboard-response","311","187867","0.0-1.0-310.0","",""
"null","sound/msl/cow.wav","null","audio-keyboard-response","312","188388","0.0-1.0-311.0","",""
"null","sound/msl/clock.wav","null","audio-keyboard-response","313","188947","0.0-1.0-312.0","",""
"null","sound/msl/organ.wav","null","audio-keyboard-response","314","189458","0.0-1.0-313.0","",""
"null","sound/msl/cat.wav","null","audio-keyboard-response","315","189968","0.0-1.0-314.0","",""
"null","sound/msl/frog.wav","null","audio-keyboard-response","316","190477","0.0-1.0-315.0","",""
"null","sound/msl/ding.wav","null","audio-keyboard-response","317","190997","0.0-1.0-316.0","",""
"null","sound/msl/dog.wav","null","audio-keyboard-response","318","191518","0.0-1.0-317.0","",""
"null","sound/msl/door_bell.wav","null","audio-keyboard-response","319","192038","0.0-1.0-318.0","",""
"null","sound/msl/door.wav","null","audio-keyboard-response","320","192548","0.0-1.0-319.0","",""
"null","sound/msl/slide_whistle.wav","null","audio-keyboard-response","321","193068","0.0-1.0-320.0","",""
"null","sound/msl/bird.wav","null","audio-keyboard-response","322","193589","0.0-1.0-321.0","",""
"null","sound/msl/goat.wav","null","audio-keyboard-response","323","194139","0.0-1.0-322.0","",""
"null","sound/msl/cow.wav","null","audio-keyboard-response","324","194648","0.0-1.0-323.0","",""
"null","sound/msl/frog.wav","null","audio-keyboard-response","325","195153","0.0-1.0-324.0","",""
"null","sound/msl/ding.wav","null","audio-keyboard-response","326","195674","0.0-1.0-325.0","",""
"null","sound/msl/dog.wav","null","audio-keyboard-response","327","196195","0.0-1.0-326.0","",""
"null","sound/msl/boing.wav","null","audio-keyboard-response","328","196704","0.0-1.0-327.0","",""
"null","sound/msl/Water.wav","null","audio-keyboard-response","329","197224","0.0-1.0-328.0","",""
"null","sound/msl/duck.wav","null","audio-keyboard-response","330","197745","0.0-1.0-329.0","",""
"null","sound/msl/clock.wav","null","audio-keyboard-response","331","198304","0.0-1.0-330.0","",""
"null","sound/msl/organ.wav","null","audio-keyboard-response","332","198814","0.0-1.0-331.0","",""
"null","sound/msl/cat.wav","null","audio-keyboard-response","333","199324","0.0-1.0-332.0","",""
"null","sound/msl/door_bell.wav","null","audio-keyboard-response","334","199834","0.0-1.0-333.0","",""
"null","sound/msl/door.wav","null","audio-keyboard-response","335","200344","0.0-1.0-334.0","",""
"null","sound/msl/slide_whistle.wav","null","audio-keyboard-response","336","200864","0.0-1.0-335.0","",""
"null","sound/msl/boing.wav","null","audio-keyboard-response","337","201375","0.0-1.0-336.0","",""
"null","sound/msl/Water.wav","null","audio-keyboard-response","338","201894","0.0-1.0-337.0","",""
"null","sound/msl/duck.wav","null","audio-keyboard-response","339","202405","0.0-1.0-338.0","",""
"null","sound/msl/bird.wav","null","audio-keyboard-response","340","202916","0.0-1.0-339.0","",""
"null","sound/msl/goat.wav","null","audio-keyboard-response","341","203465","0.0-1.0-340.0","",""
"null","sound/msl/cow.wav","null","audio-keyboard-response","342","203985","0.0-1.0-341.0","",""
"null","sound/msl/door_bell.wav","null","audio-keyboard-response","343","204504","0.0-1.0-342.0","",""
"null","sound/msl/door.wav","null","audio-keyboard-response","344","205015","0.0-1.0-343.0","",""
"null","sound/msl/slide_whistle.wav","null","audio-keyboard-response","345","205525","0.0-1.0-344.0","",""
"null","sound/msl/bird.wav","null","audio-keyboard-response","346","206035","0.0-1.0-345.0","",""
"null","sound/msl/goat.wav","null","audio-keyboard-response","347","206585","0.0-1.0-346.0","",""
"null","sound/msl/cow.wav","null","audio-keyboard-response","348","207105","0.0-1.0-347.0","",""
"null","sound/msl/boing.wav","null","audio-keyboard-response","349","207615","0.0-1.0-348.0","",""
"null","sound/msl/Water.wav","null","audio-keyboard-response","350","208135","0.0-1.0-349.0","",""
"null","sound/msl/duck.wav","null","audio-keyboard-response","351","208645","0.0-1.0-350.0","",""
"null","sound/msl/clock.wav","null","audio-keyboard-response","352","209205","0.0-1.0-351.0","",""
"null","sound/msl/organ.wav","null","audio-keyboard-response","353","209715","0.0-1.0-352.0","",""
"null","sound/msl/cat.wav","null","audio-keyboard-response","354","210226","0.0-1.0-353.0","",""
"null","sound/msl/door_bell.wav","null","audio-keyboard-response","355","210746","0.0-1.0-354.0","",""
"null","sound/msl/door.wav","null","audio-keyboard-response","356","211256","0.0-1.0-355.0","",""
"null","sound/msl/slide_whistle.wav","null","audio-keyboard-response","357","211766","0.0-1.0-356.0","",""
"null","sound/msl/bird.wav","null","audio-keyboard-response","358","212276","0.0-1.0-357.0","",""
"null","sound/msl/goat.wav","null","audio-keyboard-response","359","212825","0.0-1.0-358.0","",""
"null","sound/msl/cow.wav","null","audio-keyboard-response","360","213346","0.0-1.0-359.0","",""
"7654","Instructions2-eng.png","49","image-keyboard-response","361","221002","0.0-2.0","",""
"null","sound/msl/boing.wav","null","audio-keyboard-response","362","221507","0.0-3.0-0.0","",""
"null","sound/msl/door.wav","null","audio-keyboard-response","363","222017","0.0-3.0-1.0","",""
"null","sound/msl/cat.wav","null","audio-keyboard-response","364","222527","0.0-3.0-2.0","",""
"null","sound/asl/silence.wav","null","audio-keyboard-response","365","223030","0.0-3.0-3.0","",""
"null","sound/msl/bird.wav","null","audio-keyboard-response","366","223548","0.0-3.0-4.0","",""
"null","sound/msl/goat.wav","null","audio-keyboard-response","367","224098","0.0-3.0-5.0","",""
"null","sound/msl/cow.wav","null","audio-keyboard-response","368","224607","0.0-3.0-6.0","",""
"709","sound/asl/silence.wav","49","audio-keyboard-response","369","225328","0.0-3.0-7.0","false",""
"null","sound/msl/clock.wav","null","audio-keyboard-response","370","225888","0.0-4.0-0.0","",""
"null","sound/msl/organ.wav","null","audio-keyboard-response","371","226398","0.0-4.0-1.0","",""
"null","sound/msl/cat.wav","null","audio-keyboard-response","372","226907","0.0-4.0-2.0","",""
"null","sound/asl/silence.wav","null","audio-keyboard-response","373","227408","0.0-4.0-3.0","",""
"null","sound/msl/clock.wav","null","audio-keyboard-response","374","227968","0.0-4.0-4.0","",""
"null","sound/msl/goat.wav","null","audio-keyboard-response","375","228518","0.0-4.0-5.0","",""
"null","sound/msl/dog.wav","null","audio-keyboard-response","376","229038","0.0-4.0-6.0","",""
"400","sound/asl/silence.wav","49","audio-keyboard-response","377","229441","0.0-4.0-7.0","true",""
"null","sound/msl/door_bell.wav","null","audio-keyboard-response","378","229958","0.0-5.0-0.0","",""
"null","sound/msl/organ.wav","null","audio-keyboard-response","379","230469","0.0-5.0-1.0","",""
"null","sound/msl/cow.wav","null","audio-keyboard-response","380","230989","0.0-5.0-2.0","",""
"null","sound/asl/silence.wav","null","audio-keyboard-response","381","231490","0.0-5.0-3.0","",""
"null","sound/msl/boing.wav","null","audio-keyboard-response","382","231999","0.0-5.0-4.0","",""
"null","sound/msl/Water.wav","null","audio-keyboard-response","383","232518","0.0-5.0-5.0","",""
"null","sound/msl/duck.wav","null","audio-keyboard-response","384","233038","0.0-5.0-6.0","",""
"291","sound/asl/silence.wav","50","audio-keyboard-response","385","233333","0.0-5.0-7.0","true",""
"null","sound/msl/door_bell.wav","null","audio-keyboard-response","386","233839","0.0-6.0-0.0","",""
"null","sound/msl/door.wav","null","audio-keyboard-response","387","234349","0.0-6.0-1.0","",""
"null","sound/msl/slide_whistle.wav","null","audio-keyboard-response","388","234869","0.0-6.0-2.0","",""
"null","sound/asl/silence.wav","null","audio-keyboard-response","389","235370","0.0-6.0-3.0","",""
"null","sound/msl/clock.wav","null","audio-keyboard-response","390","235924","0.0-6.0-4.0","",""
"null","sound/msl/goat.wav","null","audio-keyboard-response","391","236474","0.0-6.0-5.0","",""
"null","sound/msl/dog.wav","null","audio-keyboard-response","392","236994","0.0-6.0-6.0","",""
"531","sound/asl/silence.wav","49","audio-keyboard-response","393","237529","0.0-6.0-7.0","true",""
"null","sound/msl/clock.wav","null","audio-keyboard-response","394","238084","0.0-7.0-0.0","",""
"null","sound/msl/goat.wav","null","audio-keyboard-response","395","238634","0.0-7.0-1.0","",""
"null","sound/msl/dog.wav","null","audio-keyboard-response","396","239154","0.0-7.0-2.0","",""
"null","sound/asl/silence.wav","null","audio-keyboard-response","397","239655","0.0-7.0-3.0","",""
"null","sound/msl/frog.wav","null","audio-keyboard-response","398","240164","0.0-7.0-4.0","",""
"null","sound/msl/ding.wav","null","audio-keyboard-response","399","240675","0.0-7.0-5.0","",""
"null","sound/msl/dog.wav","null","audio-keyboard-response","400","241195","0.0-7.0-6.0","",""
"760","sound/asl/silence.wav","49","audio-keyboard-response","401","241956","0.0-7.0-7.0","false",""
"null","sound/msl/boing.wav","null","audio-keyboard-response","402","242465","0.0-8.0-0.0","",""
"null","sound/msl/Water.wav","null","audio-keyboard-response","403","242985","0.0-8.0-1.0","",""
"null","sound/msl/duck.wav","null","audio-keyboard-response","404","243505","0.0-8.0-2.0","",""
"null","sound/asl/silence.wav","null","audio-keyboard-response","405","244006","0.0-8.0-3.0","",""
"null","sound/msl/bird.wav","null","audio-keyboard-response","406","244515","0.0-8.0-4.0","",""
"null","sound/msl/ding.wav","null","audio-keyboard-response","407","245035","0.0-8.0-5.0","",""
"null","sound/msl/duck.wav","null","audio-keyboard-response","408","245555","0.0-8.0-6.0","",""
"339","sound/asl/silence.wav","49","audio-keyboard-response","409","245899","0.0-8.0-7.0","true",""
"null","sound/msl/boing.wav","null","audio-keyboard-response","410","246405","0.0-9.0-0.0","",""
"null","sound/msl/door.wav","null","audio-keyboard-response","411","246915","0.0-9.0-1.0","",""
"null","sound/msl/cat.wav","null","audio-keyboard-response","412","247425","0.0-9.0-2.0","",""
"null","sound/asl/silence.wav","null","audio-keyboard-response","413","247926","0.0-9.0-3.0","",""
"null","sound/msl/boing.wav","null","audio-keyboard-response","414","248436","0.0-9.0-4.0","",""
"null","sound/msl/Water.wav","null","audio-keyboard-response","415","248956","0.0-9.0-5.0","",""
"null","sound/msl/duck.wav","null","audio-keyboard-response","416","249476","0.0-9.0-6.0","",""
"1939","sound/asl/silence.wav","49","audio-keyboard-response","417","251418","0.0-9.0-7.0","false",""
"null","sound/msl/frog.wav","null","audio-keyboard-response","418","251926","0.0-10.0-0.0","",""
"null","sound/msl/ding.wav","null","audio-keyboard-response","419","252436","0.0-10.0-1.0","",""
"null","sound/msl/dog.wav","null","audio-keyboard-response","420","252956","0.0-10.0-2.0","",""
"null","sound/asl/silence.wav","null","audio-keyboard-response","421","253458","0.0-10.0-3.0","",""
"null","sound/msl/boing.wav","null","audio-keyboard-response","422","253966","0.0-10.0-4.0","",""
"null","sound/msl/door.wav","null","audio-keyboard-response","423","254476","0.0-10.0-5.0","",""
"null","sound/msl/cat.wav","null","audio-keyboard-response","424","254986","0.0-10.0-6.0","",""
"949","sound/asl/silence.wav","49","audio-keyboard-response","425","255942","0.0-10.0-7.0","true",""
"null","sound/msl/door_bell.wav","null","audio-keyboard-response","426","256447","0.0-11.0-0.0","",""
"null","sound/msl/organ.wav","null","audio-keyboard-response","427","256957","0.0-11.0-1.0","",""
"null","sound/msl/cow.wav","null","audio-keyboard-response","428","257478","0.0-11.0-2.0","",""
"null","sound/asl/silence.wav","null","audio-keyboard-response","429","257982","0.0-11.0-3.0","",""
"null","sound/msl/frog.wav","null","audio-keyboard-response","430","258487","0.0-11.0-4.0","",""
"null","sound/msl/ding.wav","null","audio-keyboard-response","431","258997","0.0-11.0-5.0","",""
"null","sound/msl/dog.wav","null","audio-keyboard-response","432","259517","0.0-11.0-6.0","",""
"1579","sound/asl/silence.wav","49","audio-keyboard-response","433","261102","0.0-11.0-7.0","false",""
"null","sound/msl/boing.wav","null","audio-keyboard-response","434","261608","0.0-12.0-0.0","",""
"null","sound/msl/door.wav","null","audio-keyboard-response","435","262119","0.0-12.0-1.0","",""
"null","sound/msl/cat.wav","null","audio-keyboard-response","436","262628","0.0-12.0-2.0","",""
"null","sound/asl/silence.wav","null","audio-keyboard-response","437","263132","0.0-12.0-3.0","",""
"null","sound/msl/door_bell.wav","null","audio-keyboard-response","438","263637","0.0-12.0-4.0","",""
"null","sound/msl/door.wav","null","audio-keyboard-response","439","264148","0.0-12.0-5.0","",""
"null","sound/msl/slide_whistle.wav","null","audio-keyboard-response","440","264668","0.0-12.0-6.0","",""
"389","sound/asl/silence.wav","49","audio-keyboard-response","441","265061","0.0-12.0-7.0","false",""
"null","sound/msl/bird.wav","null","audio-keyboard-response","442","265568","0.0-13.0-0.0","",""
"null","sound/msl/goat.wav","null","audio-keyboard-response","443","266118","0.0-13.0-1.0","",""
"null","sound/msl/cow.wav","null","audio-keyboard-response","444","266638","0.0-13.0-2.0","",""
"null","sound/asl/silence.wav","null","audio-keyboard-response","445","267141","0.0-13.0-3.0","",""
"null","sound/msl/clock.wav","null","audio-keyboard-response","446","267698","0.0-13.0-4.0","",""
"null","sound/msl/goat.wav","null","audio-keyboard-response","447","268248","0.0-13.0-5.0","",""
"null","sound/msl/dog.wav","null","audio-keyboard-response","448","268758","0.0-13.0-6.0","",""
"349","sound/asl/silence.wav","49","audio-keyboard-response","449","269112","0.0-13.0-7.0","true",""
"null","sound/msl/frog.wav","null","audio-keyboard-response","450","269628","0.0-14.0-0.0","",""
"null","sound/msl/ding.wav","null","audio-keyboard-response","451","270149","0.0-14.0-1.0","",""
"null","sound/msl/dog.wav","null","audio-keyboard-response","452","270668","0.0-14.0-2.0","",""
"null","sound/asl/silence.wav","null","audio-keyboard-response","453","271170","0.0-14.0-3.0","",""
"null","sound/msl/frog.wav","null","audio-keyboard-response","454","271679","0.0-14.0-4.0","",""
"null","sound/msl/Water.wav","null","audio-keyboard-response","455","272199","0.0-14.0-5.0","",""
"null","sound/msl/slide_whistle.wav","null","audio-keyboard-response","456","272719","0.0-14.0-6.0","",""
"571","sound/asl/silence.wav","49","audio-keyboard-response","457","273290","0.0-14.0-7.0","true",""
"null","sound/msl/clock.wav","null","audio-keyboard-response","458","273848","0.0-15.0-0.0","",""
"null","sound/msl/organ.wav","null","audio-keyboard-response","459","274359","0.0-15.0-1.0","",""
"null","sound/msl/cat.wav","null","audio-keyboard-response","460","274869","0.0-15.0-2.0","",""
"null","sound/asl/silence.wav","null","audio-keyboard-response","461","275371","0.0-15.0-3.0","",""
"null","sound/msl/door_bell.wav","null","audio-keyboard-response","462","275879","0.0-15.0-4.0","",""
"null","sound/msl/organ.wav","null","audio-keyboard-response","463","276384","0.0-15.0-5.0","",""
"null","sound/msl/cow.wav","null","audio-keyboard-response","464","276904","0.0-15.0-6.0","",""
"1141","sound/asl/silence.wav","49","audio-keyboard-response","465","278054","0.0-15.0-7.0","true",""
"null","sound/msl/frog.wav","null","audio-keyboard-response","466","278564","0.0-16.0-0.0","",""
"null","sound/msl/Water.wav","null","audio-keyboard-response","467","279085","0.0-16.0-1.0","",""
"null","sound/msl/slide_whistle.wav","null","audio-keyboard-response","468","279595","0.0-16.0-2.0","",""
"null","sound/asl/silence.wav","null","audio-keyboard-response","469","280098","0.0-16.0-3.0","",""
"null","sound/msl/door_bell.wav","null","audio-keyboard-response","470","280605","0.0-16.0-4.0","",""
"null","sound/msl/door.wav","null","audio-keyboard-response","471","281115","0.0-16.0-5.0","",""
"null","sound/msl/slide_whistle.wav","null","audio-keyboard-response","472","281635","0.0-16.0-6.0","",""
"480","sound/asl/silence.wav","49","audio-keyboard-response","473","282117","0.0-16.0-7.0","false",""
"null","sound/msl/bird.wav","null","audio-keyboard-response","474","282636","0.0-17.0-0.0","",""
"null","sound/msl/ding.wav","null","audio-keyboard-response","475","283154","0.0-17.0-1.0","",""
"null","sound/msl/duck.wav","null","audio-keyboard-response","476","283675","0.0-17.0-2.0","",""
"null","sound/asl/silence.wav","null","audio-keyboard-response","477","284177","0.0-17.0-3.0","",""
"null","sound/msl/bird.wav","null","audio-keyboard-response","478","284685","0.0-17.0-4.0","",""
"null","sound/msl/goat.wav","null","audio-keyboard-response","479","285235","0.0-17.0-5.0","",""
"null","sound/msl/cow.wav","null","audio-keyboard-response","480","285756","0.0-17.0-6.0","",""
"1059","sound/asl/silence.wav","50","audio-keyboard-response","481","286819","0.0-17.0-7.0","true",""
"null","sound/msl/frog.wav","null","audio-keyboard-response","482","287326","0.0-18.0-0.0","",""
"null","sound/msl/Water.wav","null","audio-keyboard-response","483","287846","0.0-18.0-1.0","",""
"null","sound/msl/slide_whistle.wav","null","audio-keyboard-response","484","288355","0.0-18.0-2.0","",""
"null","sound/asl/silence.wav","null","audio-keyboard-response","485","288857","0.0-18.0-3.0","",""
"null","sound/msl/boing.wav","null","audio-keyboard-response","486","289366","0.0-18.0-4.0","",""
"null","sound/msl/Water.wav","null","audio-keyboard-response","487","289886","0.0-18.0-5.0","",""
"null","sound/msl/duck.wav","null","audio-keyboard-response","488","290396","0.0-18.0-6.0","",""
"1960","sound/asl/silence.wav","50","audio-keyboard-response","489","292362","0.0-18.0-7.0","true",""
"null","sound/msl/boing.wav","null","audio-keyboard-response","490","292866","0.0-19.0-0.0","",""
"null","sound/msl/door.wav","null","audio-keyboard-response","491","293376","0.0-19.0-1.0","",""
"null","sound/msl/cat.wav","null","audio-keyboard-response","492","293887","0.0-19.0-2.0","",""
"null","sound/asl/silence.wav","null","audio-keyboard-response","493","294389","0.0-19.0-3.0","",""
"null","sound/msl/clock.wav","null","audio-keyboard-response","494","294946","0.0-19.0-4.0","",""
"null","sound/msl/organ.wav","null","audio-keyboard-response","495","295457","0.0-19.0-5.0","",""
"null","sound/msl/cat.wav","null","audio-keyboard-response","496","295967","0.0-19.0-6.0","",""
"408","sound/asl/silence.wav","49","audio-keyboard-response","497","296380","0.0-19.0-7.0","false",""
"null","sound/msl/clock.wav","null","audio-keyboard-response","498","296937","0.0-20.0-0.0","",""
"null","sound/msl/organ.wav","null","audio-keyboard-response","499","297447","0.0-20.0-1.0","",""
"null","sound/msl/cat.wav","null","audio-keyboard-response","500","297957","0.0-20.0-2.0","",""
"null","sound/asl/silence.wav","null","audio-keyboard-response","501","298459","0.0-20.0-3.0","",""
"null","sound/msl/frog.wav","null","audio-keyboard-response","502","298967","0.0-20.0-4.0","",""
"null","sound/msl/Water.wav","null","audio-keyboard-response","503","299488","0.0-20.0-5.0","",""
"null","sound/msl/slide_whistle.wav","null","audio-keyboard-response","504","299997","0.0-20.0-6.0","",""
"299","sound/asl/silence.wav","49","audio-keyboard-response","505","300300","0.0-20.0-7.0","true",""
"null","sound/msl/bird.wav","null","audio-keyboard-response","506","300807","0.0-21.0-0.0","",""
"null","sound/msl/ding.wav","null","audio-keyboard-response","507","301318","0.0-21.0-1.0","",""
"null","sound/msl/duck.wav","null","audio-keyboard-response","508","301838","0.0-21.0-2.0","",""
"null","sound/asl/silence.wav","null","audio-keyboard-response","509","302340","0.0-21.0-3.0","",""
"null","sound/msl/clock.wav","null","audio-keyboard-response","510","302898","0.0-21.0-4.0","",""
"null","sound/msl/organ.wav","null","audio-keyboard-response","511","303408","0.0-21.0-5.0","",""
"null","sound/msl/cat.wav","null","audio-keyboard-response","512","303918","0.0-21.0-6.0","",""
"360","sound/asl/silence.wav","50","audio-keyboard-response","513","304283","0.0-21.0-7.0","true",""
"null","sound/msl/frog.wav","null","audio-keyboard-response","514","304798","0.0-22.0-0.0","",""
"null","sound/msl/Water.wav","null","audio-keyboard-response","515","305318","0.0-22.0-1.0","",""
"null","sound/msl/slide_whistle.wav","null","audio-keyboard-response","516","305838","0.0-22.0-2.0","",""
"null","sound/asl/silence.wav","null","audio-keyboard-response","517","306339","0.0-22.0-3.0","",""
"null","sound/msl/bird.wav","null","audio-keyboard-response","518","306847","0.0-22.0-4.0","",""
"null","sound/msl/goat.wav","null","audio-keyboard-response","519","307398","0.0-22.0-5.0","",""
"null","sound/msl/cow.wav","null","audio-keyboard-response","520","307918","0.0-22.0-6.0","",""
"389","sound/asl/silence.wav","49","audio-keyboard-response","521","308312","0.0-22.0-7.0","false",""
"null","sound/msl/door_bell.wav","null","audio-keyboard-response","522","308828","0.0-23.0-0.0","",""
"null","sound/msl/door.wav","null","audio-keyboard-response","523","309339","0.0-23.0-1.0","",""
"null","sound/msl/slide_whistle.wav","null","audio-keyboard-response","524","309848","0.0-23.0-2.0","",""
"null","sound/asl/silence.wav","null","audio-keyboard-response","525","310349","0.0-23.0-3.0","",""
"null","sound/msl/door_bell.wav","null","audio-keyboard-response","526","310869","0.0-23.0-4.0","",""
"null","sound/msl/organ.wav","null","audio-keyboard-response","527","311379","0.0-23.0-5.0","",""
"null","sound/msl/cow.wav","null","audio-keyboard-response","528","311888","0.0-23.0-6.0","",""
"2248","sound/asl/silence.wav","49","audio-keyboard-response","529","314145","0.0-23.0-7.0","true",""
"null","sound/msl/frog.wav","null","audio-keyboard-response","530","314649","0.0-24.0-0.0","",""
"null","sound/msl/ding.wav","null","audio-keyboard-response","531","315159","0.0-24.0-1.0","",""
"null","sound/msl/dog.wav","null","audio-keyboard-response","532","315679","0.0-24.0-2.0","",""
"null","sound/asl/silence.wav","null","audio-keyboard-response","533","316181","0.0-24.0-3.0","",""
"null","sound/msl/bird.wav","null","audio-keyboard-response","534","316690","0.0-24.0-4.0","",""
"null","sound/msl/ding.wav","null","audio-keyboard-response","535","317194","0.0-24.0-5.0","",""
"null","sound/msl/duck.wav","null","audio-keyboard-response","536","317715","0.0-24.0-6.0","",""
"240","sound/asl/silence.wav","50","audio-keyboard-response","537","317964","0.0-24.0-7.0","false",""
"null","sound/msl/bird.wav","null","audio-keyboard-response","538","318475","0.0-25.0-0.0","",""
"null","sound/msl/goat.wav","null","audio-keyboard-response","539","319024","0.0-25.0-1.0","",""
"null","sound/msl/cow.wav","null","audio-keyboard-response","540","319545","0.0-25.0-2.0","",""
"null","sound/asl/silence.wav","null","audio-keyboard-response","541","320046","0.0-25.0-3.0","",""
"null","sound/msl/door_bell.wav","null","audio-keyboard-response","542","320555","0.0-25.0-4.0","",""
"null","sound/msl/organ.wav","null","audio-keyboard-response","543","321065","0.0-25.0-5.0","",""
"null","sound/msl/cow.wav","null","audio-keyboard-response","544","321586","0.0-25.0-6.0","",""
"251","sound/asl/silence.wav","49","audio-keyboard-response","545","321837","0.0-25.0-7.0","true",""
"null","sound/msl/bird.wav","null","audio-keyboard-response","546","322358","0.0-26.0-0.0","",""
"null","sound/msl/ding.wav","null","audio-keyboard-response","547","322876","0.0-26.0-1.0","",""
"null","sound/msl/duck.wav","null","audio-keyboard-response","548","323396","0.0-26.0-2.0","",""
"null","sound/asl/silence.wav","null","audio-keyboard-response","549","323897","0.0-26.0-3.0","",""
"null","sound/msl/door_bell.wav","null","audio-keyboard-response","550","324406","0.0-26.0-4.0","",""
"null","sound/msl/door.wav","null","audio-keyboard-response","551","324916","0.0-26.0-5.0","",""
"null","sound/msl/slide_whistle.wav","null","audio-keyboard-response","552","325437","0.0-26.0-6.0","",""
"299","sound/asl/silence.wav","50","audio-keyboard-response","553","325745","0.0-26.0-7.0","true",""
"null","sound/msl/boing.wav","null","audio-keyboard-response","554","326257","0.0-27.0-0.0","",""
"null","sound/msl/Water.wav","null","audio-keyboard-response","555","326776","0.0-27.0-1.0","",""
"null","sound/msl/duck.wav","null","audio-keyboard-response","556","327286","0.0-27.0-2.0","",""
"null","sound/asl/silence.wav","null","audio-keyboard-response","557","327788","0.0-27.0-3.0","",""
"null","sound/msl/clock.wav","null","audio-keyboard-response","558","328346","0.0-27.0-4.0","",""
"null","sound/msl/goat.wav","null","audio-keyboard-response","559","328897","0.0-27.0-5.0","",""
"null","sound/msl/dog.wav","null","audio-keyboard-response","560","329406","0.0-27.0-6.0","",""
"1859","sound/asl/silence.wav","50","audio-keyboard-response","561","331273","0.0-27.0-7.0","false",""
"2466","","","instructions","562","333740","0.0-28.0","","[{""page_index"":0,""viewing_time"":2466}]"
