"rt","stimulus","key_press","trial_type","trial_index","time_elapsed","internal_node_id","correct","view_history"
"11861","alien.jpg","49","image-keyboard-response","0","11863","0.0-0.0","",""
"null","sound/msl/cat.wav","null","audio-keyboard-response","1","12357","0.0-1.0-0.0","",""
"null","sound/msl/ding.wav","null","audio-keyboard-response","2","12867","0.0-1.0-1.0","",""
"null","sound/msl/frog.wav","null","audio-keyboard-response","3","13377","0.0-1.0-2.0","",""
"null","sound/msl/organ.wav","null","audio-keyboard-response","4","13878","0.0-1.0-3.0","",""
"null","sound/msl/duck.wav","null","audio-keyboard-response","5","14387","0.0-1.0-4.0","",""
"null","sound/msl/Water.wav","null","audio-keyboard-response","6","14897","0.0-1.0-5.0","",""
"null","sound/msl/cow.wav","null","audio-keyboard-response","7","15397","0.0-1.0-6.0","",""
"null","sound/msl/goat.wav","null","audio-keyboard-response","8","15937","0.0-1.0-7.0","",""
"null","sound/msl/slide_whistle.wav","null","audio-keyboard-response","9","16437","0.0-1.0-8.0","",""
"null","sound/msl/clock.wav","null","audio-keyboard-response","10","16987","0.0-1.0-9.0","",""
"null","sound/msl/boing.wav","null","audio-keyboard-response","11","17487","0.0-1.0-10.0","",""
"null","sound/msl/door.wav","null","audio-keyboard-response","12","17987","0.0-1.0-11.0","",""
"null","sound/msl/organ.wav","null","audio-keyboard-response","13","18487","0.0-1.0-12.0","",""
"null","sound/msl/duck.wav","null","audio-keyboard-response","14","18987","0.0-1.0-13.0","",""
"null","sound/msl/Water.wav","null","audio-keyboard-response","15","19497","0.0-1.0-14.0","",""
"null","sound/msl/cat.wav","null","audio-keyboard-response","16","19997","0.0-1.0-15.0","",""
"null","sound/msl/ding.wav","null","audio-keyboard-response","17","20507","0.0-1.0-16.0","",""
"null","sound/msl/frog.wav","null","audio-keyboard-response","18","21017","0.0-1.0-17.0","",""
"null","sound/msl/door_bell.wav","null","audio-keyboard-response","19","21518","0.0-1.0-18.0","",""
"null","sound/msl/dog.wav","null","audio-keyboard-response","20","22028","0.0-1.0-19.0","",""
"null","sound/msl/bird.wav","null","audio-keyboard-response","21","22538","0.0-1.0-20.0","",""
"null","sound/msl/clock.wav","null","audio-keyboard-response","22","23088","0.0-1.0-21.0","",""
"null","sound/msl/boing.wav","null","audio-keyboard-response","23","23588","0.0-1.0-22.0","",""
"null","sound/msl/door.wav","null","audio-keyboard-response","24","24088","0.0-1.0-23.0","",""
"null","sound/msl/cow.wav","null","audio-keyboard-response","25","24587","0.0-1.0-24.0","",""
"null","sound/msl/goat.wav","null","audio-keyboard-response","26","25123","0.0-1.0-25.0","",""
"null","sound/msl/slide_whistle.wav","null","audio-keyboard-response","27","25623","0.0-1.0-26.0","",""
"null","sound/msl/cat.wav","null","audio-keyboard-response","28","26123","0.0-1.0-27.0","",""
"null","sound/msl/ding.wav","null","audio-keyboard-response","29","26624","0.0-1.0-28.0","",""
"null","sound/msl/frog.wav","null","audio-keyboard-response","30","27133","0.0-1.0-29.0","",""
"null","sound/msl/organ.wav","null","audio-keyboard-response","31","27633","0.0-1.0-30.0","",""
"null","sound/msl/duck.wav","null","audio-keyboard-response","32","28143","0.0-1.0-31.0","",""
"null","sound/msl/Water.wav","null","audio-keyboard-response","33","28654","0.0-1.0-32.0","",""
"null","sound/msl/door_bell.wav","null","audio-keyboard-response","34","29154","0.0-1.0-33.0","",""
"null","sound/msl/dog.wav","null","audio-keyboard-response","35","29664","0.0-1.0-34.0","",""
"null","sound/msl/bird.wav","null","audio-keyboard-response","36","30174","0.0-1.0-35.0","",""
"null","sound/msl/cow.wav","null","audio-keyboard-response","37","30674","0.0-1.0-36.0","",""
"null","sound/msl/goat.wav","null","audio-keyboard-response","38","31214","0.0-1.0-37.0","",""
"null","sound/msl/slide_whistle.wav","null","audio-keyboard-response","39","31714","0.0-1.0-38.0","",""
"null","sound/msl/clock.wav","null","audio-keyboard-response","40","32264","0.0-1.0-39.0","",""
"null","sound/msl/boing.wav","null","audio-keyboard-response","41","32763","0.0-1.0-40.0","",""
"null","sound/msl/door.wav","null","audio-keyboard-response","42","33264","0.0-1.0-41.0","",""
"null","sound/msl/door_bell.wav","null","audio-keyboard-response","43","33774","0.0-1.0-42.0","",""
"null","sound/msl/dog.wav","null","audio-keyboard-response","44","34274","0.0-1.0-43.0","",""
"null","sound/msl/bird.wav","null","audio-keyboard-response","45","34784","0.0-1.0-44.0","",""
"null","sound/msl/organ.wav","null","audio-keyboard-response","46","35284","0.0-1.0-45.0","",""
"null","sound/msl/duck.wav","null","audio-keyboard-response","47","35785","0.0-1.0-46.0","",""
"null","sound/msl/Water.wav","null","audio-keyboard-response","48","36294","0.0-1.0-47.0","",""
"null","sound/msl/cow.wav","null","audio-keyboard-response","49","36794","0.0-1.0-48.0","",""
"null","sound/msl/goat.wav","null","audio-keyboard-response","50","37335","0.0-1.0-49.0","",""
"null","sound/msl/slide_whistle.wav","null","audio-keyboard-response","51","37834","0.0-1.0-50.0","",""
"null","sound/msl/cat.wav","null","audio-keyboard-response","52","38335","0.0-1.0-51.0","",""
"null","sound/msl/ding.wav","null","audio-keyboard-response","53","38835","0.0-1.0-52.0","",""
"null","sound/msl/frog.wav","null","audio-keyboard-response","54","39345","0.0-1.0-53.0","",""
"null","sound/msl/organ.wav","null","audio-keyboard-response","55","39845","0.0-1.0-54.0","",""
"null","sound/msl/duck.wav","null","audio-keyboard-response","56","40344","0.0-1.0-55.0","",""
"null","sound/msl/Water.wav","null","audio-keyboard-response","57","40855","0.0-1.0-56.0","",""
"null","sound/msl/cow.wav","null","audio-keyboard-response","58","41355","0.0-1.0-57.0","",""
"null","sound/msl/goat.wav","null","audio-keyboard-response","59","41895","0.0-1.0-58.0","",""
"null","sound/msl/slide_whistle.wav","null","audio-keyboard-response","60","42395","0.0-1.0-59.0","",""
"null","sound/msl/clock.wav","null","audio-keyboard-response","61","42946","0.0-1.0-60.0","",""
"null","sound/msl/boing.wav","null","audio-keyboard-response","62","43445","0.0-1.0-61.0","",""
"null","sound/msl/door.wav","null","audio-keyboard-response","63","43945","0.0-1.0-62.0","",""
"null","sound/msl/door_bell.wav","null","audio-keyboard-response","64","44456","0.0-1.0-63.0","",""
"null","sound/msl/dog.wav","null","audio-keyboard-response","65","44956","0.0-1.0-64.0","",""
"null","sound/msl/bird.wav","null","audio-keyboard-response","66","45466","0.0-1.0-65.0","",""
"null","sound/msl/organ.wav","null","audio-keyboard-response","67","45966","0.0-1.0-66.0","",""
"null","sound/msl/duck.wav","null","audio-keyboard-response","68","46466","0.0-1.0-67.0","",""
"null","sound/msl/Water.wav","null","audio-keyboard-response","69","46976","0.0-1.0-68.0","",""
"null","sound/msl/cat.wav","null","audio-keyboard-response","70","47475","0.0-1.0-69.0","",""
"null","sound/msl/ding.wav","null","audio-keyboard-response","71","47986","0.0-1.0-70.0","",""
"null","sound/msl/frog.wav","null","audio-keyboard-response","72","48496","0.0-1.0-71.0","",""
"null","sound/msl/cow.wav","null","audio-keyboard-response","73","48997","0.0-1.0-72.0","",""
"null","sound/msl/goat.wav","null","audio-keyboard-response","74","49537","0.0-1.0-73.0","",""
"null","sound/msl/slide_whistle.wav","null","audio-keyboard-response","75","50036","0.0-1.0-74.0","",""
"null","sound/msl/clock.wav","null","audio-keyboard-response","76","50586","0.0-1.0-75.0","",""
"null","sound/msl/boing.wav","null","audio-keyboard-response","77","51086","0.0-1.0-76.0","",""
"null","sound/msl/door.wav","null","audio-keyboard-response","78","51587","0.0-1.0-77.0","",""
"null","sound/msl/cow.wav","null","audio-keyboard-response","79","52097","0.0-1.0-78.0","",""
"null","sound/msl/goat.wav","null","audio-keyboard-response","80","52636","0.0-1.0-79.0","",""
"null","sound/msl/slide_whistle.wav","null","audio-keyboard-response","81","53137","0.0-1.0-80.0","",""
"null","sound/msl/door_bell.wav","null","audio-keyboard-response","82","53637","0.0-1.0-81.0","",""
"null","sound/msl/dog.wav","null","audio-keyboard-response","83","54146","0.0-1.0-82.0","",""
"null","sound/msl/bird.wav","null","audio-keyboard-response","84","54656","0.0-1.0-83.0","",""
"null","sound/msl/cat.wav","null","audio-keyboard-response","85","55157","0.0-1.0-84.0","",""
"null","sound/msl/ding.wav","null","audio-keyboard-response","86","55667","0.0-1.0-85.0","",""
"null","sound/msl/frog.wav","null","audio-keyboard-response","87","56177","0.0-1.0-86.0","",""
"null","sound/msl/organ.wav","null","audio-keyboard-response","88","56677","0.0-1.0-87.0","",""
"null","sound/msl/duck.wav","null","audio-keyboard-response","89","57187","0.0-1.0-88.0","",""
"null","sound/msl/Water.wav","null","audio-keyboard-response","90","57696","0.0-1.0-89.0","",""
"null","sound/msl/door_bell.wav","null","audio-keyboard-response","91","58197","0.0-1.0-90.0","",""
"null","sound/msl/dog.wav","null","audio-keyboard-response","92","58707","0.0-1.0-91.0","",""
"null","sound/msl/bird.wav","null","audio-keyboard-response","93","59218","0.0-1.0-92.0","",""
"null","sound/msl/clock.wav","null","audio-keyboard-response","94","59767","0.0-1.0-93.0","",""
"null","sound/msl/boing.wav","null","audio-keyboard-response","95","60268","0.0-1.0-94.0","",""
"null","sound/msl/door.wav","null","audio-keyboard-response","96","60767","0.0-1.0-95.0","",""
"null","sound/msl/cow.wav","null","audio-keyboard-response","97","61268","0.0-1.0-96.0","",""
"null","sound/msl/goat.wav","null","audio-keyboard-response","98","61808","0.0-1.0-97.0","",""
"null","sound/msl/slide_whistle.wav","null","audio-keyboard-response","99","62308","0.0-1.0-98.0","",""
"null","sound/msl/organ.wav","null","audio-keyboard-response","100","62808","0.0-1.0-99.0","",""
"null","sound/msl/duck.wav","null","audio-keyboard-response","101","63308","0.0-1.0-100.0","",""
"null","sound/msl/Water.wav","null","audio-keyboard-response","102","63818","0.0-1.0-101.0","",""
"null","sound/msl/door_bell.wav","null","audio-keyboard-response","103","64319","0.0-1.0-102.0","",""
"null","sound/msl/dog.wav","null","audio-keyboard-response","104","64828","0.0-1.0-103.0","",""
"null","sound/msl/bird.wav","null","audio-keyboard-response","105","65338","0.0-1.0-104.0","",""
"null","sound/msl/cat.wav","null","audio-keyboard-response","106","65833","0.0-1.0-105.0","",""
"null","sound/msl/ding.wav","null","audio-keyboard-response","107","66344","0.0-1.0-106.0","",""
"null","sound/msl/frog.wav","null","audio-keyboard-response","108","66853","0.0-1.0-107.0","",""
"null","sound/msl/organ.wav","null","audio-keyboard-response","109","67353","0.0-1.0-108.0","",""
"null","sound/msl/duck.wav","null","audio-keyboard-response","110","67864","0.0-1.0-109.0","",""
"null","sound/msl/Water.wav","null","audio-keyboard-response","111","68374","0.0-1.0-110.0","",""
"null","sound/msl/clock.wav","null","audio-keyboard-response","112","68924","0.0-1.0-111.0","",""
"null","sound/msl/boing.wav","null","audio-keyboard-response","113","69424","0.0-1.0-112.0","",""
"null","sound/msl/door.wav","null","audio-keyboard-response","114","69924","0.0-1.0-113.0","",""
"null","sound/msl/door_bell.wav","null","audio-keyboard-response","115","70423","0.0-1.0-114.0","",""
"null","sound/msl/dog.wav","null","audio-keyboard-response","116","70934","0.0-1.0-115.0","",""
"null","sound/msl/bird.wav","null","audio-keyboard-response","117","71434","0.0-1.0-116.0","",""
"null","sound/msl/cow.wav","null","audio-keyboard-response","118","71944","0.0-1.0-117.0","",""
"null","sound/msl/goat.wav","null","audio-keyboard-response","119","72484","0.0-1.0-118.0","",""
"null","sound/msl/slide_whistle.wav","null","audio-keyboard-response","120","72984","0.0-1.0-119.0","",""
"null","sound/msl/cat.wav","null","audio-keyboard-response","121","73484","0.0-1.0-120.0","",""
"null","sound/msl/ding.wav","null","audio-keyboard-response","122","73984","0.0-1.0-121.0","",""
"null","sound/msl/frog.wav","null","audio-keyboard-response","123","74494","0.0-1.0-122.0","",""
"null","sound/msl/organ.wav","null","audio-keyboard-response","124","74994","0.0-1.0-123.0","",""
"null","sound/msl/duck.wav","null","audio-keyboard-response","125","75505","0.0-1.0-124.0","",""
"null","sound/msl/Water.wav","null","audio-keyboard-response","126","76015","0.0-1.0-125.0","",""
"null","sound/msl/door_bell.wav","null","audio-keyboard-response","127","76515","0.0-1.0-126.0","",""
"null","sound/msl/dog.wav","null","audio-keyboard-response","128","77025","0.0-1.0-127.0","",""
"null","sound/msl/bird.wav","null","audio-keyboard-response","129","77535","0.0-1.0-128.0","",""
"null","sound/msl/clock.wav","null","audio-keyboard-response","130","78085","0.0-1.0-129.0","",""
"null","sound/msl/boing.wav","null","audio-keyboard-response","131","78585","0.0-1.0-130.0","",""
"null","sound/msl/door.wav","null","audio-keyboard-response","132","79085","0.0-1.0-131.0","",""
"null","sound/msl/organ.wav","null","audio-keyboard-response","133","79585","0.0-1.0-132.0","",""
"null","sound/msl/duck.wav","null","audio-keyboard-response","134","80095","0.0-1.0-133.0","",""
"null","sound/msl/Water.wav","null","audio-keyboard-response","135","80605","0.0-1.0-134.0","",""
"null","sound/msl/cow.wav","null","audio-keyboard-response","136","81105","0.0-1.0-135.0","",""
"null","sound/msl/goat.wav","null","audio-keyboard-response","137","81646","0.0-1.0-136.0","",""
"null","sound/msl/slide_whistle.wav","null","audio-keyboard-response","138","82146","0.0-1.0-137.0","",""
"null","sound/msl/clock.wav","null","audio-keyboard-response","139","82695","0.0-1.0-138.0","",""
"null","sound/msl/boing.wav","null","audio-keyboard-response","140","83195","0.0-1.0-139.0","",""
"null","sound/msl/door.wav","null","audio-keyboard-response","141","83696","0.0-1.0-140.0","",""
"null","sound/msl/cat.wav","null","audio-keyboard-response","142","84196","0.0-1.0-141.0","",""
"null","sound/msl/ding.wav","null","audio-keyboard-response","143","84706","0.0-1.0-142.0","",""
"null","sound/msl/frog.wav","null","audio-keyboard-response","144","85216","0.0-1.0-143.0","",""
"null","sound/msl/door_bell.wav","null","audio-keyboard-response","145","85716","0.0-1.0-144.0","",""
"null","sound/msl/dog.wav","null","audio-keyboard-response","146","86226","0.0-1.0-145.0","",""
"null","sound/msl/bird.wav","null","audio-keyboard-response","147","86735","0.0-1.0-146.0","",""
"null","sound/msl/cow.wav","null","audio-keyboard-response","148","87236","0.0-1.0-147.0","",""
"null","sound/msl/goat.wav","null","audio-keyboard-response","149","87775","0.0-1.0-148.0","",""
"null","sound/msl/slide_whistle.wav","null","audio-keyboard-response","150","88276","0.0-1.0-149.0","",""
"null","sound/msl/cat.wav","null","audio-keyboard-response","151","88776","0.0-1.0-150.0","",""
"null","sound/msl/ding.wav","null","audio-keyboard-response","152","89276","0.0-1.0-151.0","",""
"null","sound/msl/frog.wav","null","audio-keyboard-response","153","89786","0.0-1.0-152.0","",""
"null","sound/msl/organ.wav","null","audio-keyboard-response","154","90287","0.0-1.0-153.0","",""
"null","sound/msl/duck.wav","null","audio-keyboard-response","155","90787","0.0-1.0-154.0","",""
"null","sound/msl/Water.wav","null","audio-keyboard-response","156","91296","0.0-1.0-155.0","",""
"null","sound/msl/clock.wav","null","audio-keyboard-response","157","91847","0.0-1.0-156.0","",""
"null","sound/msl/boing.wav","null","audio-keyboard-response","158","92347","0.0-1.0-157.0","",""
"null","sound/msl/door.wav","null","audio-keyboard-response","159","92847","0.0-1.0-158.0","",""
"null","sound/msl/door_bell.wav","null","audio-keyboard-response","160","93346","0.0-1.0-159.0","",""
"null","sound/msl/dog.wav","null","audio-keyboard-response","161","93856","0.0-1.0-160.0","",""
"null","sound/msl/bird.wav","null","audio-keyboard-response","162","94357","0.0-1.0-161.0","",""
"null","sound/msl/organ.wav","null","audio-keyboard-response","163","94857","0.0-1.0-162.0","",""
"null","sound/msl/duck.wav","null","audio-keyboard-response","164","95357","0.0-1.0-163.0","",""
"null","sound/msl/Water.wav","null","audio-keyboard-response","165","95866","0.0-1.0-164.0","",""
"null","sound/msl/clock.wav","null","audio-keyboard-response","166","96416","0.0-1.0-165.0","",""
"null","sound/msl/boing.wav","null","audio-keyboard-response","167","96918","0.0-1.0-166.0","",""
"null","sound/msl/door.wav","null","audio-keyboard-response","168","97418","0.0-1.0-167.0","",""
"null","sound/msl/cat.wav","null","audio-keyboard-response","169","97918","0.0-1.0-168.0","",""
"null","sound/msl/ding.wav","null","audio-keyboard-response","170","98428","0.0-1.0-169.0","",""
"null","sound/msl/frog.wav","null","audio-keyboard-response","171","98937","0.0-1.0-170.0","",""
"null","sound/msl/cow.wav","null","audio-keyboard-response","172","99437","0.0-1.0-171.0","",""
"null","sound/msl/goat.wav","null","audio-keyboard-response","173","99977","0.0-1.0-172.0","",""
"null","sound/msl/slide_whistle.wav","null","audio-keyboard-response","174","100477","0.0-1.0-173.0","",""
"null","sound/msl/door_bell.wav","null","audio-keyboard-response","175","100987","0.0-1.0-174.0","",""
"null","sound/msl/dog.wav","null","audio-keyboard-response","176","101498","0.0-1.0-175.0","",""
"null","sound/msl/bird.wav","null","audio-keyboard-response","177","101998","0.0-1.0-176.0","",""
"null","sound/msl/organ.wav","null","audio-keyboard-response","178","102498","0.0-1.0-177.0","",""
"null","sound/msl/duck.wav","null","audio-keyboard-response","179","102998","0.0-1.0-178.0","",""
"null","sound/msl/Water.wav","null","audio-keyboard-response","180","103508","0.0-1.0-179.0","",""
"null","sound/msl/cow.wav","null","audio-keyboard-response","181","104018","0.0-1.0-180.0","",""
"null","sound/msl/goat.wav","null","audio-keyboard-response","182","104558","0.0-1.0-181.0","",""
"null","sound/msl/slide_whistle.wav","null","audio-keyboard-response","183","105059","0.0-1.0-182.0","",""
"null","sound/msl/clock.wav","null","audio-keyboard-response","184","105608","0.0-1.0-183.0","",""
"null","sound/msl/boing.wav","null","audio-keyboard-response","185","106109","0.0-1.0-184.0","",""
"null","sound/msl/door.wav","null","audio-keyboard-response","186","106603","0.0-1.0-185.0","",""
"null","sound/msl/cat.wav","null","audio-keyboard-response","187","107103","0.0-1.0-186.0","",""
"null","sound/msl/ding.wav","null","audio-keyboard-response","188","107614","0.0-1.0-187.0","",""
"null","sound/msl/frog.wav","null","audio-keyboard-response","189","108114","0.0-1.0-188.0","",""
"null","sound/msl/door_bell.wav","null","audio-keyboard-response","190","108623","0.0-1.0-189.0","",""
"null","sound/msl/dog.wav","null","audio-keyboard-response","191","109134","0.0-1.0-190.0","",""
"null","sound/msl/bird.wav","null","audio-keyboard-response","192","109633","0.0-1.0-191.0","",""
"null","sound/msl/organ.wav","null","audio-keyboard-response","193","110134","0.0-1.0-192.0","",""
"null","sound/msl/duck.wav","null","audio-keyboard-response","194","110634","0.0-1.0-193.0","",""
"null","sound/msl/Water.wav","null","audio-keyboard-response","195","111144","0.0-1.0-194.0","",""
"null","sound/msl/cow.wav","null","audio-keyboard-response","196","111654","0.0-1.0-195.0","",""
"null","sound/msl/goat.wav","null","audio-keyboard-response","197","112194","0.0-1.0-196.0","",""
"null","sound/msl/slide_whistle.wav","null","audio-keyboard-response","198","112695","0.0-1.0-197.0","",""
"null","sound/msl/cat.wav","null","audio-keyboard-response","199","113194","0.0-1.0-198.0","",""
"null","sound/msl/ding.wav","null","audio-keyboard-response","200","113705","0.0-1.0-199.0","",""
"null","sound/msl/frog.wav","null","audio-keyboard-response","201","114214","0.0-1.0-200.0","",""
"null","sound/msl/clock.wav","null","audio-keyboard-response","202","114766","0.0-1.0-201.0","",""
"null","sound/msl/boing.wav","null","audio-keyboard-response","203","115264","0.0-1.0-202.0","",""
"null","sound/msl/door.wav","null","audio-keyboard-response","204","115765","0.0-1.0-203.0","",""
"null","sound/msl/door_bell.wav","null","audio-keyboard-response","205","116265","0.0-1.0-204.0","",""
"null","sound/msl/dog.wav","null","audio-keyboard-response","206","116774","0.0-1.0-205.0","",""
"null","sound/msl/bird.wav","null","audio-keyboard-response","207","117274","0.0-1.0-206.0","",""
"null","sound/msl/organ.wav","null","audio-keyboard-response","208","117775","0.0-1.0-207.0","",""
"null","sound/msl/duck.wav","null","audio-keyboard-response","209","118275","0.0-1.0-208.0","",""
"null","sound/msl/Water.wav","null","audio-keyboard-response","210","118785","0.0-1.0-209.0","",""
"null","sound/msl/cat.wav","null","audio-keyboard-response","211","119285","0.0-1.0-210.0","",""
"null","sound/msl/ding.wav","null","audio-keyboard-response","212","119786","0.0-1.0-211.0","",""
"null","sound/msl/frog.wav","null","audio-keyboard-response","213","120295","0.0-1.0-212.0","",""
"null","sound/msl/door_bell.wav","null","audio-keyboard-response","214","120795","0.0-1.0-213.0","",""
"null","sound/msl/dog.wav","null","audio-keyboard-response","215","121306","0.0-1.0-214.0","",""
"null","sound/msl/bird.wav","null","audio-keyboard-response","216","121815","0.0-1.0-215.0","",""
"null","sound/msl/cow.wav","null","audio-keyboard-response","217","122316","0.0-1.0-216.0","",""
"null","sound/msl/goat.wav","null","audio-keyboard-response","218","122855","0.0-1.0-217.0","",""
"null","sound/msl/slide_whistle.wav","null","audio-keyboard-response","219","123356","0.0-1.0-218.0","",""
"null","sound/msl/clock.wav","null","audio-keyboard-response","220","123906","0.0-1.0-219.0","",""
"null","sound/msl/boing.wav","null","audio-keyboard-response","221","124406","0.0-1.0-220.0","",""
"null","sound/msl/door.wav","null","audio-keyboard-response","222","124906","0.0-1.0-221.0","",""
"null","sound/msl/organ.wav","null","audio-keyboard-response","223","125406","0.0-1.0-222.0","",""
"null","sound/msl/duck.wav","null","audio-keyboard-response","224","125906","0.0-1.0-223.0","",""
"null","sound/msl/Water.wav","null","audio-keyboard-response","225","126416","0.0-1.0-224.0","",""
"null","sound/msl/cow.wav","null","audio-keyboard-response","226","126916","0.0-1.0-225.0","",""
"null","sound/msl/goat.wav","null","audio-keyboard-response","227","127456","0.0-1.0-226.0","",""
"null","sound/msl/slide_whistle.wav","null","audio-keyboard-response","228","127957","0.0-1.0-227.0","",""
"null","sound/msl/door_bell.wav","null","audio-keyboard-response","229","128467","0.0-1.0-228.0","",""
"null","sound/msl/dog.wav","null","audio-keyboard-response","230","128977","0.0-1.0-229.0","",""
"null","sound/msl/bird.wav","null","audio-keyboard-response","231","129477","0.0-1.0-230.0","",""
"null","sound/msl/cow.wav","null","audio-keyboard-response","232","129987","0.0-1.0-231.0","",""
"null","sound/msl/goat.wav","null","audio-keyboard-response","233","130527","0.0-1.0-232.0","",""
"null","sound/msl/slide_whistle.wav","null","audio-keyboard-response","234","131027","0.0-1.0-233.0","",""
"null","sound/msl/organ.wav","null","audio-keyboard-response","235","131527","0.0-1.0-234.0","",""
"null","sound/msl/duck.wav","null","audio-keyboard-response","236","132027","0.0-1.0-235.0","",""
"null","sound/msl/Water.wav","null","audio-keyboard-response","237","132537","0.0-1.0-236.0","",""
"null","sound/msl/clock.wav","null","audio-keyboard-response","238","133087","0.0-1.0-237.0","",""
"null","sound/msl/boing.wav","null","audio-keyboard-response","239","133587","0.0-1.0-238.0","",""
"null","sound/msl/door.wav","null","audio-keyboard-response","240","134087","0.0-1.0-239.0","",""
"null","sound/msl/cat.wav","null","audio-keyboard-response","241","134587","0.0-1.0-240.0","",""
"null","sound/msl/ding.wav","null","audio-keyboard-response","242","135098","0.0-1.0-241.0","",""
"null","sound/msl/frog.wav","null","audio-keyboard-response","243","135598","0.0-1.0-242.0","",""
"null","sound/msl/door_bell.wav","null","audio-keyboard-response","244","136107","0.0-1.0-243.0","",""
"null","sound/msl/dog.wav","null","audio-keyboard-response","245","136618","0.0-1.0-244.0","",""
"null","sound/msl/bird.wav","null","audio-keyboard-response","246","137118","0.0-1.0-245.0","",""
"null","sound/msl/organ.wav","null","audio-keyboard-response","247","137618","0.0-1.0-246.0","",""
"null","sound/msl/duck.wav","null","audio-keyboard-response","248","138117","0.0-1.0-247.0","",""
"null","sound/msl/Water.wav","null","audio-keyboard-response","249","138628","0.0-1.0-248.0","",""
"null","sound/msl/clock.wav","null","audio-keyboard-response","250","139177","0.0-1.0-249.0","",""
"null","sound/msl/boing.wav","null","audio-keyboard-response","251","139678","0.0-1.0-250.0","",""
"null","sound/msl/door.wav","null","audio-keyboard-response","252","140178","0.0-1.0-251.0","",""
"null","sound/msl/cat.wav","null","audio-keyboard-response","253","140678","0.0-1.0-252.0","",""
"null","sound/msl/ding.wav","null","audio-keyboard-response","254","141188","0.0-1.0-253.0","",""
"null","sound/msl/frog.wav","null","audio-keyboard-response","255","141698","0.0-1.0-254.0","",""
"null","sound/msl/cow.wav","null","audio-keyboard-response","256","142198","0.0-1.0-255.0","",""
"null","sound/msl/goat.wav","null","audio-keyboard-response","257","142738","0.0-1.0-256.0","",""
"null","sound/msl/slide_whistle.wav","null","audio-keyboard-response","258","143238","0.0-1.0-257.0","",""
"null","sound/msl/door_bell.wav","null","audio-keyboard-response","259","143748","0.0-1.0-258.0","",""
"null","sound/msl/dog.wav","null","audio-keyboard-response","260","144258","0.0-1.0-259.0","",""
"null","sound/msl/bird.wav","null","audio-keyboard-response","261","144759","0.0-1.0-260.0","",""
"null","sound/msl/cat.wav","null","audio-keyboard-response","262","145258","0.0-1.0-261.0","",""
"null","sound/msl/ding.wav","null","audio-keyboard-response","263","145758","0.0-1.0-262.0","",""
"null","sound/msl/frog.wav","null","audio-keyboard-response","264","146269","0.0-1.0-263.0","",""
"null","sound/msl/clock.wav","null","audio-keyboard-response","265","146819","0.0-1.0-264.0","",""
"null","sound/msl/boing.wav","null","audio-keyboard-response","266","147319","0.0-1.0-265.0","",""
"null","sound/msl/door.wav","null","audio-keyboard-response","267","147814","0.0-1.0-266.0","",""
"null","sound/msl/cow.wav","null","audio-keyboard-response","268","148314","0.0-1.0-267.0","",""
"null","sound/msl/goat.wav","null","audio-keyboard-response","269","148854","0.0-1.0-268.0","",""
"null","sound/msl/slide_whistle.wav","null","audio-keyboard-response","270","149355","0.0-1.0-269.0","",""
"null","sound/msl/organ.wav","null","audio-keyboard-response","271","149855","0.0-1.0-270.0","",""
"null","sound/msl/duck.wav","null","audio-keyboard-response","272","150355","0.0-1.0-271.0","",""
"null","sound/msl/Water.wav","null","audio-keyboard-response","273","150864","0.0-1.0-272.0","",""
"null","sound/msl/door_bell.wav","null","audio-keyboard-response","274","151374","0.0-1.0-273.0","",""
"null","sound/msl/dog.wav","null","audio-keyboard-response","275","151875","0.0-1.0-274.0","",""
"null","sound/msl/bird.wav","null","audio-keyboard-response","276","152384","0.0-1.0-275.0","",""
"null","sound/msl/cat.wav","null","audio-keyboard-response","277","152885","0.0-1.0-276.0","",""
"null","sound/msl/ding.wav","null","audio-keyboard-response","278","153385","0.0-1.0-277.0","",""
"null","sound/msl/frog.wav","null","audio-keyboard-response","279","153894","0.0-1.0-278.0","",""
"null","sound/msl/clock.wav","null","audio-keyboard-response","280","154445","0.0-1.0-279.0","",""
"null","sound/msl/boing.wav","null","audio-keyboard-response","281","154945","0.0-1.0-280.0","",""
"null","sound/msl/door.wav","null","audio-keyboard-response","282","155445","0.0-1.0-281.0","",""
"null","sound/msl/organ.wav","null","audio-keyboard-response","283","155945","0.0-1.0-282.0","",""
"null","sound/msl/duck.wav","null","audio-keyboard-response","284","156455","0.0-1.0-283.0","",""
"null","sound/msl/Water.wav","null","audio-keyboard-response","285","156965","0.0-1.0-284.0","",""
"null","sound/msl/cow.wav","null","audio-keyboard-response","286","157465","0.0-1.0-285.0","",""
"null","sound/msl/goat.wav","null","audio-keyboard-response","287","158006","0.0-1.0-286.0","",""
"null","sound/msl/slide_whistle.wav","null","audio-keyboard-response","288","158505","0.0-1.0-287.0","",""
"null","sound/msl/door_bell.wav","null","audio-keyboard-response","289","159016","0.0-1.0-288.0","",""
"null","sound/msl/dog.wav","null","audio-keyboard-response","290","159516","0.0-1.0-289.0","",""
"null","sound/msl/bird.wav","null","audio-keyboard-response","291","160025","0.0-1.0-290.0","",""
"null","sound/msl/clock.wav","null","audio-keyboard-response","292","160576","0.0-1.0-291.0","",""
"null","sound/msl/boing.wav","null","audio-keyboard-response","293","161076","0.0-1.0-292.0","",""
"null","sound/msl/door.wav","null","audio-keyboard-response","294","161576","0.0-1.0-293.0","",""
"null","sound/msl/cat.wav","null","audio-keyboard-response","295","162075","0.0-1.0-294.0","",""
"null","sound/msl/ding.wav","null","audio-keyboard-response","296","162586","0.0-1.0-295.0","",""
"null","sound/msl/frog.wav","null","audio-keyboard-response","297","163096","0.0-1.0-296.0","",""
"null","sound/msl/door_bell.wav","null","audio-keyboard-response","298","163596","0.0-1.0-297.0","",""
"null","sound/msl/dog.wav","null","audio-keyboard-response","299","164106","0.0-1.0-298.0","",""
"null","sound/msl/bird.wav","null","audio-keyboard-response","300","164616","0.0-1.0-299.0","",""
"null","sound/msl/organ.wav","null","audio-keyboard-response","301","165116","0.0-1.0-300.0","",""
"null","sound/msl/duck.wav","null","audio-keyboard-response","302","165626","0.0-1.0-301.0","",""
"null","sound/msl/Water.wav","null","audio-keyboard-response","303","166137","0.0-1.0-302.0","",""
"null","sound/msl/clock.wav","null","audio-keyboard-response","304","166687","0.0-1.0-303.0","",""
"null","sound/msl/boing.wav","null","audio-keyboard-response","305","167187","0.0-1.0-304.0","",""
"null","sound/msl/door.wav","null","audio-keyboard-response","306","167686","0.0-1.0-305.0","",""
"null","sound/msl/cow.wav","null","audio-keyboard-response","307","168187","0.0-1.0-306.0","",""
"null","sound/msl/goat.wav","null","audio-keyboard-response","308","168727","0.0-1.0-307.0","",""
"null","sound/msl/slide_whistle.wav","null","audio-keyboard-response","309","169227","0.0-1.0-308.0","",""
"null","sound/msl/cat.wav","null","audio-keyboard-response","310","169727","0.0-1.0-309.0","",""
"null","sound/msl/ding.wav","null","audio-keyboard-response","311","170227","0.0-1.0-310.0","",""
"null","sound/msl/frog.wav","null","audio-keyboard-response","312","170737","0.0-1.0-311.0","",""
"null","sound/msl/door_bell.wav","null","audio-keyboard-response","313","171236","0.0-1.0-312.0","",""
"null","sound/msl/dog.wav","null","audio-keyboard-response","314","171747","0.0-1.0-313.0","",""
"null","sound/msl/bird.wav","null","audio-keyboard-response","315","172258","0.0-1.0-314.0","",""
"null","sound/msl/organ.wav","null","audio-keyboard-response","316","172757","0.0-1.0-315.0","",""
"null","sound/msl/duck.wav","null","audio-keyboard-response","317","173267","0.0-1.0-316.0","",""
"null","sound/msl/Water.wav","null","audio-keyboard-response","318","173777","0.0-1.0-317.0","",""
"null","sound/msl/clock.wav","null","audio-keyboard-response","319","174328","0.0-1.0-318.0","",""
"null","sound/msl/boing.wav","null","audio-keyboard-response","320","174828","0.0-1.0-319.0","",""
"null","sound/msl/door.wav","null","audio-keyboard-response","321","175328","0.0-1.0-320.0","",""
"null","sound/msl/cat.wav","null","audio-keyboard-response","322","175828","0.0-1.0-321.0","",""
"null","sound/msl/ding.wav","null","audio-keyboard-response","323","176338","0.0-1.0-322.0","",""
"null","sound/msl/frog.wav","null","audio-keyboard-response","324","176837","0.0-1.0-323.0","",""
"null","sound/msl/organ.wav","null","audio-keyboard-response","325","177338","0.0-1.0-324.0","",""
"null","sound/msl/duck.wav","null","audio-keyboard-response","326","177838","0.0-1.0-325.0","",""
"null","sound/msl/Water.wav","null","audio-keyboard-response","327","178348","0.0-1.0-326.0","",""
"null","sound/msl/cow.wav","null","audio-keyboard-response","328","178859","0.0-1.0-327.0","",""
"null","sound/msl/goat.wav","null","audio-keyboard-response","329","179398","0.0-1.0-328.0","",""
"null","sound/msl/slide_whistle.wav","null","audio-keyboard-response","330","179898","0.0-1.0-329.0","",""
"null","sound/msl/door_bell.wav","null","audio-keyboard-response","331","180398","0.0-1.0-330.0","",""
"null","sound/msl/dog.wav","null","audio-keyboard-response","332","180908","0.0-1.0-331.0","",""
"null","sound/msl/bird.wav","null","audio-keyboard-response","333","181418","0.0-1.0-332.0","",""
"null","sound/msl/clock.wav","null","audio-keyboard-response","334","181969","0.0-1.0-333.0","",""
"null","sound/msl/boing.wav","null","audio-keyboard-response","335","182469","0.0-1.0-334.0","",""
"null","sound/msl/door.wav","null","audio-keyboard-response","336","182968","0.0-1.0-335.0","",""
"null","sound/msl/cow.wav","null","audio-keyboard-response","337","183468","0.0-1.0-336.0","",""
"null","sound/msl/goat.wav","null","audio-keyboard-response","338","184009","0.0-1.0-337.0","",""
"null","sound/msl/slide_whistle.wav","null","audio-keyboard-response","339","184508","0.0-1.0-338.0","",""
"null","sound/msl/cat.wav","null","audio-keyboard-response","340","185008","0.0-1.0-339.0","",""
"null","sound/msl/ding.wav","null","audio-keyboard-response","341","185509","0.0-1.0-340.0","",""
"null","sound/msl/frog.wav","null","audio-keyboard-response","342","186019","0.0-1.0-341.0","",""
"null","sound/msl/clock.wav","null","audio-keyboard-response","343","186569","0.0-1.0-342.0","",""
"null","sound/msl/boing.wav","null","audio-keyboard-response","344","187068","0.0-1.0-343.0","",""
"null","sound/msl/door.wav","null","audio-keyboard-response","345","187569","0.0-1.0-344.0","",""
"null","sound/msl/cat.wav","null","audio-keyboard-response","346","188064","0.0-1.0-345.0","",""
"null","sound/msl/ding.wav","null","audio-keyboard-response","347","188574","0.0-1.0-346.0","",""
"null","sound/msl/frog.wav","null","audio-keyboard-response","348","189074","0.0-1.0-347.0","",""
"null","sound/msl/cow.wav","null","audio-keyboard-response","349","189584","0.0-1.0-348.0","",""
"null","sound/msl/goat.wav","null","audio-keyboard-response","350","190125","0.0-1.0-349.0","",""
"null","sound/msl/slide_whistle.wav","null","audio-keyboard-response","351","190624","0.0-1.0-350.0","",""
"null","sound/msl/door_bell.wav","null","audio-keyboard-response","352","191135","0.0-1.0-351.0","",""
"null","sound/msl/dog.wav","null","audio-keyboard-response","353","191635","0.0-1.0-352.0","",""
"null","sound/msl/bird.wav","null","audio-keyboard-response","354","192144","0.0-1.0-353.0","",""
"null","sound/msl/clock.wav","null","audio-keyboard-response","355","192694","0.0-1.0-354.0","",""
"null","sound/msl/boing.wav","null","audio-keyboard-response","356","193194","0.0-1.0-355.0","",""
"null","sound/msl/door.wav","null","audio-keyboard-response","357","193695","0.0-1.0-356.0","",""
"null","sound/msl/cat.wav","null","audio-keyboard-response","358","194195","0.0-1.0-357.0","",""
"null","sound/msl/ding.wav","null","audio-keyboard-response","359","194705","0.0-1.0-358.0","",""
"null","sound/msl/frog.wav","null","audio-keyboard-response","360","195215","0.0-1.0-359.0","",""
"4758","Instructions2-eng.png","49","image-keyboard-response","361","199973","0.0-2.0","",""
"null","sound/msl/cow.wav","null","audio-keyboard-response","362","200466","0.0-3.0-0.0","",""
"null","sound/msl/boing.wav","null","audio-keyboard-response","363","200966","0.0-3.0-1.0","",""
"null","sound/msl/bird.wav","null","audio-keyboard-response","364","201465","0.0-3.0-2.0","",""
"null","sound/asl/silence.wav","null","audio-keyboard-response","365","201967","0.0-3.0-3.0","",""
"null","sound/msl/cow.wav","null","audio-keyboard-response","366","202466","0.0-3.0-4.0","",""
"null","sound/msl/goat.wav","null","audio-keyboard-response","367","203006","0.0-3.0-5.0","",""
"null","sound/msl/slide_whistle.wav","null","audio-keyboard-response","368","203506","0.0-3.0-6.0","",""
"851","sound/asl/silence.wav","50","audio-keyboard-response","369","204357","0.0-3.0-7.0","true",""
"null","sound/msl/door_bell.wav","null","audio-keyboard-response","370","204867","0.0-4.0-0.0","",""
"null","sound/msl/dog.wav","null","audio-keyboard-response","371","205376","0.0-4.0-1.0","",""
"null","sound/msl/bird.wav","null","audio-keyboard-response","372","205877","0.0-4.0-2.0","",""
"null","sound/asl/silence.wav","null","audio-keyboard-response","373","206378","0.0-4.0-3.0","",""
"null","sound/msl/clock.wav","null","audio-keyboard-response","374","206927","0.0-4.0-4.0","",""
"null","sound/msl/dog.wav","null","audio-keyboard-response","375","207426","0.0-4.0-5.0","",""
"null","sound/msl/frog.wav","null","audio-keyboard-response","376","207937","0.0-4.0-6.0","",""
"491","sound/asl/silence.wav","49","audio-keyboard-response","377","208436","0.0-4.0-7.0","true",""
"null","sound/msl/organ.wav","null","audio-keyboard-response","378","208937","0.0-5.0-0.0","",""
"null","sound/msl/goat.wav","null","audio-keyboard-response","379","209476","0.0-5.0-1.0","",""
"null","sound/msl/door.wav","null","audio-keyboard-response","380","209977","0.0-5.0-2.0","",""
"null","sound/asl/silence.wav","null","audio-keyboard-response","381","210478","0.0-5.0-3.0","",""
"null","sound/msl/clock.wav","null","audio-keyboard-response","382","211027","0.0-5.0-4.0","",""
"null","sound/msl/boing.wav","null","audio-keyboard-response","383","211528","0.0-5.0-5.0","",""
"null","sound/msl/door.wav","null","audio-keyboard-response","384","212028","0.0-5.0-6.0","",""
"1171","sound/asl/silence.wav","50","audio-keyboard-response","385","213204","0.0-5.0-7.0","true",""
"null","sound/msl/clock.wav","null","audio-keyboard-response","386","213748","0.0-6.0-0.0","",""
"null","sound/msl/boing.wav","null","audio-keyboard-response","387","214247","0.0-6.0-1.0","",""
"null","sound/msl/door.wav","null","audio-keyboard-response","388","214747","0.0-6.0-2.0","",""
"null","sound/asl/silence.wav","null","audio-keyboard-response","389","215248","0.0-6.0-3.0","",""
"null","sound/msl/clock.wav","null","audio-keyboard-response","390","215797","0.0-6.0-4.0","",""
"null","sound/msl/dog.wav","null","audio-keyboard-response","391","216308","0.0-6.0-5.0","",""
"null","sound/msl/frog.wav","null","audio-keyboard-response","392","216818","0.0-6.0-6.0","",""
"669","sound/asl/silence.wav","50","audio-keyboard-response","393","217492","0.0-6.0-7.0","false",""
"null","sound/msl/organ.wav","null","audio-keyboard-response","394","217989","0.0-7.0-0.0","",""
"null","sound/msl/duck.wav","null","audio-keyboard-response","395","218498","0.0-7.0-1.0","",""
"null","sound/msl/Water.wav","null","audio-keyboard-response","396","219008","0.0-7.0-2.0","",""
"null","sound/asl/silence.wav","null","audio-keyboard-response","397","219510","0.0-7.0-3.0","",""
"null","sound/msl/cow.wav","null","audio-keyboard-response","398","220019","0.0-7.0-4.0","",""
"null","sound/msl/boing.wav","null","audio-keyboard-response","399","220519","0.0-7.0-5.0","",""
"null","sound/msl/bird.wav","null","audio-keyboard-response","400","221029","0.0-7.0-6.0","",""
"1389","sound/asl/silence.wav","50","audio-keyboard-response","401","222420","0.0-7.0-7.0","false",""
"null","sound/msl/organ.wav","null","audio-keyboard-response","402","222918","0.0-8.0-0.0","",""
"null","sound/msl/goat.wav","null","audio-keyboard-response","403","223459","0.0-8.0-1.0","",""
"null","sound/msl/door.wav","null","audio-keyboard-response","404","223958","0.0-8.0-2.0","",""
"null","sound/asl/silence.wav","null","audio-keyboard-response","405","224460","0.0-8.0-3.0","",""
"null","sound/msl/cow.wav","null","audio-keyboard-response","406","224959","0.0-8.0-4.0","",""
"null","sound/msl/goat.wav","null","audio-keyboard-response","407","225499","0.0-8.0-5.0","",""
"null","sound/msl/slide_whistle.wav","null","audio-keyboard-response","408","225999","0.0-8.0-6.0","",""
"2389","sound/asl/silence.wav","50","audio-keyboard-response","409","228396","0.0-8.0-7.0","true",""
"null","sound/msl/organ.wav","null","audio-keyboard-response","410","228885","0.0-9.0-0.0","",""
"null","sound/msl/duck.wav","null","audio-keyboard-response","411","229385","0.0-9.0-1.0","",""
"null","sound/msl/Water.wav","null","audio-keyboard-response","412","229894","0.0-9.0-2.0","",""
"null","sound/asl/silence.wav","null","audio-keyboard-response","413","230395","0.0-9.0-3.0","",""
"null","sound/msl/cat.wav","null","audio-keyboard-response","414","230894","0.0-9.0-4.0","",""
"null","sound/msl/duck.wav","null","audio-keyboard-response","415","231395","0.0-9.0-5.0","",""
"null","sound/msl/slide_whistle.wav","null","audio-keyboard-response","416","231895","0.0-9.0-6.0","",""
"581","sound/asl/silence.wav","49","audio-keyboard-response","417","232476","0.0-9.0-7.0","true",""
"null","sound/msl/clock.wav","null","audio-keyboard-response","418","233025","0.0-10.0-0.0","",""
"null","sound/msl/dog.wav","null","audio-keyboard-response","419","233535","0.0-10.0-1.0","",""
"null","sound/msl/frog.wav","null","audio-keyboard-response","420","234035","0.0-10.0-2.0","",""
"null","sound/asl/silence.wav","null","audio-keyboard-response","421","234536","0.0-10.0-3.0","",""
"null","sound/msl/organ.wav","null","audio-keyboard-response","422","235035","0.0-10.0-4.0","",""
"null","sound/msl/duck.wav","null","audio-keyboard-response","423","235545","0.0-10.0-5.0","",""
"null","sound/msl/Water.wav","null","audio-keyboard-response","424","236056","0.0-10.0-6.0","",""
"661","sound/asl/silence.wav","49","audio-keyboard-response","425","236725","0.0-10.0-7.0","false",""
"null","sound/msl/cat.wav","null","audio-keyboard-response","426","237225","0.0-11.0-0.0","",""
"null","sound/msl/ding.wav","null","audio-keyboard-response","427","237736","0.0-11.0-1.0","",""
"null","sound/msl/frog.wav","null","audio-keyboard-response","428","238236","0.0-11.0-2.0","",""
"null","sound/asl/silence.wav","null","audio-keyboard-response","429","238737","0.0-11.0-3.0","",""
"null","sound/msl/door_bell.wav","null","audio-keyboard-response","430","239235","0.0-11.0-4.0","",""
"null","sound/msl/ding.wav","null","audio-keyboard-response","431","239746","0.0-11.0-5.0","",""
"null","sound/msl/Water.wav","null","audio-keyboard-response","432","240255","0.0-11.0-6.0","",""
"571","sound/asl/silence.wav","49","audio-keyboard-response","433","240828","0.0-11.0-7.0","true",""
"null","sound/msl/cow.wav","null","audio-keyboard-response","434","241336","0.0-12.0-0.0","",""
"null","sound/msl/boing.wav","null","audio-keyboard-response","435","241836","0.0-12.0-1.0","",""
"null","sound/msl/bird.wav","null","audio-keyboard-response","436","242346","0.0-12.0-2.0","",""
"null","sound/asl/silence.wav","null","audio-keyboard-response","437","242848","0.0-12.0-3.0","",""
"null","sound/msl/cat.wav","null","audio-keyboard-response","438","243346","0.0-12.0-4.0","",""
"null","sound/msl/ding.wav","null","audio-keyboard-response","439","243857","0.0-12.0-5.0","",""
"null","sound/msl/frog.wav","null","audio-keyboard-response","440","244356","0.0-12.0-6.0","",""
"680","sound/asl/silence.wav","50","audio-keyboard-response","441","245044","0.0-12.0-7.0","true",""
"null","sound/msl/organ.wav","null","audio-keyboard-response","442","245537","0.0-13.0-0.0","",""
"null","sound/msl/duck.wav","null","audio-keyboard-response","443","246037","0.0-13.0-1.0","",""
"null","sound/msl/Water.wav","null","audio-keyboard-response","444","246547","0.0-13.0-2.0","",""
"null","sound/asl/silence.wav","null","audio-keyboard-response","445","247048","0.0-13.0-3.0","",""
"null","sound/msl/organ.wav","null","audio-keyboard-response","446","247547","0.0-13.0-4.0","",""
"null","sound/msl/goat.wav","null","audio-keyboard-response","447","248087","0.0-13.0-5.0","",""
"null","sound/msl/door.wav","null","audio-keyboard-response","448","248586","0.0-13.0-6.0","",""
"600","sound/asl/silence.wav","50","audio-keyboard-response","449","249196","0.0-13.0-7.0","false",""
"null","sound/msl/door_bell.wav","null","audio-keyboard-response","450","249708","0.0-14.0-0.0","",""
"null","sound/msl/ding.wav","null","audio-keyboard-response","451","250217","0.0-14.0-1.0","",""
"null","sound/msl/Water.wav","null","audio-keyboard-response","452","250728","0.0-14.0-2.0","",""
"null","sound/asl/silence.wav","null","audio-keyboard-response","453","251230","0.0-14.0-3.0","",""
"null","sound/msl/organ.wav","null","audio-keyboard-response","454","251728","0.0-14.0-4.0","",""
"null","sound/msl/duck.wav","null","audio-keyboard-response","455","252228","0.0-14.0-5.0","",""
"null","sound/msl/Water.wav","null","audio-keyboard-response","456","252737","0.0-14.0-6.0","",""
"691","sound/asl/silence.wav","50","audio-keyboard-response","457","253436","0.0-14.0-7.0","true",""
"null","sound/msl/cow.wav","null","audio-keyboard-response","458","253947","0.0-15.0-0.0","",""
"null","sound/msl/boing.wav","null","audio-keyboard-response","459","254447","0.0-15.0-1.0","",""
"null","sound/msl/bird.wav","null","audio-keyboard-response","460","254949","0.0-15.0-2.0","",""
"null","sound/asl/silence.wav","null","audio-keyboard-response","461","255449","0.0-15.0-3.0","",""
"null","sound/msl/door_bell.wav","null","audio-keyboard-response","462","255948","0.0-15.0-4.0","",""
"null","sound/msl/dog.wav","null","audio-keyboard-response","463","256458","0.0-15.0-5.0","",""
"null","sound/msl/bird.wav","null","audio-keyboard-response","464","256959","0.0-15.0-6.0","",""
"1760","sound/asl/silence.wav","49","audio-keyboard-response","465","258724","0.0-15.0-7.0","false",""
"null","sound/msl/cow.wav","null","audio-keyboard-response","466","259228","0.0-16.0-0.0","",""
"null","sound/msl/boing.wav","null","audio-keyboard-response","467","259729","0.0-16.0-1.0","",""
"null","sound/msl/bird.wav","null","audio-keyboard-response","468","260229","0.0-16.0-2.0","",""
"null","sound/asl/silence.wav","null","audio-keyboard-response","469","260730","0.0-16.0-3.0","",""
"null","sound/msl/clock.wav","null","audio-keyboard-response","470","261278","0.0-16.0-4.0","",""
"null","sound/msl/boing.wav","null","audio-keyboard-response","471","261778","0.0-16.0-5.0","",""
"null","sound/msl/door.wav","null","audio-keyboard-response","472","262279","0.0-16.0-6.0","",""
"2408","sound/asl/silence.wav","49","audio-keyboard-response","473","264693","0.0-16.0-7.0","false",""
"null","sound/msl/clock.wav","null","audio-keyboard-response","474","265239","0.0-17.0-0.0","",""
"null","sound/msl/boing.wav","null","audio-keyboard-response","475","265740","0.0-17.0-1.0","",""
"null","sound/msl/door.wav","null","audio-keyboard-response","476","266240","0.0-17.0-2.0","",""
"null","sound/asl/silence.wav","null","audio-keyboard-response","477","266741","0.0-17.0-3.0","",""
"null","sound/msl/door_bell.wav","null","audio-keyboard-response","478","267240","0.0-17.0-4.0","",""
"null","sound/msl/ding.wav","null","audio-keyboard-response","479","267750","0.0-17.0-5.0","",""
"null","sound/msl/Water.wav","null","audio-keyboard-response","480","268260","0.0-17.0-6.0","",""
"629","sound/asl/silence.wav","50","audio-keyboard-response","481","268892","0.0-17.0-7.0","false",""
"null","sound/msl/cat.wav","null","audio-keyboard-response","482","269389","0.0-18.0-0.0","",""
"null","sound/msl/duck.wav","null","audio-keyboard-response","483","269895","0.0-18.0-1.0","",""
"null","sound/msl/slide_whistle.wav","null","audio-keyboard-response","484","270395","0.0-18.0-2.0","",""
"null","sound/asl/silence.wav","null","audio-keyboard-response","485","270895","0.0-18.0-3.0","",""
"null","sound/msl/cat.wav","null","audio-keyboard-response","486","271395","0.0-18.0-4.0","",""
"null","sound/msl/ding.wav","null","audio-keyboard-response","487","271905","0.0-18.0-5.0","",""
"null","sound/msl/frog.wav","null","audio-keyboard-response","488","272415","0.0-18.0-6.0","",""
"2301","sound/asl/silence.wav","49","audio-keyboard-response","489","274724","0.0-18.0-7.0","false",""
"null","sound/msl/organ.wav","null","audio-keyboard-response","490","275226","0.0-19.0-0.0","",""
"null","sound/msl/goat.wav","null","audio-keyboard-response","491","275766","0.0-19.0-1.0","",""
"null","sound/msl/door.wav","null","audio-keyboard-response","492","276266","0.0-19.0-2.0","",""
"null","sound/asl/silence.wav","null","audio-keyboard-response","493","276767","0.0-19.0-3.0","",""
"null","sound/msl/cat.wav","null","audio-keyboard-response","494","277266","0.0-19.0-4.0","",""
"null","sound/msl/ding.wav","null","audio-keyboard-response","495","277776","0.0-19.0-5.0","",""
"null","sound/msl/frog.wav","null","audio-keyboard-response","496","278276","0.0-19.0-6.0","",""
"680","sound/asl/silence.wav","50","audio-keyboard-response","497","278964","0.0-19.0-7.0","true",""
"null","sound/msl/door_bell.wav","null","audio-keyboard-response","498","279466","0.0-20.0-0.0","",""
"null","sound/msl/dog.wav","null","audio-keyboard-response","499","279976","0.0-20.0-1.0","",""
"null","sound/msl/bird.wav","null","audio-keyboard-response","500","280477","0.0-20.0-2.0","",""
"null","sound/asl/silence.wav","null","audio-keyboard-response","501","280977","0.0-20.0-3.0","",""
"null","sound/msl/door_bell.wav","null","audio-keyboard-response","502","281477","0.0-20.0-4.0","",""
"null","sound/msl/ding.wav","null","audio-keyboard-response","503","281987","0.0-20.0-5.0","",""
"null","sound/msl/Water.wav","null","audio-keyboard-response","504","282496","0.0-20.0-6.0","",""
"411","sound/asl/silence.wav","49","audio-keyboard-response","505","282916","0.0-20.0-7.0","true",""
"null","sound/msl/clock.wav","null","audio-keyboard-response","506","283467","0.0-21.0-0.0","",""
"null","sound/msl/dog.wav","null","audio-keyboard-response","507","283977","0.0-21.0-1.0","",""
"null","sound/msl/frog.wav","null","audio-keyboard-response","508","284476","0.0-21.0-2.0","",""
"null","sound/asl/silence.wav","null","audio-keyboard-response","509","284978","0.0-21.0-3.0","",""
"null","sound/msl/cow.wav","null","audio-keyboard-response","510","285477","0.0-21.0-4.0","",""
"null","sound/msl/goat.wav","null","audio-keyboard-response","511","286017","0.0-21.0-5.0","",""
"null","sound/msl/slide_whistle.wav","null","audio-keyboard-response","512","286516","0.0-21.0-6.0","",""
"709","sound/asl/silence.wav","50","audio-keyboard-response","513","287237","0.0-21.0-7.0","true",""
"null","sound/msl/cow.wav","null","audio-keyboard-response","514","287747","0.0-22.0-0.0","",""
"null","sound/msl/goat.wav","null","audio-keyboard-response","515","288287","0.0-22.0-1.0","",""
"null","sound/msl/slide_whistle.wav","null","audio-keyboard-response","516","288787","0.0-22.0-2.0","",""
"null","sound/asl/silence.wav","null","audio-keyboard-response","517","289289","0.0-22.0-3.0","",""
"null","sound/msl/cat.wav","null","audio-keyboard-response","518","289788","0.0-22.0-4.0","",""
"null","sound/msl/duck.wav","null","audio-keyboard-response","519","290297","0.0-22.0-5.0","",""
"null","sound/msl/slide_whistle.wav","null","audio-keyboard-response","520","290798","0.0-22.0-6.0","",""
"499","sound/asl/silence.wav","49","audio-keyboard-response","521","291301","0.0-22.0-7.0","true",""
"null","sound/msl/cat.wav","null","audio-keyboard-response","522","291797","0.0-23.0-0.0","",""
"null","sound/msl/ding.wav","null","audio-keyboard-response","523","292308","0.0-23.0-1.0","",""
"null","sound/msl/frog.wav","null","audio-keyboard-response","524","292818","0.0-23.0-2.0","",""
"null","sound/asl/silence.wav","null","audio-keyboard-response","525","293319","0.0-23.0-3.0","",""
"null","sound/msl/clock.wav","null","audio-keyboard-response","526","293868","0.0-23.0-4.0","",""
"null","sound/msl/dog.wav","null","audio-keyboard-response","527","294378","0.0-23.0-5.0","",""
"null","sound/msl/frog.wav","null","audio-keyboard-response","528","294878","0.0-23.0-6.0","",""
"600","sound/asl/silence.wav","49","audio-keyboard-response","529","295484","0.0-23.0-7.0","true",""
"null","sound/msl/cow.wav","null","audio-keyboard-response","530","295989","0.0-24.0-0.0","",""
"null","sound/msl/goat.wav","null","audio-keyboard-response","531","296528","0.0-24.0-1.0","",""
"null","sound/msl/slide_whistle.wav","null","audio-keyboard-response","532","297029","0.0-24.0-2.0","",""
"null","sound/asl/silence.wav","null","audio-keyboard-response","533","297530","0.0-24.0-3.0","",""
"null","sound/msl/door_bell.wav","null","audio-keyboard-response","534","298029","0.0-24.0-4.0","",""
"null","sound/msl/ding.wav","null","audio-keyboard-response","535","298539","0.0-24.0-5.0","",""
"null","sound/msl/Water.wav","null","audio-keyboard-response","536","299049","0.0-24.0-6.0","",""
"560","sound/asl/silence.wav","49","audio-keyboard-response","537","299612","0.0-24.0-7.0","true",""
"null","sound/msl/cat.wav","null","audio-keyboard-response","538","300108","0.0-25.0-0.0","",""
"null","sound/msl/duck.wav","null","audio-keyboard-response","539","300619","0.0-25.0-1.0","",""
"null","sound/msl/slide_whistle.wav","null","audio-keyboard-response","540","301119","0.0-25.0-2.0","",""
"null","sound/asl/silence.wav","null","audio-keyboard-response","541","301620","0.0-25.0-3.0","",""
"null","sound/msl/clock.wav","null","audio-keyboard-response","542","302169","0.0-25.0-4.0","",""
"null","sound/msl/boing.wav","null","audio-keyboard-response","543","302669","0.0-25.0-5.0","",""
"null","sound/msl/door.wav","null","audio-keyboard-response","544","303169","0.0-25.0-6.0","",""
"491","sound/asl/silence.wav","50","audio-keyboard-response","545","303668","0.0-25.0-7.0","true",""
"null","sound/msl/door_bell.wav","null","audio-keyboard-response","546","304179","0.0-26.0-0.0","",""
"null","sound/msl/dog.wav","null","audio-keyboard-response","547","304680","0.0-26.0-1.0","",""
"null","sound/msl/bird.wav","null","audio-keyboard-response","548","305189","0.0-26.0-2.0","",""
"null","sound/asl/silence.wav","null","audio-keyboard-response","549","305691","0.0-26.0-3.0","",""
"null","sound/msl/organ.wav","null","audio-keyboard-response","550","306190","0.0-26.0-4.0","",""
"null","sound/msl/goat.wav","null","audio-keyboard-response","551","306729","0.0-26.0-5.0","",""
"null","sound/msl/door.wav","null","audio-keyboard-response","552","307230","0.0-26.0-6.0","",""
"2291","sound/asl/silence.wav","50","audio-keyboard-response","553","309524","0.0-26.0-7.0","false",""
"null","sound/msl/cat.wav","null","audio-keyboard-response","554","310015","0.0-27.0-0.0","",""
"null","sound/msl/duck.wav","null","audio-keyboard-response","555","310515","0.0-27.0-1.0","",""
"null","sound/msl/slide_whistle.wav","null","audio-keyboard-response","556","311015","0.0-27.0-2.0","",""
"null","sound/asl/silence.wav","null","audio-keyboard-response","557","311518","0.0-27.0-3.0","",""
"null","sound/msl/door_bell.wav","null","audio-keyboard-response","558","312026","0.0-27.0-4.0","",""
"null","sound/msl/dog.wav","null","audio-keyboard-response","559","312536","0.0-27.0-5.0","",""
"null","sound/msl/bird.wav","null","audio-keyboard-response","560","313036","0.0-27.0-6.0","",""
"1869","sound/asl/silence.wav","50","audio-keyboard-response","561","314908","0.0-27.0-7.0","true",""
"2502","","","instructions","562","317412","0.0-28.0","","[{""page_index"":0,""viewing_time"":2502}]"
