"rt","stimulus","key_press","trial_type","trial_index","time_elapsed","internal_node_id","correct","view_history"
"15140","alien.jpg","49","image-keyboard-response","0","15144","0.0-0.0","",""
"null","sound/msl/boing.wav","null","audio-keyboard-response","1","15650","0.0-1.0-0.0","",""
"null","sound/msl/cat.wav","null","audio-keyboard-response","2","16160","0.0-1.0-1.0","",""
"null","sound/msl/slide_whistle.wav","null","audio-keyboard-response","3","16669","0.0-1.0-2.0","",""
"null","sound/msl/organ.wav","null","audio-keyboard-response","4","17179","0.0-1.0-3.0","",""
"null","sound/msl/goat.wav","null","audio-keyboard-response","5","17730","0.0-1.0-4.0","",""
"null","sound/msl/ding.wav","null","audio-keyboard-response","6","18250","0.0-1.0-5.0","",""
"null","sound/msl/door.wav","null","audio-keyboard-response","7","18759","0.0-1.0-6.0","",""
"null","sound/msl/frog.wav","null","audio-keyboard-response","8","19270","0.0-1.0-7.0","",""
"null","sound/msl/dog.wav","null","audio-keyboard-response","9","19780","0.0-1.0-8.0","",""
"null","sound/msl/duck.wav","null","audio-keyboard-response","10","20300","0.0-1.0-9.0","",""
"null","sound/msl/clock.wav","null","audio-keyboard-response","11","20860","0.0-1.0-10.0","",""
"null","sound/msl/Water.wav","null","audio-keyboard-response","12","21380","0.0-1.0-11.0","",""
"null","sound/msl/organ.wav","null","audio-keyboard-response","13","21890","0.0-1.0-12.0","",""
"null","sound/msl/goat.wav","null","audio-keyboard-response","14","22440","0.0-1.0-13.0","",""
"null","sound/msl/ding.wav","null","audio-keyboard-response","15","22951","0.0-1.0-14.0","",""
"null","sound/msl/boing.wav","null","audio-keyboard-response","16","23460","0.0-1.0-15.0","",""
"null","sound/msl/cat.wav","null","audio-keyboard-response","17","23970","0.0-1.0-16.0","",""
"null","sound/msl/slide_whistle.wav","null","audio-keyboard-response","18","24490","0.0-1.0-17.0","",""
"null","sound/msl/door_bell.wav","null","audio-keyboard-response","19","25010","0.0-1.0-18.0","",""
"null","sound/msl/cow.wav","null","audio-keyboard-response","20","25531","0.0-1.0-19.0","",""
"null","sound/msl/bird.wav","null","audio-keyboard-response","21","26050","0.0-1.0-20.0","",""
"null","sound/msl/duck.wav","null","audio-keyboard-response","22","26571","0.0-1.0-21.0","",""
"null","sound/msl/clock.wav","null","audio-keyboard-response","23","27131","0.0-1.0-22.0","",""
"null","sound/msl/Water.wav","null","audio-keyboard-response","24","27651","0.0-1.0-23.0","",""
"null","sound/msl/door.wav","null","audio-keyboard-response","25","28161","0.0-1.0-24.0","",""
"null","sound/msl/frog.wav","null","audio-keyboard-response","26","28671","0.0-1.0-25.0","",""
"null","sound/msl/dog.wav","null","audio-keyboard-response","27","29181","0.0-1.0-26.0","",""
"null","sound/msl/boing.wav","null","audio-keyboard-response","28","29691","0.0-1.0-27.0","",""
"null","sound/msl/cat.wav","null","audio-keyboard-response","29","30201","0.0-1.0-28.0","",""
"null","sound/msl/slide_whistle.wav","null","audio-keyboard-response","30","30711","0.0-1.0-29.0","",""
"null","sound/msl/organ.wav","null","audio-keyboard-response","31","31222","0.0-1.0-30.0","",""
"null","sound/msl/goat.wav","null","audio-keyboard-response","32","31771","0.0-1.0-31.0","",""
"null","sound/msl/ding.wav","null","audio-keyboard-response","33","32292","0.0-1.0-32.0","",""
"null","sound/msl/door_bell.wav","null","audio-keyboard-response","34","32812","0.0-1.0-33.0","",""
"null","sound/msl/cow.wav","null","audio-keyboard-response","35","33331","0.0-1.0-34.0","",""
"null","sound/msl/bird.wav","null","audio-keyboard-response","36","33852","0.0-1.0-35.0","",""
"null","sound/msl/door.wav","null","audio-keyboard-response","37","34362","0.0-1.0-36.0","",""
"null","sound/msl/frog.wav","null","audio-keyboard-response","38","34871","0.0-1.0-37.0","",""
"null","sound/msl/dog.wav","null","audio-keyboard-response","39","35382","0.0-1.0-38.0","",""
"null","sound/msl/duck.wav","null","audio-keyboard-response","40","35902","0.0-1.0-39.0","",""
"null","sound/msl/clock.wav","null","audio-keyboard-response","41","36462","0.0-1.0-40.0","",""
"null","sound/msl/Water.wav","null","audio-keyboard-response","42","36982","0.0-1.0-41.0","",""
"null","sound/msl/door_bell.wav","null","audio-keyboard-response","43","37502","0.0-1.0-42.0","",""
"null","sound/msl/cow.wav","null","audio-keyboard-response","44","38022","0.0-1.0-43.0","",""
"null","sound/msl/bird.wav","null","audio-keyboard-response","45","38542","0.0-1.0-44.0","",""
"null","sound/msl/organ.wav","null","audio-keyboard-response","46","39052","0.0-1.0-45.0","",""
"null","sound/msl/goat.wav","null","audio-keyboard-response","47","39603","0.0-1.0-46.0","",""
"null","sound/msl/ding.wav","null","audio-keyboard-response","48","40113","0.0-1.0-47.0","",""
"null","sound/msl/door.wav","null","audio-keyboard-response","49","40623","0.0-1.0-48.0","",""
"null","sound/msl/frog.wav","null","audio-keyboard-response","50","41142","0.0-1.0-49.0","",""
"null","sound/msl/dog.wav","null","audio-keyboard-response","51","41663","0.0-1.0-50.0","",""
"null","sound/msl/boing.wav","null","audio-keyboard-response","52","42172","0.0-1.0-51.0","",""
"null","sound/msl/cat.wav","null","audio-keyboard-response","53","42683","0.0-1.0-52.0","",""
"null","sound/msl/slide_whistle.wav","null","audio-keyboard-response","54","43193","0.0-1.0-53.0","",""
"null","sound/msl/organ.wav","null","audio-keyboard-response","55","43703","0.0-1.0-54.0","",""
"null","sound/msl/goat.wav","null","audio-keyboard-response","56","44253","0.0-1.0-55.0","",""
"null","sound/msl/ding.wav","null","audio-keyboard-response","57","44773","0.0-1.0-56.0","",""
"null","sound/msl/door.wav","null","audio-keyboard-response","58","45283","0.0-1.0-57.0","",""
"null","sound/msl/frog.wav","null","audio-keyboard-response","59","45793","0.0-1.0-58.0","",""
"null","sound/msl/dog.wav","null","audio-keyboard-response","60","46303","0.0-1.0-59.0","",""
"null","sound/msl/duck.wav","null","audio-keyboard-response","61","46823","0.0-1.0-60.0","",""
"null","sound/msl/clock.wav","null","audio-keyboard-response","62","47377","0.0-1.0-61.0","",""
"null","sound/msl/Water.wav","null","audio-keyboard-response","63","47898","0.0-1.0-62.0","",""
"null","sound/msl/door_bell.wav","null","audio-keyboard-response","64","48419","0.0-1.0-63.0","",""
"null","sound/msl/cow.wav","null","audio-keyboard-response","65","48939","0.0-1.0-64.0","",""
"null","sound/msl/bird.wav","null","audio-keyboard-response","66","49458","0.0-1.0-65.0","",""
"null","sound/msl/organ.wav","null","audio-keyboard-response","67","49968","0.0-1.0-66.0","",""
"null","sound/msl/goat.wav","null","audio-keyboard-response","68","50518","0.0-1.0-67.0","",""
"null","sound/msl/ding.wav","null","audio-keyboard-response","69","51028","0.0-1.0-68.0","",""
"null","sound/msl/boing.wav","null","audio-keyboard-response","70","51539","0.0-1.0-69.0","",""
"null","sound/msl/cat.wav","null","audio-keyboard-response","71","52049","0.0-1.0-70.0","",""
"null","sound/msl/slide_whistle.wav","null","audio-keyboard-response","72","52569","0.0-1.0-71.0","",""
"null","sound/msl/door.wav","null","audio-keyboard-response","73","53078","0.0-1.0-72.0","",""
"null","sound/msl/frog.wav","null","audio-keyboard-response","74","53589","0.0-1.0-73.0","",""
"null","sound/msl/dog.wav","null","audio-keyboard-response","75","54098","0.0-1.0-74.0","",""
"null","sound/msl/duck.wav","null","audio-keyboard-response","76","54620","0.0-1.0-75.0","",""
"null","sound/msl/clock.wav","null","audio-keyboard-response","77","55179","0.0-1.0-76.0","",""
"null","sound/msl/Water.wav","null","audio-keyboard-response","78","55700","0.0-1.0-77.0","",""
"null","sound/msl/door.wav","null","audio-keyboard-response","79","56210","0.0-1.0-78.0","",""
"null","sound/msl/frog.wav","null","audio-keyboard-response","80","56730","0.0-1.0-79.0","",""
"null","sound/msl/dog.wav","null","audio-keyboard-response","81","57250","0.0-1.0-80.0","",""
"null","sound/msl/door_bell.wav","null","audio-keyboard-response","82","57770","0.0-1.0-81.0","",""
"null","sound/msl/cow.wav","null","audio-keyboard-response","83","58290","0.0-1.0-82.0","",""
"null","sound/msl/bird.wav","null","audio-keyboard-response","84","58811","0.0-1.0-83.0","",""
"null","sound/msl/boing.wav","null","audio-keyboard-response","85","59320","0.0-1.0-84.0","",""
"null","sound/msl/cat.wav","null","audio-keyboard-response","86","59831","0.0-1.0-85.0","",""
"null","sound/msl/slide_whistle.wav","null","audio-keyboard-response","87","60340","0.0-1.0-86.0","",""
"null","sound/msl/organ.wav","null","audio-keyboard-response","88","60850","0.0-1.0-87.0","",""
"null","sound/msl/goat.wav","null","audio-keyboard-response","89","61401","0.0-1.0-88.0","",""
"null","sound/msl/ding.wav","null","audio-keyboard-response","90","61911","0.0-1.0-89.0","",""
"null","sound/msl/door_bell.wav","null","audio-keyboard-response","91","62420","0.0-1.0-90.0","",""
"null","sound/msl/cow.wav","null","audio-keyboard-response","92","62942","0.0-1.0-91.0","",""
"null","sound/msl/bird.wav","null","audio-keyboard-response","93","63460","0.0-1.0-92.0","",""
"null","sound/msl/duck.wav","null","audio-keyboard-response","94","63981","0.0-1.0-93.0","",""
"null","sound/msl/clock.wav","null","audio-keyboard-response","95","64541","0.0-1.0-94.0","",""
"null","sound/msl/Water.wav","null","audio-keyboard-response","96","65060","0.0-1.0-95.0","",""
"null","sound/msl/door.wav","null","audio-keyboard-response","97","65571","0.0-1.0-96.0","",""
"null","sound/msl/frog.wav","null","audio-keyboard-response","98","66091","0.0-1.0-97.0","",""
"null","sound/msl/dog.wav","null","audio-keyboard-response","99","66611","0.0-1.0-98.0","",""
"null","sound/msl/organ.wav","null","audio-keyboard-response","100","67121","0.0-1.0-99.0","",""
"null","sound/msl/goat.wav","null","audio-keyboard-response","101","67671","0.0-1.0-100.0","",""
"null","sound/msl/ding.wav","null","audio-keyboard-response","102","68182","0.0-1.0-101.0","",""
"null","sound/msl/door_bell.wav","null","audio-keyboard-response","103","68702","0.0-1.0-102.0","",""
"null","sound/msl/cow.wav","null","audio-keyboard-response","104","69221","0.0-1.0-103.0","",""
"null","sound/msl/bird.wav","null","audio-keyboard-response","105","69742","0.0-1.0-104.0","",""
"null","sound/msl/boing.wav","null","audio-keyboard-response","106","70252","0.0-1.0-105.0","",""
"null","sound/msl/cat.wav","null","audio-keyboard-response","107","70762","0.0-1.0-106.0","",""
"null","sound/msl/slide_whistle.wav","null","audio-keyboard-response","108","71272","0.0-1.0-107.0","",""
"null","sound/msl/organ.wav","null","audio-keyboard-response","109","71781","0.0-1.0-108.0","",""
"null","sound/msl/goat.wav","null","audio-keyboard-response","110","72332","0.0-1.0-109.0","",""
"null","sound/msl/ding.wav","null","audio-keyboard-response","111","72852","0.0-1.0-110.0","",""
"null","sound/msl/duck.wav","null","audio-keyboard-response","112","73371","0.0-1.0-111.0","",""
"null","sound/msl/clock.wav","null","audio-keyboard-response","113","73931","0.0-1.0-112.0","",""
"null","sound/msl/Water.wav","null","audio-keyboard-response","114","74452","0.0-1.0-113.0","",""
"null","sound/msl/door_bell.wav","null","audio-keyboard-response","115","74972","0.0-1.0-114.0","",""
"null","sound/msl/cow.wav","null","audio-keyboard-response","116","75492","0.0-1.0-115.0","",""
"null","sound/msl/bird.wav","null","audio-keyboard-response","117","76012","0.0-1.0-116.0","",""
"null","sound/msl/door.wav","null","audio-keyboard-response","118","76523","0.0-1.0-117.0","",""
"null","sound/msl/frog.wav","null","audio-keyboard-response","119","77032","0.0-1.0-118.0","",""
"null","sound/msl/dog.wav","null","audio-keyboard-response","120","77543","0.0-1.0-119.0","",""
"null","sound/msl/boing.wav","null","audio-keyboard-response","121","78053","0.0-1.0-120.0","",""
"null","sound/msl/cat.wav","null","audio-keyboard-response","122","78563","0.0-1.0-121.0","",""
"null","sound/msl/slide_whistle.wav","null","audio-keyboard-response","123","79072","0.0-1.0-122.0","",""
"null","sound/msl/organ.wav","null","audio-keyboard-response","124","79582","0.0-1.0-123.0","",""
"null","sound/msl/goat.wav","null","audio-keyboard-response","125","80134","0.0-1.0-124.0","",""
"null","sound/msl/ding.wav","null","audio-keyboard-response","126","80653","0.0-1.0-125.0","",""
"null","sound/msl/door_bell.wav","null","audio-keyboard-response","127","81173","0.0-1.0-126.0","",""
"null","sound/msl/cow.wav","null","audio-keyboard-response","128","81693","0.0-1.0-127.0","",""
"null","sound/msl/bird.wav","null","audio-keyboard-response","129","82213","0.0-1.0-128.0","",""
"null","sound/msl/duck.wav","null","audio-keyboard-response","130","82733","0.0-1.0-129.0","",""
"null","sound/msl/clock.wav","null","audio-keyboard-response","131","83293","0.0-1.0-130.0","",""
"null","sound/msl/Water.wav","null","audio-keyboard-response","132","83813","0.0-1.0-131.0","",""
"null","sound/msl/organ.wav","null","audio-keyboard-response","133","84324","0.0-1.0-132.0","",""
"null","sound/msl/goat.wav","null","audio-keyboard-response","134","84873","0.0-1.0-133.0","",""
"null","sound/msl/ding.wav","null","audio-keyboard-response","135","85383","0.0-1.0-134.0","",""
"null","sound/msl/door.wav","null","audio-keyboard-response","136","85893","0.0-1.0-135.0","",""
"null","sound/msl/frog.wav","null","audio-keyboard-response","137","86414","0.0-1.0-136.0","",""
"null","sound/msl/dog.wav","null","audio-keyboard-response","138","86934","0.0-1.0-137.0","",""
"null","sound/msl/duck.wav","null","audio-keyboard-response","139","87448","0.0-1.0-138.0","",""
"null","sound/msl/clock.wav","null","audio-keyboard-response","140","88008","0.0-1.0-139.0","",""
"null","sound/msl/Water.wav","null","audio-keyboard-response","141","88529","0.0-1.0-140.0","",""
"null","sound/msl/boing.wav","null","audio-keyboard-response","142","89038","0.0-1.0-141.0","",""
"null","sound/msl/cat.wav","null","audio-keyboard-response","143","89549","0.0-1.0-142.0","",""
"null","sound/msl/slide_whistle.wav","null","audio-keyboard-response","144","90059","0.0-1.0-143.0","",""
"null","sound/msl/door_bell.wav","null","audio-keyboard-response","145","90579","0.0-1.0-144.0","",""
"null","sound/msl/cow.wav","null","audio-keyboard-response","146","91099","0.0-1.0-145.0","",""
"null","sound/msl/bird.wav","null","audio-keyboard-response","147","91619","0.0-1.0-146.0","",""
"null","sound/msl/door.wav","null","audio-keyboard-response","148","92129","0.0-1.0-147.0","",""
"null","sound/msl/frog.wav","null","audio-keyboard-response","149","92649","0.0-1.0-148.0","",""
"null","sound/msl/dog.wav","null","audio-keyboard-response","150","93170","0.0-1.0-149.0","",""
"null","sound/msl/boing.wav","null","audio-keyboard-response","151","93680","0.0-1.0-150.0","",""
"null","sound/msl/cat.wav","null","audio-keyboard-response","152","94189","0.0-1.0-151.0","",""
"null","sound/msl/slide_whistle.wav","null","audio-keyboard-response","153","94700","0.0-1.0-152.0","",""
"null","sound/msl/organ.wav","null","audio-keyboard-response","154","95210","0.0-1.0-153.0","",""
"null","sound/msl/goat.wav","null","audio-keyboard-response","155","95760","0.0-1.0-154.0","",""
"null","sound/msl/ding.wav","null","audio-keyboard-response","156","96270","0.0-1.0-155.0","",""
"null","sound/msl/duck.wav","null","audio-keyboard-response","157","96780","0.0-1.0-156.0","",""
"null","sound/msl/clock.wav","null","audio-keyboard-response","158","97339","0.0-1.0-157.0","",""
"null","sound/msl/Water.wav","null","audio-keyboard-response","159","97860","0.0-1.0-158.0","",""
"null","sound/msl/door_bell.wav","null","audio-keyboard-response","160","98380","0.0-1.0-159.0","",""
"null","sound/msl/cow.wav","null","audio-keyboard-response","161","98900","0.0-1.0-160.0","",""
"null","sound/msl/bird.wav","null","audio-keyboard-response","162","99420","0.0-1.0-161.0","",""
"null","sound/msl/organ.wav","null","audio-keyboard-response","163","99930","0.0-1.0-162.0","",""
"null","sound/msl/goat.wav","null","audio-keyboard-response","164","100480","0.0-1.0-163.0","",""
"null","sound/msl/ding.wav","null","audio-keyboard-response","165","100990","0.0-1.0-164.0","",""
"null","sound/msl/duck.wav","null","audio-keyboard-response","166","101500","0.0-1.0-165.0","",""
"null","sound/msl/clock.wav","null","audio-keyboard-response","167","102061","0.0-1.0-166.0","",""
"null","sound/msl/Water.wav","null","audio-keyboard-response","168","102581","0.0-1.0-167.0","",""
"null","sound/msl/boing.wav","null","audio-keyboard-response","169","103090","0.0-1.0-168.0","",""
"null","sound/msl/cat.wav","null","audio-keyboard-response","170","103601","0.0-1.0-169.0","",""
"null","sound/msl/slide_whistle.wav","null","audio-keyboard-response","171","104110","0.0-1.0-170.0","",""
"null","sound/msl/door.wav","null","audio-keyboard-response","172","104621","0.0-1.0-171.0","",""
"null","sound/msl/frog.wav","null","audio-keyboard-response","173","105140","0.0-1.0-172.0","",""
"null","sound/msl/dog.wav","null","audio-keyboard-response","174","105660","0.0-1.0-173.0","",""
"null","sound/msl/door_bell.wav","null","audio-keyboard-response","175","106181","0.0-1.0-174.0","",""
"null","sound/msl/cow.wav","null","audio-keyboard-response","176","106701","0.0-1.0-175.0","",""
"null","sound/msl/bird.wav","null","audio-keyboard-response","177","107222","0.0-1.0-176.0","",""
"null","sound/msl/organ.wav","null","audio-keyboard-response","178","107731","0.0-1.0-177.0","",""
"null","sound/msl/goat.wav","null","audio-keyboard-response","179","108282","0.0-1.0-178.0","",""
"null","sound/msl/ding.wav","null","audio-keyboard-response","180","108792","0.0-1.0-179.0","",""
"null","sound/msl/door.wav","null","audio-keyboard-response","181","109302","0.0-1.0-180.0","",""
"null","sound/msl/frog.wav","null","audio-keyboard-response","182","109821","0.0-1.0-181.0","",""
"null","sound/msl/dog.wav","null","audio-keyboard-response","183","110342","0.0-1.0-182.0","",""
"null","sound/msl/duck.wav","null","audio-keyboard-response","184","110862","0.0-1.0-183.0","",""
"null","sound/msl/clock.wav","null","audio-keyboard-response","185","111421","0.0-1.0-184.0","",""
"null","sound/msl/Water.wav","null","audio-keyboard-response","186","111942","0.0-1.0-185.0","",""
"null","sound/msl/boing.wav","null","audio-keyboard-response","187","112452","0.0-1.0-186.0","",""
"null","sound/msl/cat.wav","null","audio-keyboard-response","188","112962","0.0-1.0-187.0","",""
"null","sound/msl/slide_whistle.wav","null","audio-keyboard-response","189","113471","0.0-1.0-188.0","",""
"null","sound/msl/door_bell.wav","null","audio-keyboard-response","190","113982","0.0-1.0-189.0","",""
"null","sound/msl/cow.wav","null","audio-keyboard-response","191","114502","0.0-1.0-190.0","",""
"null","sound/msl/bird.wav","null","audio-keyboard-response","192","115022","0.0-1.0-191.0","",""
"null","sound/msl/organ.wav","null","audio-keyboard-response","193","115532","0.0-1.0-192.0","",""
"null","sound/msl/goat.wav","null","audio-keyboard-response","194","116082","0.0-1.0-193.0","",""
"null","sound/msl/ding.wav","null","audio-keyboard-response","195","116592","0.0-1.0-194.0","",""
"null","sound/msl/door.wav","null","audio-keyboard-response","196","117103","0.0-1.0-195.0","",""
"null","sound/msl/frog.wav","null","audio-keyboard-response","197","117622","0.0-1.0-196.0","",""
"null","sound/msl/dog.wav","null","audio-keyboard-response","198","118143","0.0-1.0-197.0","",""
"null","sound/msl/boing.wav","null","audio-keyboard-response","199","118653","0.0-1.0-198.0","",""
"null","sound/msl/cat.wav","null","audio-keyboard-response","200","119163","0.0-1.0-199.0","",""
"null","sound/msl/slide_whistle.wav","null","audio-keyboard-response","201","119673","0.0-1.0-200.0","",""
"null","sound/msl/duck.wav","null","audio-keyboard-response","202","120183","0.0-1.0-201.0","",""
"null","sound/msl/clock.wav","null","audio-keyboard-response","203","120742","0.0-1.0-202.0","",""
"null","sound/msl/Water.wav","null","audio-keyboard-response","204","121264","0.0-1.0-203.0","",""
"null","sound/msl/door_bell.wav","null","audio-keyboard-response","205","121783","0.0-1.0-204.0","",""
"null","sound/msl/cow.wav","null","audio-keyboard-response","206","122303","0.0-1.0-205.0","",""
"null","sound/msl/bird.wav","null","audio-keyboard-response","207","122825","0.0-1.0-206.0","",""
"null","sound/msl/organ.wav","null","audio-keyboard-response","208","123334","0.0-1.0-207.0","",""
"null","sound/msl/goat.wav","null","audio-keyboard-response","209","123884","0.0-1.0-208.0","",""
"null","sound/msl/ding.wav","null","audio-keyboard-response","210","124393","0.0-1.0-209.0","",""
"null","sound/msl/boing.wav","null","audio-keyboard-response","211","124904","0.0-1.0-210.0","",""
"null","sound/msl/cat.wav","null","audio-keyboard-response","212","125414","0.0-1.0-211.0","",""
"null","sound/msl/slide_whistle.wav","null","audio-keyboard-response","213","125934","0.0-1.0-212.0","",""
"null","sound/msl/door_bell.wav","null","audio-keyboard-response","214","126454","0.0-1.0-213.0","",""
"null","sound/msl/cow.wav","null","audio-keyboard-response","215","126974","0.0-1.0-214.0","",""
"null","sound/msl/bird.wav","null","audio-keyboard-response","216","127496","0.0-1.0-215.0","",""
"null","sound/msl/door.wav","null","audio-keyboard-response","217","128004","0.0-1.0-216.0","",""
"null","sound/msl/frog.wav","null","audio-keyboard-response","218","128509","0.0-1.0-217.0","",""
"null","sound/msl/dog.wav","null","audio-keyboard-response","219","129019","0.0-1.0-218.0","",""
"null","sound/msl/duck.wav","null","audio-keyboard-response","220","129539","0.0-1.0-219.0","",""
"null","sound/msl/clock.wav","null","audio-keyboard-response","221","130099","0.0-1.0-220.0","",""
"null","sound/msl/Water.wav","null","audio-keyboard-response","222","130620","0.0-1.0-221.0","",""
"null","sound/msl/organ.wav","null","audio-keyboard-response","223","131129","0.0-1.0-222.0","",""
"null","sound/msl/goat.wav","null","audio-keyboard-response","224","131680","0.0-1.0-223.0","",""
"null","sound/msl/ding.wav","null","audio-keyboard-response","225","132190","0.0-1.0-224.0","",""
"null","sound/msl/door.wav","null","audio-keyboard-response","226","132701","0.0-1.0-225.0","",""
"null","sound/msl/frog.wav","null","audio-keyboard-response","227","133220","0.0-1.0-226.0","",""
"null","sound/msl/dog.wav","null","audio-keyboard-response","228","133740","0.0-1.0-227.0","",""
"null","sound/msl/door_bell.wav","null","audio-keyboard-response","229","134260","0.0-1.0-228.0","",""
"null","sound/msl/cow.wav","null","audio-keyboard-response","230","134780","0.0-1.0-229.0","",""
"null","sound/msl/bird.wav","null","audio-keyboard-response","231","135300","0.0-1.0-230.0","",""
"null","sound/msl/door.wav","null","audio-keyboard-response","232","135810","0.0-1.0-231.0","",""
"null","sound/msl/frog.wav","null","audio-keyboard-response","233","136330","0.0-1.0-232.0","",""
"null","sound/msl/dog.wav","null","audio-keyboard-response","234","136850","0.0-1.0-233.0","",""
"null","sound/msl/organ.wav","null","audio-keyboard-response","235","137360","0.0-1.0-234.0","",""
"null","sound/msl/goat.wav","null","audio-keyboard-response","236","137911","0.0-1.0-235.0","",""
"null","sound/msl/ding.wav","null","audio-keyboard-response","237","138420","0.0-1.0-236.0","",""
"null","sound/msl/duck.wav","null","audio-keyboard-response","238","138940","0.0-1.0-237.0","",""
"null","sound/msl/clock.wav","null","audio-keyboard-response","239","139500","0.0-1.0-238.0","",""
"null","sound/msl/Water.wav","null","audio-keyboard-response","240","140021","0.0-1.0-239.0","",""
"null","sound/msl/boing.wav","null","audio-keyboard-response","241","140531","0.0-1.0-240.0","",""
"null","sound/msl/cat.wav","null","audio-keyboard-response","242","141041","0.0-1.0-241.0","",""
"null","sound/msl/slide_whistle.wav","null","audio-keyboard-response","243","141551","0.0-1.0-242.0","",""
"null","sound/msl/door_bell.wav","null","audio-keyboard-response","244","142061","0.0-1.0-243.0","",""
"null","sound/msl/cow.wav","null","audio-keyboard-response","245","142581","0.0-1.0-244.0","",""
"null","sound/msl/bird.wav","null","audio-keyboard-response","246","143101","0.0-1.0-245.0","",""
"null","sound/msl/organ.wav","null","audio-keyboard-response","247","143611","0.0-1.0-246.0","",""
"null","sound/msl/goat.wav","null","audio-keyboard-response","248","144162","0.0-1.0-247.0","",""
"null","sound/msl/ding.wav","null","audio-keyboard-response","249","144672","0.0-1.0-248.0","",""
"null","sound/msl/duck.wav","null","audio-keyboard-response","250","145182","0.0-1.0-249.0","",""
"null","sound/msl/clock.wav","null","audio-keyboard-response","251","145741","0.0-1.0-250.0","",""
"null","sound/msl/Water.wav","null","audio-keyboard-response","252","146262","0.0-1.0-251.0","",""
"null","sound/msl/boing.wav","null","audio-keyboard-response","253","146771","0.0-1.0-252.0","",""
"null","sound/msl/cat.wav","null","audio-keyboard-response","254","147282","0.0-1.0-253.0","",""
"null","sound/msl/slide_whistle.wav","null","audio-keyboard-response","255","147792","0.0-1.0-254.0","",""
"null","sound/msl/door.wav","null","audio-keyboard-response","256","148302","0.0-1.0-255.0","",""
"null","sound/msl/frog.wav","null","audio-keyboard-response","257","148822","0.0-1.0-256.0","",""
"null","sound/msl/dog.wav","null","audio-keyboard-response","258","149342","0.0-1.0-257.0","",""
"null","sound/msl/door_bell.wav","null","audio-keyboard-response","259","149862","0.0-1.0-258.0","",""
"null","sound/msl/cow.wav","null","audio-keyboard-response","260","150382","0.0-1.0-259.0","",""
"null","sound/msl/bird.wav","null","audio-keyboard-response","261","150902","0.0-1.0-260.0","",""
"null","sound/msl/boing.wav","null","audio-keyboard-response","262","151413","0.0-1.0-261.0","",""
"null","sound/msl/cat.wav","null","audio-keyboard-response","263","151923","0.0-1.0-262.0","",""
"null","sound/msl/slide_whistle.wav","null","audio-keyboard-response","264","152432","0.0-1.0-263.0","",""
"null","sound/msl/duck.wav","null","audio-keyboard-response","265","152943","0.0-1.0-264.0","",""
"null","sound/msl/clock.wav","null","audio-keyboard-response","266","153503","0.0-1.0-265.0","",""
"null","sound/msl/Water.wav","null","audio-keyboard-response","267","154022","0.0-1.0-266.0","",""
"null","sound/msl/door.wav","null","audio-keyboard-response","268","154532","0.0-1.0-267.0","",""
"null","sound/msl/frog.wav","null","audio-keyboard-response","269","155052","0.0-1.0-268.0","",""
"null","sound/msl/dog.wav","null","audio-keyboard-response","270","155572","0.0-1.0-269.0","",""
"null","sound/msl/organ.wav","null","audio-keyboard-response","271","156083","0.0-1.0-270.0","",""
"null","sound/msl/goat.wav","null","audio-keyboard-response","272","156632","0.0-1.0-271.0","",""
"null","sound/msl/ding.wav","null","audio-keyboard-response","273","157142","0.0-1.0-272.0","",""
"null","sound/msl/door_bell.wav","null","audio-keyboard-response","274","157663","0.0-1.0-273.0","",""
"null","sound/msl/cow.wav","null","audio-keyboard-response","275","158183","0.0-1.0-274.0","",""
"null","sound/msl/bird.wav","null","audio-keyboard-response","276","158703","0.0-1.0-275.0","",""
"null","sound/msl/boing.wav","null","audio-keyboard-response","277","159213","0.0-1.0-276.0","",""
"null","sound/msl/cat.wav","null","audio-keyboard-response","278","159723","0.0-1.0-277.0","",""
"null","sound/msl/slide_whistle.wav","null","audio-keyboard-response","279","160233","0.0-1.0-278.0","",""
"null","sound/msl/duck.wav","null","audio-keyboard-response","280","160743","0.0-1.0-279.0","",""
"null","sound/msl/clock.wav","null","audio-keyboard-response","281","161303","0.0-1.0-280.0","",""
"null","sound/msl/Water.wav","null","audio-keyboard-response","282","161823","0.0-1.0-281.0","",""
"null","sound/msl/organ.wav","null","audio-keyboard-response","283","162334","0.0-1.0-282.0","",""
"null","sound/msl/goat.wav","null","audio-keyboard-response","284","162883","0.0-1.0-283.0","",""
"null","sound/msl/ding.wav","null","audio-keyboard-response","285","163394","0.0-1.0-284.0","",""
"null","sound/msl/door.wav","null","audio-keyboard-response","286","163904","0.0-1.0-285.0","",""
"null","sound/msl/frog.wav","null","audio-keyboard-response","287","164423","0.0-1.0-286.0","",""
"null","sound/msl/dog.wav","null","audio-keyboard-response","288","164944","0.0-1.0-287.0","",""
"null","sound/msl/door_bell.wav","null","audio-keyboard-response","289","165464","0.0-1.0-288.0","",""
"null","sound/msl/cow.wav","null","audio-keyboard-response","290","165984","0.0-1.0-289.0","",""
"null","sound/msl/bird.wav","null","audio-keyboard-response","291","166504","0.0-1.0-290.0","",""
"null","sound/msl/duck.wav","null","audio-keyboard-response","292","167024","0.0-1.0-291.0","",""
"null","sound/msl/clock.wav","null","audio-keyboard-response","293","167585","0.0-1.0-292.0","",""
"null","sound/msl/Water.wav","null","audio-keyboard-response","294","168105","0.0-1.0-293.0","",""
"null","sound/msl/boing.wav","null","audio-keyboard-response","295","168614","0.0-1.0-294.0","",""
"null","sound/msl/cat.wav","null","audio-keyboard-response","296","169124","0.0-1.0-295.0","",""
"null","sound/msl/slide_whistle.wav","null","audio-keyboard-response","297","169630","0.0-1.0-296.0","",""
"null","sound/msl/door_bell.wav","null","audio-keyboard-response","298","170140","0.0-1.0-297.0","",""
"null","sound/msl/cow.wav","null","audio-keyboard-response","299","170660","0.0-1.0-298.0","",""
"null","sound/msl/bird.wav","null","audio-keyboard-response","300","171180","0.0-1.0-299.0","",""
"null","sound/msl/organ.wav","null","audio-keyboard-response","301","171690","0.0-1.0-300.0","",""
"null","sound/msl/goat.wav","null","audio-keyboard-response","302","172240","0.0-1.0-301.0","",""
"null","sound/msl/ding.wav","null","audio-keyboard-response","303","172749","0.0-1.0-302.0","",""
"null","sound/msl/duck.wav","null","audio-keyboard-response","304","173260","0.0-1.0-303.0","",""
"null","sound/msl/clock.wav","null","audio-keyboard-response","305","173820","0.0-1.0-304.0","",""
"null","sound/msl/Water.wav","null","audio-keyboard-response","306","174340","0.0-1.0-305.0","",""
"null","sound/msl/door.wav","null","audio-keyboard-response","307","174850","0.0-1.0-306.0","",""
"null","sound/msl/frog.wav","null","audio-keyboard-response","308","175371","0.0-1.0-307.0","",""
"null","sound/msl/dog.wav","null","audio-keyboard-response","309","175891","0.0-1.0-308.0","",""
"null","sound/msl/boing.wav","null","audio-keyboard-response","310","176401","0.0-1.0-309.0","",""
"null","sound/msl/cat.wav","null","audio-keyboard-response","311","176911","0.0-1.0-310.0","",""
"null","sound/msl/slide_whistle.wav","null","audio-keyboard-response","312","177420","0.0-1.0-311.0","",""
"null","sound/msl/door_bell.wav","null","audio-keyboard-response","313","177941","0.0-1.0-312.0","",""
"null","sound/msl/cow.wav","null","audio-keyboard-response","314","178461","0.0-1.0-313.0","",""
"null","sound/msl/bird.wav","null","audio-keyboard-response","315","178980","0.0-1.0-314.0","",""
"null","sound/msl/organ.wav","null","audio-keyboard-response","316","179491","0.0-1.0-315.0","",""
"null","sound/msl/goat.wav","null","audio-keyboard-response","317","180041","0.0-1.0-316.0","",""
"null","sound/msl/ding.wav","null","audio-keyboard-response","318","180551","0.0-1.0-317.0","",""
"null","sound/msl/duck.wav","null","audio-keyboard-response","319","181061","0.0-1.0-318.0","",""
"null","sound/msl/clock.wav","null","audio-keyboard-response","320","181621","0.0-1.0-319.0","",""
"null","sound/msl/Water.wav","null","audio-keyboard-response","321","182141","0.0-1.0-320.0","",""
"null","sound/msl/boing.wav","null","audio-keyboard-response","322","182651","0.0-1.0-321.0","",""
"null","sound/msl/cat.wav","null","audio-keyboard-response","323","183161","0.0-1.0-322.0","",""
"null","sound/msl/slide_whistle.wav","null","audio-keyboard-response","324","183671","0.0-1.0-323.0","",""
"null","sound/msl/organ.wav","null","audio-keyboard-response","325","184181","0.0-1.0-324.0","",""
"null","sound/msl/goat.wav","null","audio-keyboard-response","326","184731","0.0-1.0-325.0","",""
"null","sound/msl/ding.wav","null","audio-keyboard-response","327","185252","0.0-1.0-326.0","",""
"null","sound/msl/door.wav","null","audio-keyboard-response","328","185761","0.0-1.0-327.0","",""
"null","sound/msl/frog.wav","null","audio-keyboard-response","329","186271","0.0-1.0-328.0","",""
"null","sound/msl/dog.wav","null","audio-keyboard-response","330","186782","0.0-1.0-329.0","",""
"null","sound/msl/door_bell.wav","null","audio-keyboard-response","331","187304","0.0-1.0-330.0","",""
"null","sound/msl/cow.wav","null","audio-keyboard-response","332","187822","0.0-1.0-331.0","",""
"null","sound/msl/bird.wav","null","audio-keyboard-response","333","188342","0.0-1.0-332.0","",""
"null","sound/msl/duck.wav","null","audio-keyboard-response","334","188862","0.0-1.0-333.0","",""
"null","sound/msl/clock.wav","null","audio-keyboard-response","335","189422","0.0-1.0-334.0","",""
"null","sound/msl/Water.wav","null","audio-keyboard-response","336","189943","0.0-1.0-335.0","",""
"null","sound/msl/door.wav","null","audio-keyboard-response","337","190453","0.0-1.0-336.0","",""
"null","sound/msl/frog.wav","null","audio-keyboard-response","338","190972","0.0-1.0-337.0","",""
"null","sound/msl/dog.wav","null","audio-keyboard-response","339","191493","0.0-1.0-338.0","",""
"null","sound/msl/boing.wav","null","audio-keyboard-response","340","192004","0.0-1.0-339.0","",""
"null","sound/msl/cat.wav","null","audio-keyboard-response","341","192512","0.0-1.0-340.0","",""
"null","sound/msl/slide_whistle.wav","null","audio-keyboard-response","342","193022","0.0-1.0-341.0","",""
"null","sound/msl/duck.wav","null","audio-keyboard-response","343","193542","0.0-1.0-342.0","",""
"null","sound/msl/clock.wav","null","audio-keyboard-response","344","194103","0.0-1.0-343.0","",""
"null","sound/msl/Water.wav","null","audio-keyboard-response","345","194623","0.0-1.0-344.0","",""
"null","sound/msl/boing.wav","null","audio-keyboard-response","346","195132","0.0-1.0-345.0","",""
"null","sound/msl/cat.wav","null","audio-keyboard-response","347","195643","0.0-1.0-346.0","",""
"null","sound/msl/slide_whistle.wav","null","audio-keyboard-response","348","196153","0.0-1.0-347.0","",""
"null","sound/msl/door.wav","null","audio-keyboard-response","349","196663","0.0-1.0-348.0","",""
"null","sound/msl/frog.wav","null","audio-keyboard-response","350","197185","0.0-1.0-349.0","",""
"null","sound/msl/dog.wav","null","audio-keyboard-response","351","197703","0.0-1.0-350.0","",""
"null","sound/msl/door_bell.wav","null","audio-keyboard-response","352","198223","0.0-1.0-351.0","",""
"null","sound/msl/cow.wav","null","audio-keyboard-response","353","198743","0.0-1.0-352.0","",""
"null","sound/msl/bird.wav","null","audio-keyboard-response","354","199264","0.0-1.0-353.0","",""
"null","sound/msl/duck.wav","null","audio-keyboard-response","355","199784","0.0-1.0-354.0","",""
"null","sound/msl/clock.wav","null","audio-keyboard-response","356","200343","0.0-1.0-355.0","",""
"null","sound/msl/Water.wav","null","audio-keyboard-response","357","200864","0.0-1.0-356.0","",""
"null","sound/msl/boing.wav","null","audio-keyboard-response","358","201374","0.0-1.0-357.0","",""
"null","sound/msl/cat.wav","null","audio-keyboard-response","359","201884","0.0-1.0-358.0","",""
"null","sound/msl/slide_whistle.wav","null","audio-keyboard-response","360","202394","0.0-1.0-359.0","",""
"27898","Instructions2-eng.png","49","image-keyboard-response","361","230295","0.0-2.0","",""
"null","sound/msl/organ.wav","null","audio-keyboard-response","362","230803","0.0-3.0-0.0","",""
"null","sound/msl/frog.wav","null","audio-keyboard-response","363","231313","0.0-3.0-1.0","",""
"null","sound/msl/Water.wav","null","audio-keyboard-response","364","231833","0.0-3.0-2.0","",""
"null","sound/asl/silence.wav","null","audio-keyboard-response","365","232335","0.0-3.0-3.0","",""
"null","sound/msl/duck.wav","null","audio-keyboard-response","366","232853","0.0-3.0-4.0","",""
"null","sound/msl/clock.wav","null","audio-keyboard-response","367","233413","0.0-3.0-5.0","",""
"null","sound/msl/Water.wav","null","audio-keyboard-response","368","233933","0.0-3.0-6.0","",""
"2491","sound/asl/silence.wav","49","audio-keyboard-response","369","236432","0.0-3.0-7.0","false",""
"null","sound/msl/door.wav","null","audio-keyboard-response","370","236933","0.0-4.0-0.0","",""
"null","sound/msl/clock.wav","null","audio-keyboard-response","371","237494","0.0-4.0-1.0","",""
"null","sound/msl/bird.wav","null","audio-keyboard-response","372","238014","0.0-4.0-2.0","",""
"null","sound/asl/silence.wav","null","audio-keyboard-response","373","238516","0.0-4.0-3.0","",""
"null","sound/msl/door.wav","null","audio-keyboard-response","374","239024","0.0-4.0-4.0","",""
"null","sound/msl/frog.wav","null","audio-keyboard-response","375","239543","0.0-4.0-5.0","",""
"null","sound/msl/dog.wav","null","audio-keyboard-response","376","240064","0.0-4.0-6.0","",""
"2749","sound/asl/silence.wav","50","audio-keyboard-response","377","242815","0.0-4.0-7.0","true",""
"null","sound/msl/door.wav","null","audio-keyboard-response","378","243324","0.0-5.0-0.0","",""
"null","sound/msl/clock.wav","null","audio-keyboard-response","379","243884","0.0-5.0-1.0","",""
"null","sound/msl/bird.wav","null","audio-keyboard-response","380","244395","0.0-5.0-2.0","",""
"null","sound/asl/silence.wav","null","audio-keyboard-response","381","244897","0.0-5.0-3.0","",""
"null","sound/msl/door_bell.wav","null","audio-keyboard-response","382","245415","0.0-5.0-4.0","",""
"null","sound/msl/cow.wav","null","audio-keyboard-response","383","245934","0.0-5.0-5.0","",""
"null","sound/msl/bird.wav","null","audio-keyboard-response","384","246455","0.0-5.0-6.0","",""
"4011","sound/asl/silence.wav","50","audio-keyboard-response","385","250471","0.0-5.0-7.0","true",""
"null","sound/msl/boing.wav","null","audio-keyboard-response","386","250975","0.0-6.0-0.0","",""
"null","sound/msl/cat.wav","null","audio-keyboard-response","387","251480","0.0-6.0-1.0","",""
"null","sound/msl/slide_whistle.wav","null","audio-keyboard-response","388","251991","0.0-6.0-2.0","",""
"null","sound/asl/silence.wav","null","audio-keyboard-response","389","252496","0.0-6.0-3.0","",""
"null","sound/msl/duck.wav","null","audio-keyboard-response","390","253010","0.0-6.0-4.0","",""
"null","sound/msl/cow.wav","null","audio-keyboard-response","391","253531","0.0-6.0-5.0","",""
"null","sound/msl/slide_whistle.wav","null","audio-keyboard-response","392","254051","0.0-6.0-6.0","",""
"1091","sound/asl/silence.wav","49","audio-keyboard-response","393","255150","0.0-6.0-7.0","true",""
"null","sound/msl/boing.wav","null","audio-keyboard-response","394","255662","0.0-7.0-0.0","",""
"null","sound/msl/goat.wav","null","audio-keyboard-response","395","256213","0.0-7.0-1.0","",""
"null","sound/msl/dog.wav","null","audio-keyboard-response","396","256731","0.0-7.0-2.0","",""
"null","sound/asl/silence.wav","null","audio-keyboard-response","397","257235","0.0-7.0-3.0","",""
"null","sound/msl/duck.wav","null","audio-keyboard-response","398","257741","0.0-7.0-4.0","",""
"null","sound/msl/clock.wav","null","audio-keyboard-response","399","258301","0.0-7.0-5.0","",""
"null","sound/msl/Water.wav","null","audio-keyboard-response","400","258821","0.0-7.0-6.0","",""
"2320","sound/asl/silence.wav","49","audio-keyboard-response","401","261143","0.0-7.0-7.0","false",""
"null","sound/msl/door_bell.wav","null","audio-keyboard-response","402","261662","0.0-8.0-0.0","",""
"null","sound/msl/cow.wav","null","audio-keyboard-response","403","262182","0.0-8.0-1.0","",""
"null","sound/msl/bird.wav","null","audio-keyboard-response","404","262702","0.0-8.0-2.0","",""
"null","sound/asl/silence.wav","null","audio-keyboard-response","405","263205","0.0-8.0-3.0","",""
"null","sound/msl/organ.wav","null","audio-keyboard-response","406","263712","0.0-8.0-4.0","",""
"null","sound/msl/frog.wav","null","audio-keyboard-response","407","264222","0.0-8.0-5.0","",""
"null","sound/msl/Water.wav","null","audio-keyboard-response","408","264743","0.0-8.0-6.0","",""
"1240","sound/asl/silence.wav","50","audio-keyboard-response","409","265991","0.0-8.0-7.0","false",""
"null","sound/msl/door.wav","null","audio-keyboard-response","410","266503","0.0-9.0-0.0","",""
"null","sound/msl/clock.wav","null","audio-keyboard-response","411","267062","0.0-9.0-1.0","",""
"null","sound/msl/bird.wav","null","audio-keyboard-response","412","267582","0.0-9.0-2.0","",""
"null","sound/asl/silence.wav","null","audio-keyboard-response","413","268084","0.0-9.0-3.0","",""
"null","sound/msl/boing.wav","null","audio-keyboard-response","414","268592","0.0-9.0-4.0","",""
"null","sound/msl/cat.wav","null","audio-keyboard-response","415","269103","0.0-9.0-5.0","",""
"null","sound/msl/slide_whistle.wav","null","audio-keyboard-response","416","269623","0.0-9.0-6.0","",""
"829","sound/asl/silence.wav","50","audio-keyboard-response","417","270463","0.0-9.0-7.0","true",""
"null","sound/msl/door.wav","null","audio-keyboard-response","418","270973","0.0-10.0-0.0","",""
"null","sound/msl/frog.wav","null","audio-keyboard-response","419","271493","0.0-10.0-1.0","",""
"null","sound/msl/dog.wav","null","audio-keyboard-response","420","272012","0.0-10.0-2.0","",""
"null","sound/asl/silence.wav","null","audio-keyboard-response","421","272514","0.0-10.0-3.0","",""
"null","sound/msl/boing.wav","null","audio-keyboard-response","422","273023","0.0-10.0-4.0","",""
"null","sound/msl/goat.wav","null","audio-keyboard-response","423","273573","0.0-10.0-5.0","",""
"null","sound/msl/dog.wav","null","audio-keyboard-response","424","274093","0.0-10.0-6.0","",""
"421","sound/asl/silence.wav","49","audio-keyboard-response","425","274519","0.0-10.0-7.0","true",""
"null","sound/msl/organ.wav","null","audio-keyboard-response","426","275024","0.0-11.0-0.0","",""
"null","sound/msl/frog.wav","null","audio-keyboard-response","427","275543","0.0-11.0-1.0","",""
"null","sound/msl/Water.wav","null","audio-keyboard-response","428","276064","0.0-11.0-2.0","",""
"null","sound/asl/silence.wav","null","audio-keyboard-response","429","276566","0.0-11.0-3.0","",""
"null","sound/msl/boing.wav","null","audio-keyboard-response","430","277074","0.0-11.0-4.0","",""
"null","sound/msl/cat.wav","null","audio-keyboard-response","431","277584","0.0-11.0-5.0","",""
"null","sound/msl/slide_whistle.wav","null","audio-keyboard-response","432","278104","0.0-11.0-6.0","",""
"2629","sound/asl/silence.wav","50","audio-keyboard-response","433","280743","0.0-11.0-7.0","true",""
"null","sound/msl/organ.wav","null","audio-keyboard-response","434","281254","0.0-12.0-0.0","",""
"null","sound/msl/frog.wav","null","audio-keyboard-response","435","281774","0.0-12.0-1.0","",""
"null","sound/msl/Water.wav","null","audio-keyboard-response","436","282294","0.0-12.0-2.0","",""
"null","sound/asl/silence.wav","null","audio-keyboard-response","437","282796","0.0-12.0-3.0","",""
"null","sound/msl/door.wav","null","audio-keyboard-response","438","283305","0.0-12.0-4.0","",""
"null","sound/msl/frog.wav","null","audio-keyboard-response","439","283825","0.0-12.0-5.0","",""
"null","sound/msl/dog.wav","null","audio-keyboard-response","440","284344","0.0-12.0-6.0","",""
"291","sound/asl/silence.wav","49","audio-keyboard-response","441","284638","0.0-12.0-7.0","false",""
"null","sound/msl/organ.wav","null","audio-keyboard-response","442","285145","0.0-13.0-0.0","",""
"null","sound/msl/goat.wav","null","audio-keyboard-response","443","285695","0.0-13.0-1.0","",""
"null","sound/msl/ding.wav","null","audio-keyboard-response","444","286215","0.0-13.0-2.0","",""
"null","sound/asl/silence.wav","null","audio-keyboard-response","445","286716","0.0-13.0-3.0","",""
"null","sound/msl/organ.wav","null","audio-keyboard-response","446","287225","0.0-13.0-4.0","",""
"null","sound/msl/frog.wav","null","audio-keyboard-response","447","287745","0.0-13.0-5.0","",""
"null","sound/msl/Water.wav","null","audio-keyboard-response","448","288265","0.0-13.0-6.0","",""
"629","sound/asl/silence.wav","50","audio-keyboard-response","449","288904","0.0-13.0-7.0","false",""
"null","sound/msl/door_bell.wav","null","audio-keyboard-response","450","289425","0.0-14.0-0.0","",""
"null","sound/msl/cow.wav","null","audio-keyboard-response","451","289946","0.0-14.0-1.0","",""
"null","sound/msl/bird.wav","null","audio-keyboard-response","452","290465","0.0-14.0-2.0","",""
"null","sound/asl/silence.wav","null","audio-keyboard-response","453","290967","0.0-14.0-3.0","",""
"null","sound/msl/door_bell.wav","null","audio-keyboard-response","454","291476","0.0-14.0-4.0","",""
"null","sound/msl/cat.wav","null","audio-keyboard-response","455","291980","0.0-14.0-5.0","",""
"null","sound/msl/ding.wav","null","audio-keyboard-response","456","292501","0.0-14.0-6.0","",""
"851","sound/asl/silence.wav","50","audio-keyboard-response","457","293350","0.0-14.0-7.0","false",""
"null","sound/msl/duck.wav","null","audio-keyboard-response","458","293861","0.0-15.0-0.0","",""
"null","sound/msl/clock.wav","null","audio-keyboard-response","459","294421","0.0-15.0-1.0","",""
"null","sound/msl/Water.wav","null","audio-keyboard-response","460","294941","0.0-15.0-2.0","",""
"null","sound/asl/silence.wav","null","audio-keyboard-response","461","295442","0.0-15.0-3.0","",""
"null","sound/msl/duck.wav","null","audio-keyboard-response","462","295950","0.0-15.0-4.0","",""
"null","sound/msl/cow.wav","null","audio-keyboard-response","463","296461","0.0-15.0-5.0","",""
"null","sound/msl/slide_whistle.wav","null","audio-keyboard-response","464","296982","0.0-15.0-6.0","",""
"1389","sound/asl/silence.wav","50","audio-keyboard-response","465","298375","0.0-15.0-7.0","false",""
"null","sound/msl/duck.wav","null","audio-keyboard-response","466","298891","0.0-16.0-0.0","",""
"null","sound/msl/clock.wav","null","audio-keyboard-response","467","299451","0.0-16.0-1.0","",""
"null","sound/msl/Water.wav","null","audio-keyboard-response","468","299972","0.0-16.0-2.0","",""
"null","sound/asl/silence.wav","null","audio-keyboard-response","469","300473","0.0-16.0-3.0","",""
"null","sound/msl/door_bell.wav","null","audio-keyboard-response","470","300981","0.0-16.0-4.0","",""
"null","sound/msl/cat.wav","null","audio-keyboard-response","471","301492","0.0-16.0-5.0","",""
"null","sound/msl/ding.wav","null","audio-keyboard-response","472","302012","0.0-16.0-6.0","",""
"480","sound/asl/silence.wav","50","audio-keyboard-response","473","302494","0.0-16.0-7.0","false",""
"null","sound/msl/door.wav","null","audio-keyboard-response","474","303002","0.0-17.0-0.0","",""
"null","sound/msl/clock.wav","null","audio-keyboard-response","475","303562","0.0-17.0-1.0","",""
"null","sound/msl/bird.wav","null","audio-keyboard-response","476","304072","0.0-17.0-2.0","",""
"null","sound/asl/silence.wav","null","audio-keyboard-response","477","304574","0.0-17.0-3.0","",""
"null","sound/msl/duck.wav","null","audio-keyboard-response","478","305093","0.0-17.0-4.0","",""
"null","sound/msl/clock.wav","null","audio-keyboard-response","479","305652","0.0-17.0-5.0","",""
"null","sound/msl/Water.wav","null","audio-keyboard-response","480","306172","0.0-17.0-6.0","",""
"1741","sound/asl/silence.wav","50","audio-keyboard-response","481","307919","0.0-17.0-7.0","true",""
"null","sound/msl/boing.wav","null","audio-keyboard-response","482","308423","0.0-18.0-0.0","",""
"null","sound/msl/goat.wav","null","audio-keyboard-response","483","308973","0.0-18.0-1.0","",""
"null","sound/msl/dog.wav","null","audio-keyboard-response","484","309493","0.0-18.0-2.0","",""
"null","sound/asl/silence.wav","null","audio-keyboard-response","485","309995","0.0-18.0-3.0","",""
"null","sound/msl/boing.wav","null","audio-keyboard-response","486","310504","0.0-18.0-4.0","",""
"null","sound/msl/cat.wav","null","audio-keyboard-response","487","311013","0.0-18.0-5.0","",""
"null","sound/msl/slide_whistle.wav","null","audio-keyboard-response","488","311534","0.0-18.0-6.0","",""
"680","sound/asl/silence.wav","49","audio-keyboard-response","489","312215","0.0-18.0-7.0","false",""
"null","sound/msl/door_bell.wav","null","audio-keyboard-response","490","312734","0.0-19.0-0.0","",""
"null","sound/msl/cat.wav","null","audio-keyboard-response","491","313244","0.0-19.0-1.0","",""
"null","sound/msl/ding.wav","null","audio-keyboard-response","492","313754","0.0-19.0-2.0","",""
"null","sound/asl/silence.wav","null","audio-keyboard-response","493","314255","0.0-19.0-3.0","",""
"null","sound/msl/organ.wav","null","audio-keyboard-response","494","314764","0.0-19.0-4.0","",""
"null","sound/msl/goat.wav","null","audio-keyboard-response","495","315314","0.0-19.0-5.0","",""
"null","sound/msl/ding.wav","null","audio-keyboard-response","496","315829","0.0-19.0-6.0","",""
"1339","sound/asl/silence.wav","49","audio-keyboard-response","497","317168","0.0-19.0-7.0","false",""
"null","sound/msl/boing.wav","null","audio-keyboard-response","498","317674","0.0-20.0-0.0","",""
"null","sound/msl/cat.wav","null","audio-keyboard-response","499","318184","0.0-20.0-1.0","",""
"null","sound/msl/slide_whistle.wav","null","audio-keyboard-response","500","318704","0.0-20.0-2.0","",""
"null","sound/asl/silence.wav","null","audio-keyboard-response","501","319207","0.0-20.0-3.0","",""
"null","sound/msl/door_bell.wav","null","audio-keyboard-response","502","319714","0.0-20.0-4.0","",""
"null","sound/msl/cat.wav","null","audio-keyboard-response","503","320225","0.0-20.0-5.0","",""
"null","sound/msl/ding.wav","null","audio-keyboard-response","504","320746","0.0-20.0-6.0","",""
"659","sound/asl/silence.wav","49","audio-keyboard-response","505","321407","0.0-20.0-7.0","true",""
"null","sound/msl/door_bell.wav","null","audio-keyboard-response","506","321915","0.0-21.0-0.0","",""
"null","sound/msl/cow.wav","null","audio-keyboard-response","507","322425","0.0-21.0-1.0","",""
"null","sound/msl/bird.wav","null","audio-keyboard-response","508","322945","0.0-21.0-2.0","",""
"null","sound/asl/silence.wav","null","audio-keyboard-response","509","323447","0.0-21.0-3.0","",""
"null","sound/msl/duck.wav","null","audio-keyboard-response","510","323955","0.0-21.0-4.0","",""
"null","sound/msl/cow.wav","null","audio-keyboard-response","511","324465","0.0-21.0-5.0","",""
"null","sound/msl/slide_whistle.wav","null","audio-keyboard-response","512","324985","0.0-21.0-6.0","",""
"979","sound/asl/silence.wav","49","audio-keyboard-response","513","325975","0.0-21.0-7.0","true",""
"null","sound/msl/organ.wav","null","audio-keyboard-response","514","326486","0.0-22.0-0.0","",""
"null","sound/msl/goat.wav","null","audio-keyboard-response","515","327035","0.0-22.0-1.0","",""
"null","sound/msl/ding.wav","null","audio-keyboard-response","516","327545","0.0-22.0-2.0","",""
"null","sound/asl/silence.wav","null","audio-keyboard-response","517","328047","0.0-22.0-3.0","",""
"null","sound/msl/door.wav","null","audio-keyboard-response","518","328556","0.0-22.0-4.0","",""
"null","sound/msl/clock.wav","null","audio-keyboard-response","519","329116","0.0-22.0-5.0","",""
"null","sound/msl/bird.wav","null","audio-keyboard-response","520","329625","0.0-22.0-6.0","",""
"1819","sound/asl/silence.wav","49","audio-keyboard-response","521","331448","0.0-22.0-7.0","true",""
"null","sound/msl/duck.wav","null","audio-keyboard-response","522","331956","0.0-23.0-0.0","",""
"null","sound/msl/cow.wav","null","audio-keyboard-response","523","332466","0.0-23.0-1.0","",""
"null","sound/msl/slide_whistle.wav","null","audio-keyboard-response","524","332981","0.0-23.0-2.0","",""
"null","sound/asl/silence.wav","null","audio-keyboard-response","525","333483","0.0-23.0-3.0","",""
"null","sound/msl/organ.wav","null","audio-keyboard-response","526","333991","0.0-23.0-4.0","",""
"null","sound/msl/goat.wav","null","audio-keyboard-response","527","334542","0.0-23.0-5.0","",""
"null","sound/msl/ding.wav","null","audio-keyboard-response","528","335061","0.0-23.0-6.0","",""
"480","sound/asl/silence.wav","50","audio-keyboard-response","529","335543","0.0-23.0-7.0","true",""
"null","sound/msl/boing.wav","null","audio-keyboard-response","530","336051","0.0-24.0-0.0","",""
"null","sound/msl/goat.wav","null","audio-keyboard-response","531","336602","0.0-24.0-1.0","",""
"null","sound/msl/dog.wav","null","audio-keyboard-response","532","337111","0.0-24.0-2.0","",""
"null","sound/asl/silence.wav","null","audio-keyboard-response","533","337613","0.0-24.0-3.0","",""
"null","sound/msl/door_bell.wav","null","audio-keyboard-response","534","338132","0.0-24.0-4.0","",""
"null","sound/msl/cow.wav","null","audio-keyboard-response","535","338652","0.0-24.0-5.0","",""
"null","sound/msl/bird.wav","null","audio-keyboard-response","536","339172","0.0-24.0-6.0","",""
"811","sound/asl/silence.wav","50","audio-keyboard-response","537","339992","0.0-24.0-7.0","true",""
"null","sound/msl/organ.wav","null","audio-keyboard-response","538","340503","0.0-25.0-0.0","",""
"null","sound/msl/goat.wav","null","audio-keyboard-response","539","341052","0.0-25.0-1.0","",""
"null","sound/msl/ding.wav","null","audio-keyboard-response","540","341573","0.0-25.0-2.0","",""
"null","sound/asl/silence.wav","null","audio-keyboard-response","541","342073","0.0-25.0-3.0","",""
"null","sound/msl/boing.wav","null","audio-keyboard-response","542","342583","0.0-25.0-4.0","",""
"null","sound/msl/goat.wav","null","audio-keyboard-response","543","343132","0.0-25.0-5.0","",""
"null","sound/msl/dog.wav","null","audio-keyboard-response","544","343653","0.0-25.0-6.0","",""
"811","sound/asl/silence.wav","49","audio-keyboard-response","545","344463","0.0-25.0-7.0","true",""
"null","sound/msl/duck.wav","null","audio-keyboard-response","546","344983","0.0-26.0-0.0","",""
"null","sound/msl/cow.wav","null","audio-keyboard-response","547","345502","0.0-26.0-1.0","",""
"null","sound/msl/slide_whistle.wav","null","audio-keyboard-response","548","346023","0.0-26.0-2.0","",""
"null","sound/asl/silence.wav","null","audio-keyboard-response","549","346524","0.0-26.0-3.0","",""
"null","sound/msl/door.wav","null","audio-keyboard-response","550","347033","0.0-26.0-4.0","",""
"null","sound/msl/frog.wav","null","audio-keyboard-response","551","347543","0.0-26.0-5.0","",""
"null","sound/msl/dog.wav","null","audio-keyboard-response","552","348063","0.0-26.0-6.0","",""
"939","sound/asl/silence.wav","50","audio-keyboard-response","553","349007","0.0-26.0-7.0","true",""
"null","sound/msl/door.wav","null","audio-keyboard-response","554","349514","0.0-27.0-0.0","",""
"null","sound/msl/frog.wav","null","audio-keyboard-response","555","350024","0.0-27.0-1.0","",""
"null","sound/msl/dog.wav","null","audio-keyboard-response","556","350543","0.0-27.0-2.0","",""
"null","sound/asl/silence.wav","null","audio-keyboard-response","557","351045","0.0-27.0-3.0","",""
"null","sound/msl/door_bell.wav","null","audio-keyboard-response","558","351554","0.0-27.0-4.0","",""
"null","sound/msl/cat.wav","null","audio-keyboard-response","559","352063","0.0-27.0-5.0","",""
"null","sound/msl/ding.wav","null","audio-keyboard-response","560","352584","0.0-27.0-6.0","",""
"429","sound/asl/silence.wav","50","audio-keyboard-response","561","353022","0.0-27.0-7.0","false",""
"3078","","","instructions","562","356102","0.0-28.0","","[{""page_index"":0,""viewing_time"":3078}]"
