"rt","stimulus","key_press","trial_type","trial_index","time_elapsed","internal_node_id","correct","view_history","responses"
"8696","backround.jpg","49","image-keyboard-response","0","8698","0.0-0.0","","",""
"null","sound/asl/5words_lanaguage.mp3","null","audio-keyboard-response","1","144258","0.0-1.0","","",""
"27821","Instructions2-eng.png","49","image-keyboard-response","2","172079","0.0-2.0","","",""
"null","sound/asl/duloga.wav","null","audio-keyboard-response","3","173280","0.0-3.0-0.0","","",""
"null","sound/asl/gedino.wav","null","audio-keyboard-response","4","174150","0.0-3.0-1.0","","",""
"1131","sound/asl/silence.wav","49","audio-keyboard-response","5","175286","0.0-3.0-2.0","false","",""
"null","sound/asl/nadime.wav","null","audio-keyboard-response","6","176501","0.0-4.0-0.0","","",""
"null","sound/asl/kimuga.wav","null","audio-keyboard-response","7","177341","0.0-4.0-1.0","","",""
"819","sound/asl/silence.wav","50","audio-keyboard-response","8","178165","0.0-4.0-2.0","true","",""
"null","sound/asl/gedino.wav","null","audio-keyboard-response","9","179380","0.0-5.0-0.0","","",""
"null","sound/asl/kibeno.wav","null","audio-keyboard-response","10","180241","0.0-5.0-1.0","","",""
"581","sound/asl/silence.wav","50","audio-keyboard-response","11","180824","0.0-5.0-2.0","false","",""
"null","sound/asl/nadime.wav","null","audio-keyboard-response","12","182030","0.0-6.0-0.0","","",""
"null","sound/asl/dukame.wav","null","audio-keyboard-response","13","182880","0.0-6.0-1.0","","",""
"691","sound/asl/silence.wav","50","audio-keyboard-response","14","183570","0.0-6.0-2.0","true","",""
"null","sound/asl/kimuga.wav","null","audio-keyboard-response","15","184780","0.0-7.0-0.0","","",""
"null","sound/asl/kibeno.wav","null","audio-keyboard-response","16","185641","0.0-7.0-1.0","","",""
"709","sound/asl/silence.wav","50","audio-keyboard-response","17","186352","0.0-7.0-2.0","false","",""
"null","sound/asl/tobelu.wav","null","audio-keyboard-response","18","187560","0.0-8.0-0.0","","",""
"null","sound/asl/gekalu.wav","null","audio-keyboard-response","19","188481","0.0-8.0-1.0","","",""
"461","sound/asl/silence.wav","50","audio-keyboard-response","20","188942","0.0-8.0-2.0","false","",""
"null","sound/asl/tomubi.wav","null","audio-keyboard-response","21","190150","0.0-9.0-0.0","","",""
"null","sound/asl/kimuga.wav","null","audio-keyboard-response","22","190991","0.0-9.0-1.0","","",""
"512","sound/asl/silence.wav","49","audio-keyboard-response","23","191508","0.0-9.0-2.0","false","",""
"null","sound/asl/dukame.wav","null","audio-keyboard-response","24","192710","0.0-10.0-0.0","","",""
"null","sound/asl/gekalu.wav","null","audio-keyboard-response","25","193631","0.0-10.0-1.0","","",""
"512","sound/asl/silence.wav","49","audio-keyboard-response","26","194141","0.0-10.0-2.0","true","",""
"null","sound/asl/dukame.wav","null","audio-keyboard-response","27","195349","0.0-11.0-0.0","","",""
"null","sound/asl/duloga.wav","null","audio-keyboard-response","28","196181","0.0-11.0-1.0","","",""
"499","sound/asl/silence.wav","49","audio-keyboard-response","29","196685","0.0-11.0-2.0","true","",""
"null","sound/asl/nadime.wav","null","audio-keyboard-response","30","197890","0.0-12.0-0.0","","",""
"null","sound/asl/tobelu.wav","null","audio-keyboard-response","31","198761","0.0-12.0-1.0","","",""
"581","sound/asl/silence.wav","50","audio-keyboard-response","32","199343","0.0-12.0-2.0","true","",""
"null","sound/asl/kimuga.wav","null","audio-keyboard-response","33","200561","0.0-13.0-0.0","","",""
"null","sound/asl/gekalu.wav","null","audio-keyboard-response","34","201481","0.0-13.0-1.0","","",""
"520","sound/asl/silence.wav","50","audio-keyboard-response","35","202001","0.0-13.0-2.0","false","",""
"null","sound/asl/nalobi.wav","null","audio-keyboard-response","36","203220","0.0-14.0-0.0","","",""
"null","sound/asl/duloga.wav","null","audio-keyboard-response","37","204061","0.0-14.0-1.0","","",""
"1859","sound/asl/silence.wav","50","audio-keyboard-response","38","205921","0.0-14.0-2.0","false","",""
"null","sound/asl/duloga.wav","null","audio-keyboard-response","39","207134","0.0-15.0-0.0","","",""
"null","sound/asl/tobelu.wav","null","audio-keyboard-response","40","208004","0.0-15.0-1.0","","",""
"2651","sound/asl/silence.wav","49","audio-keyboard-response","41","210661","0.0-15.0-2.0","false","",""
"null","sound/asl/nadime.wav","null","audio-keyboard-response","42","211864","0.0-16.0-0.0","","",""
"null","sound/asl/gedino.wav","null","audio-keyboard-response","43","212735","0.0-16.0-1.0","","",""
"659","sound/asl/silence.wav","49","audio-keyboard-response","44","213403","0.0-16.0-2.0","false","",""
"null","sound/asl/tomubi.wav","null","audio-keyboard-response","45","214623","0.0-17.0-0.0","","",""
"null","sound/asl/nalobi.wav","null","audio-keyboard-response","46","215454","0.0-17.0-1.0","","",""
"440","sound/asl/silence.wav","50","audio-keyboard-response","47","215894","0.0-17.0-2.0","true","",""
"null","sound/asl/tobelu.wav","null","audio-keyboard-response","48","217114","0.0-18.0-0.0","","",""
"null","sound/asl/kibeno.wav","null","audio-keyboard-response","49","217974","0.0-18.0-1.0","","",""
"709","sound/asl/silence.wav","49","audio-keyboard-response","50","218684","0.0-18.0-2.0","true","",""
"null","sound/asl/tomubi.wav","null","audio-keyboard-response","51","219894","0.0-19.0-0.0","","",""
"null","sound/asl/tobelu.wav","null","audio-keyboard-response","52","220764","0.0-19.0-1.0","","",""
"539","sound/asl/silence.wav","49","audio-keyboard-response","53","221307","0.0-19.0-2.0","false","",""
"null","sound/asl/nalobi.wav","null","audio-keyboard-response","54","222524","0.0-20.0-0.0","","",""
"null","sound/asl/gekalu.wav","null","audio-keyboard-response","55","223445","0.0-20.0-1.0","","",""
"451","sound/asl/silence.wav","49","audio-keyboard-response","56","223904","0.0-20.0-2.0","true","",""
"null","sound/asl/duloga.wav","null","audio-keyboard-response","57","225114","0.0-21.0-0.0","","",""
"null","sound/asl/kimuga.wav","null","audio-keyboard-response","58","225944","0.0-21.0-1.0","","",""
"821","sound/asl/silence.wav","49","audio-keyboard-response","59","226765","0.0-21.0-2.0","false","",""
"null","sound/asl/dukame.wav","null","audio-keyboard-response","60","227984","0.0-22.0-0.0","","",""
"null","sound/asl/kibeno.wav","null","audio-keyboard-response","61","228844","0.0-22.0-1.0","","",""
"371","sound/asl/silence.wav","49","audio-keyboard-response","62","229223","0.0-22.0-2.0","true","",""
"null","sound/asl/gedino.wav","null","audio-keyboard-response","63","230434","0.0-23.0-0.0","","",""
"null","sound/asl/gekalu.wav","null","audio-keyboard-response","64","231354","0.0-23.0-1.0","","",""
"781","sound/asl/silence.wav","50","audio-keyboard-response","65","232138","0.0-23.0-2.0","false","",""
"null","sound/asl/tomubi.wav","null","audio-keyboard-response","66","233344","0.0-24.0-0.0","","",""
"null","sound/asl/gedino.wav","null","audio-keyboard-response","67","234214","0.0-24.0-1.0","","",""
"629","sound/asl/silence.wav","49","audio-keyboard-response","68","234851","0.0-24.0-2.0","false","",""
"null","sound/asl/nalobi.wav","null","audio-keyboard-response","69","236064","0.0-25.0-0.0","","",""
"null","sound/asl/kibeno.wav","null","audio-keyboard-response","70","236924","0.0-25.0-1.0","","",""
"451","sound/asl/silence.wav","49","audio-keyboard-response","71","237378","0.0-25.0-2.0","true","",""
"null","sound/asl/nalobi.wav","null","audio-keyboard-response","72","238584","0.0-26.0-0.0","","",""
"null","sound/asl/nadime.wav","null","audio-keyboard-response","73","239405","0.0-26.0-1.0","","",""
"509","sound/asl/silence.wav","50","audio-keyboard-response","74","239916","0.0-26.0-2.0","false","",""
"null","sound/asl/tomubi.wav","null","audio-keyboard-response","75","241134","0.0-27.0-0.0","","",""
"null","sound/asl/dukame.wav","null","audio-keyboard-response","76","241985","0.0-27.0-1.0","","",""
"371","sound/asl/silence.wav","50","audio-keyboard-response","77","242362","0.0-27.0-2.0","true","",""
"2268","","","instructions","78","244631","0.0-28.0","","[{""page_index"":0,""viewing_time"":2267}]",""
"16768","","","survey-likert","79","261400","0.0-29.0","","","{""Q0"":0}"
"9250","","","survey-likert","80","270650","0.0-30.0","","","{""Q0"":0}"
"7009","","","survey-likert","81","277661","0.0-31.0","","","{""Q0"":0}"
"6072","","","survey-likert","82","283734","0.0-32.0","","","{""Q0"":1}"
"6188","","","survey-likert","83","289923","0.0-33.0","","","{""Q0"":1}"
"5897","","","survey-likert","84","295820","0.0-34.0","","","{""Q0"":0}"
"1379","","","instructions","85","297199","0.0-35.0","","[{""page_index"":0,""viewing_time"":1379}]",""
