"rt","stimulus","key_press","trial_type","trial_index","time_elapsed","internal_node_id","correct","view_history"
"4220","alien.jpg","49","image-keyboard-response","0","4226","0.0-0.0","",""
"null","sound/msl/door_bell.wav","null","audio-keyboard-response","1","4739","0.0-1.0-0.0","",""
"null","sound/msl/goat.wav","null","audio-keyboard-response","2","5289","0.0-1.0-1.0","",""
"null","sound/msl/bird.wav","null","audio-keyboard-response","3","5809","0.0-1.0-2.0","",""
"null","sound/msl/cow.wav","null","audio-keyboard-response","4","6329","0.0-1.0-3.0","",""
"null","sound/msl/duck.wav","null","audio-keyboard-response","5","6849","0.0-1.0-4.0","",""
"null","sound/msl/organ.wav","null","audio-keyboard-response","6","7359","0.0-1.0-5.0","",""
"null","sound/msl/boing.wav","null","audio-keyboard-response","7","7871","0.0-1.0-6.0","",""
"null","sound/msl/dog.wav","null","audio-keyboard-response","8","8380","0.0-1.0-7.0","",""
"null","sound/msl/ding.wav","null","audio-keyboard-response","9","8900","0.0-1.0-8.0","",""
"null","sound/msl/slide_whistle.wav","null","audio-keyboard-response","10","9420","0.0-1.0-9.0","",""
"null","sound/msl/frog.wav","null","audio-keyboard-response","11","9940","0.0-1.0-10.0","",""
"null","sound/msl/Water.wav","null","audio-keyboard-response","12","10460","0.0-1.0-11.0","",""
"null","sound/msl/cow.wav","null","audio-keyboard-response","13","10980","0.0-1.0-12.0","",""
"null","sound/msl/duck.wav","null","audio-keyboard-response","14","11500","0.0-1.0-13.0","",""
"null","sound/msl/organ.wav","null","audio-keyboard-response","15","12010","0.0-1.0-14.0","",""
"null","sound/msl/door_bell.wav","null","audio-keyboard-response","16","12530","0.0-1.0-15.0","",""
"null","sound/msl/goat.wav","null","audio-keyboard-response","17","13081","0.0-1.0-16.0","",""
"null","sound/msl/bird.wav","null","audio-keyboard-response","18","13590","0.0-1.0-17.0","",""
"null","sound/msl/door.wav","null","audio-keyboard-response","19","14101","0.0-1.0-18.0","",""
"null","sound/msl/cat.wav","null","audio-keyboard-response","20","14610","0.0-1.0-19.0","",""
"null","sound/msl/clock.wav","null","audio-keyboard-response","21","15170","0.0-1.0-20.0","",""
"null","sound/msl/slide_whistle.wav","null","audio-keyboard-response","22","15690","0.0-1.0-21.0","",""
"null","sound/msl/frog.wav","null","audio-keyboard-response","23","16211","0.0-1.0-22.0","",""
"null","sound/msl/Water.wav","null","audio-keyboard-response","24","16730","0.0-1.0-23.0","",""
"null","sound/msl/boing.wav","null","audio-keyboard-response","25","17240","0.0-1.0-24.0","",""
"null","sound/msl/dog.wav","null","audio-keyboard-response","26","17750","0.0-1.0-25.0","",""
"null","sound/msl/ding.wav","null","audio-keyboard-response","27","18261","0.0-1.0-26.0","",""
"null","sound/msl/door_bell.wav","null","audio-keyboard-response","28","18776","0.0-1.0-27.0","",""
"null","sound/msl/goat.wav","null","audio-keyboard-response","29","19326","0.0-1.0-28.0","",""
"null","sound/msl/bird.wav","null","audio-keyboard-response","30","19846","0.0-1.0-29.0","",""
"null","sound/msl/cow.wav","null","audio-keyboard-response","31","20366","0.0-1.0-30.0","",""
"null","sound/msl/duck.wav","null","audio-keyboard-response","32","20886","0.0-1.0-31.0","",""
"null","sound/msl/organ.wav","null","audio-keyboard-response","33","21396","0.0-1.0-32.0","",""
"null","sound/msl/door.wav","null","audio-keyboard-response","34","21906","0.0-1.0-33.0","",""
"null","sound/msl/cat.wav","null","audio-keyboard-response","35","22416","0.0-1.0-34.0","",""
"null","sound/msl/clock.wav","null","audio-keyboard-response","36","22976","0.0-1.0-35.0","",""
"null","sound/msl/boing.wav","null","audio-keyboard-response","37","23487","0.0-1.0-36.0","",""
"null","sound/msl/dog.wav","null","audio-keyboard-response","38","24008","0.0-1.0-37.0","",""
"null","sound/msl/ding.wav","null","audio-keyboard-response","39","24527","0.0-1.0-38.0","",""
"null","sound/msl/slide_whistle.wav","null","audio-keyboard-response","40","25048","0.0-1.0-39.0","",""
"null","sound/msl/frog.wav","null","audio-keyboard-response","41","25566","0.0-1.0-40.0","",""
"null","sound/msl/Water.wav","null","audio-keyboard-response","42","26087","0.0-1.0-41.0","",""
"null","sound/msl/door.wav","null","audio-keyboard-response","43","26597","0.0-1.0-42.0","",""
"null","sound/msl/cat.wav","null","audio-keyboard-response","44","27107","0.0-1.0-43.0","",""
"null","sound/msl/clock.wav","null","audio-keyboard-response","45","27667","0.0-1.0-44.0","",""
"null","sound/msl/cow.wav","null","audio-keyboard-response","46","28177","0.0-1.0-45.0","",""
"null","sound/msl/duck.wav","null","audio-keyboard-response","47","28697","0.0-1.0-46.0","",""
"null","sound/msl/organ.wav","null","audio-keyboard-response","48","29207","0.0-1.0-47.0","",""
"null","sound/msl/boing.wav","null","audio-keyboard-response","49","29717","0.0-1.0-48.0","",""
"null","sound/msl/dog.wav","null","audio-keyboard-response","50","30227","0.0-1.0-49.0","",""
"null","sound/msl/ding.wav","null","audio-keyboard-response","51","30737","0.0-1.0-50.0","",""
"null","sound/msl/door_bell.wav","null","audio-keyboard-response","52","31257","0.0-1.0-51.0","",""
"null","sound/msl/goat.wav","null","audio-keyboard-response","53","31808","0.0-1.0-52.0","",""
"null","sound/msl/bird.wav","null","audio-keyboard-response","54","32328","0.0-1.0-53.0","",""
"null","sound/msl/cow.wav","null","audio-keyboard-response","55","32848","0.0-1.0-54.0","",""
"null","sound/msl/duck.wav","null","audio-keyboard-response","56","33368","0.0-1.0-55.0","",""
"null","sound/msl/organ.wav","null","audio-keyboard-response","57","33877","0.0-1.0-56.0","",""
"null","sound/msl/boing.wav","null","audio-keyboard-response","58","34388","0.0-1.0-57.0","",""
"null","sound/msl/dog.wav","null","audio-keyboard-response","59","34897","0.0-1.0-58.0","",""
"null","sound/msl/ding.wav","null","audio-keyboard-response","60","35418","0.0-1.0-59.0","",""
"null","sound/msl/slide_whistle.wav","null","audio-keyboard-response","61","35938","0.0-1.0-60.0","",""
"null","sound/msl/frog.wav","null","audio-keyboard-response","62","36458","0.0-1.0-61.0","",""
"null","sound/msl/Water.wav","null","audio-keyboard-response","63","36978","0.0-1.0-62.0","",""
"null","sound/msl/door.wav","null","audio-keyboard-response","64","37488","0.0-1.0-63.0","",""
"null","sound/msl/cat.wav","null","audio-keyboard-response","65","37998","0.0-1.0-64.0","",""
"null","sound/msl/clock.wav","null","audio-keyboard-response","66","38559","0.0-1.0-65.0","",""
"null","sound/msl/cow.wav","null","audio-keyboard-response","67","39068","0.0-1.0-66.0","",""
"null","sound/msl/duck.wav","null","audio-keyboard-response","68","39579","0.0-1.0-67.0","",""
"null","sound/msl/organ.wav","null","audio-keyboard-response","69","40088","0.0-1.0-68.0","",""
"null","sound/msl/door_bell.wav","null","audio-keyboard-response","70","40609","0.0-1.0-69.0","",""
"null","sound/msl/goat.wav","null","audio-keyboard-response","71","41159","0.0-1.0-70.0","",""
"null","sound/msl/bird.wav","null","audio-keyboard-response","72","41669","0.0-1.0-71.0","",""
"null","sound/msl/boing.wav","null","audio-keyboard-response","73","42179","0.0-1.0-72.0","",""
"null","sound/msl/dog.wav","null","audio-keyboard-response","74","42699","0.0-1.0-73.0","",""
"null","sound/msl/ding.wav","null","audio-keyboard-response","75","43219","0.0-1.0-74.0","",""
"null","sound/msl/slide_whistle.wav","null","audio-keyboard-response","76","43739","0.0-1.0-75.0","",""
"null","sound/msl/frog.wav","null","audio-keyboard-response","77","44259","0.0-1.0-76.0","",""
"null","sound/msl/Water.wav","null","audio-keyboard-response","78","44779","0.0-1.0-77.0","",""
"null","sound/msl/boing.wav","null","audio-keyboard-response","79","45289","0.0-1.0-78.0","",""
"null","sound/msl/dog.wav","null","audio-keyboard-response","80","45809","0.0-1.0-79.0","",""
"null","sound/msl/ding.wav","null","audio-keyboard-response","81","46330","0.0-1.0-80.0","",""
"null","sound/msl/door.wav","null","audio-keyboard-response","82","46840","0.0-1.0-81.0","",""
"null","sound/msl/cat.wav","null","audio-keyboard-response","83","47349","0.0-1.0-82.0","",""
"null","sound/msl/clock.wav","null","audio-keyboard-response","84","47910","0.0-1.0-83.0","",""
"null","sound/msl/door_bell.wav","null","audio-keyboard-response","85","48420","0.0-1.0-84.0","",""
"null","sound/msl/goat.wav","null","audio-keyboard-response","86","48970","0.0-1.0-85.0","",""
"null","sound/msl/bird.wav","null","audio-keyboard-response","87","49490","0.0-1.0-86.0","",""
"null","sound/msl/cow.wav","null","audio-keyboard-response","88","50010","0.0-1.0-87.0","",""
"null","sound/msl/duck.wav","null","audio-keyboard-response","89","50530","0.0-1.0-88.0","",""
"null","sound/msl/organ.wav","null","audio-keyboard-response","90","51040","0.0-1.0-89.0","",""
"null","sound/msl/door.wav","null","audio-keyboard-response","91","51550","0.0-1.0-90.0","",""
"null","sound/msl/cat.wav","null","audio-keyboard-response","92","52061","0.0-1.0-91.0","",""
"null","sound/msl/clock.wav","null","audio-keyboard-response","93","52620","0.0-1.0-92.0","",""
"null","sound/msl/slide_whistle.wav","null","audio-keyboard-response","94","53140","0.0-1.0-93.0","",""
"null","sound/msl/frog.wav","null","audio-keyboard-response","95","53661","0.0-1.0-94.0","",""
"null","sound/msl/Water.wav","null","audio-keyboard-response","96","54181","0.0-1.0-95.0","",""
"null","sound/msl/boing.wav","null","audio-keyboard-response","97","54691","0.0-1.0-96.0","",""
"null","sound/msl/dog.wav","null","audio-keyboard-response","98","55210","0.0-1.0-97.0","",""
"null","sound/msl/ding.wav","null","audio-keyboard-response","99","55731","0.0-1.0-98.0","",""
"null","sound/msl/cow.wav","null","audio-keyboard-response","100","56251","0.0-1.0-99.0","",""
"null","sound/msl/duck.wav","null","audio-keyboard-response","101","56771","0.0-1.0-100.0","",""
"null","sound/msl/organ.wav","null","audio-keyboard-response","102","57281","0.0-1.0-101.0","",""
"null","sound/msl/door.wav","null","audio-keyboard-response","103","57791","0.0-1.0-102.0","",""
"null","sound/msl/cat.wav","null","audio-keyboard-response","104","58300","0.0-1.0-103.0","",""
"null","sound/msl/clock.wav","null","audio-keyboard-response","105","58862","0.0-1.0-104.0","",""
"null","sound/msl/door_bell.wav","null","audio-keyboard-response","106","59376","0.0-1.0-105.0","",""
"null","sound/msl/goat.wav","null","audio-keyboard-response","107","59926","0.0-1.0-106.0","",""
"null","sound/msl/bird.wav","null","audio-keyboard-response","108","60446","0.0-1.0-107.0","",""
"null","sound/msl/cow.wav","null","audio-keyboard-response","109","60966","0.0-1.0-108.0","",""
"null","sound/msl/duck.wav","null","audio-keyboard-response","110","61486","0.0-1.0-109.0","",""
"null","sound/msl/organ.wav","null","audio-keyboard-response","111","61998","0.0-1.0-110.0","",""
"null","sound/msl/slide_whistle.wav","null","audio-keyboard-response","112","62507","0.0-1.0-111.0","",""
"null","sound/msl/frog.wav","null","audio-keyboard-response","113","63016","0.0-1.0-112.0","",""
"null","sound/msl/Water.wav","null","audio-keyboard-response","114","63537","0.0-1.0-113.0","",""
"null","sound/msl/door.wav","null","audio-keyboard-response","115","64047","0.0-1.0-114.0","",""
"null","sound/msl/cat.wav","null","audio-keyboard-response","116","64558","0.0-1.0-115.0","",""
"null","sound/msl/clock.wav","null","audio-keyboard-response","117","65117","0.0-1.0-116.0","",""
"null","sound/msl/boing.wav","null","audio-keyboard-response","118","65627","0.0-1.0-117.0","",""
"null","sound/msl/dog.wav","null","audio-keyboard-response","119","66138","0.0-1.0-118.0","",""
"null","sound/msl/ding.wav","null","audio-keyboard-response","120","66658","0.0-1.0-119.0","",""
"null","sound/msl/door_bell.wav","null","audio-keyboard-response","121","67178","0.0-1.0-120.0","",""
"null","sound/msl/goat.wav","null","audio-keyboard-response","122","67727","0.0-1.0-121.0","",""
"null","sound/msl/bird.wav","null","audio-keyboard-response","123","68247","0.0-1.0-122.0","",""
"null","sound/msl/cow.wav","null","audio-keyboard-response","124","68768","0.0-1.0-123.0","",""
"null","sound/msl/duck.wav","null","audio-keyboard-response","125","69288","0.0-1.0-124.0","",""
"null","sound/msl/organ.wav","null","audio-keyboard-response","126","69798","0.0-1.0-125.0","",""
"null","sound/msl/door.wav","null","audio-keyboard-response","127","70307","0.0-1.0-126.0","",""
"null","sound/msl/cat.wav","null","audio-keyboard-response","128","70818","0.0-1.0-127.0","",""
"null","sound/msl/clock.wav","null","audio-keyboard-response","129","71379","0.0-1.0-128.0","",""
"null","sound/msl/slide_whistle.wav","null","audio-keyboard-response","130","71898","0.0-1.0-129.0","",""
"null","sound/msl/frog.wav","null","audio-keyboard-response","131","72418","0.0-1.0-130.0","",""
"null","sound/msl/Water.wav","null","audio-keyboard-response","132","72938","0.0-1.0-131.0","",""
"null","sound/msl/cow.wav","null","audio-keyboard-response","133","73458","0.0-1.0-132.0","",""
"null","sound/msl/duck.wav","null","audio-keyboard-response","134","73979","0.0-1.0-133.0","",""
"null","sound/msl/organ.wav","null","audio-keyboard-response","135","74489","0.0-1.0-134.0","",""
"null","sound/msl/boing.wav","null","audio-keyboard-response","136","74998","0.0-1.0-135.0","",""
"null","sound/msl/dog.wav","null","audio-keyboard-response","137","75508","0.0-1.0-136.0","",""
"null","sound/msl/ding.wav","null","audio-keyboard-response","138","76018","0.0-1.0-137.0","",""
"null","sound/msl/slide_whistle.wav","null","audio-keyboard-response","139","76539","0.0-1.0-138.0","",""
"null","sound/msl/frog.wav","null","audio-keyboard-response","140","77058","0.0-1.0-139.0","",""
"null","sound/msl/Water.wav","null","audio-keyboard-response","141","77579","0.0-1.0-140.0","",""
"null","sound/msl/door_bell.wav","null","audio-keyboard-response","142","78099","0.0-1.0-141.0","",""
"null","sound/msl/goat.wav","null","audio-keyboard-response","143","78648","0.0-1.0-142.0","",""
"null","sound/msl/bird.wav","null","audio-keyboard-response","144","79169","0.0-1.0-143.0","",""
"null","sound/msl/door.wav","null","audio-keyboard-response","145","79678","0.0-1.0-144.0","",""
"null","sound/msl/cat.wav","null","audio-keyboard-response","146","80189","0.0-1.0-145.0","",""
"null","sound/msl/clock.wav","null","audio-keyboard-response","147","80749","0.0-1.0-146.0","",""
"null","sound/msl/boing.wav","null","audio-keyboard-response","148","81259","0.0-1.0-147.0","",""
"null","sound/msl/dog.wav","null","audio-keyboard-response","149","81779","0.0-1.0-148.0","",""
"null","sound/msl/ding.wav","null","audio-keyboard-response","150","82299","0.0-1.0-149.0","",""
"null","sound/msl/door_bell.wav","null","audio-keyboard-response","151","82819","0.0-1.0-150.0","",""
"null","sound/msl/goat.wav","null","audio-keyboard-response","152","83370","0.0-1.0-151.0","",""
"null","sound/msl/bird.wav","null","audio-keyboard-response","153","83889","0.0-1.0-152.0","",""
"null","sound/msl/cow.wav","null","audio-keyboard-response","154","84410","0.0-1.0-153.0","",""
"null","sound/msl/duck.wav","null","audio-keyboard-response","155","84930","0.0-1.0-154.0","",""
"null","sound/msl/organ.wav","null","audio-keyboard-response","156","85440","0.0-1.0-155.0","",""
"null","sound/msl/slide_whistle.wav","null","audio-keyboard-response","157","85949","0.0-1.0-156.0","",""
"null","sound/msl/frog.wav","null","audio-keyboard-response","158","86460","0.0-1.0-157.0","",""
"null","sound/msl/Water.wav","null","audio-keyboard-response","159","86980","0.0-1.0-158.0","",""
"null","sound/msl/door.wav","null","audio-keyboard-response","160","87490","0.0-1.0-159.0","",""
"null","sound/msl/cat.wav","null","audio-keyboard-response","161","88000","0.0-1.0-160.0","",""
"null","sound/msl/clock.wav","null","audio-keyboard-response","162","88560","0.0-1.0-161.0","",""
"null","sound/msl/cow.wav","null","audio-keyboard-response","163","89070","0.0-1.0-162.0","",""
"null","sound/msl/duck.wav","null","audio-keyboard-response","164","89580","0.0-1.0-163.0","",""
"null","sound/msl/organ.wav","null","audio-keyboard-response","165","90090","0.0-1.0-164.0","",""
"null","sound/msl/slide_whistle.wav","null","audio-keyboard-response","166","90610","0.0-1.0-165.0","",""
"null","sound/msl/frog.wav","null","audio-keyboard-response","167","91130","0.0-1.0-166.0","",""
"null","sound/msl/Water.wav","null","audio-keyboard-response","168","91651","0.0-1.0-167.0","",""
"null","sound/msl/door_bell.wav","null","audio-keyboard-response","169","92170","0.0-1.0-168.0","",""
"null","sound/msl/goat.wav","null","audio-keyboard-response","170","92721","0.0-1.0-169.0","",""
"null","sound/msl/bird.wav","null","audio-keyboard-response","171","93231","0.0-1.0-170.0","",""
"null","sound/msl/boing.wav","null","audio-keyboard-response","172","93741","0.0-1.0-171.0","",""
"null","sound/msl/dog.wav","null","audio-keyboard-response","173","94261","0.0-1.0-172.0","",""
"null","sound/msl/ding.wav","null","audio-keyboard-response","174","94781","0.0-1.0-173.0","",""
"null","sound/msl/door.wav","null","audio-keyboard-response","175","95291","0.0-1.0-174.0","",""
"null","sound/msl/cat.wav","null","audio-keyboard-response","176","95801","0.0-1.0-175.0","",""
"null","sound/msl/clock.wav","null","audio-keyboard-response","177","96361","0.0-1.0-176.0","",""
"null","sound/msl/cow.wav","null","audio-keyboard-response","178","96870","0.0-1.0-177.0","",""
"null","sound/msl/duck.wav","null","audio-keyboard-response","179","97381","0.0-1.0-178.0","",""
"null","sound/msl/organ.wav","null","audio-keyboard-response","180","97891","0.0-1.0-179.0","",""
"null","sound/msl/boing.wav","null","audio-keyboard-response","181","98401","0.0-1.0-180.0","",""
"null","sound/msl/dog.wav","null","audio-keyboard-response","182","98911","0.0-1.0-181.0","",""
"null","sound/msl/ding.wav","null","audio-keyboard-response","183","99421","0.0-1.0-182.0","",""
"null","sound/msl/slide_whistle.wav","null","audio-keyboard-response","184","99937","0.0-1.0-183.0","",""
"null","sound/msl/frog.wav","null","audio-keyboard-response","185","100457","0.0-1.0-184.0","",""
"null","sound/msl/Water.wav","null","audio-keyboard-response","186","100977","0.0-1.0-185.0","",""
"null","sound/msl/door_bell.wav","null","audio-keyboard-response","187","101497","0.0-1.0-186.0","",""
"null","sound/msl/goat.wav","null","audio-keyboard-response","188","102047","0.0-1.0-187.0","",""
"null","sound/msl/bird.wav","null","audio-keyboard-response","189","102566","0.0-1.0-188.0","",""
"null","sound/msl/door.wav","null","audio-keyboard-response","190","103077","0.0-1.0-189.0","",""
"null","sound/msl/cat.wav","null","audio-keyboard-response","191","103587","0.0-1.0-190.0","",""
"null","sound/msl/clock.wav","null","audio-keyboard-response","192","104147","0.0-1.0-191.0","",""
"null","sound/msl/cow.wav","null","audio-keyboard-response","193","104657","0.0-1.0-192.0","",""
"null","sound/msl/duck.wav","null","audio-keyboard-response","194","105177","0.0-1.0-193.0","",""
"null","sound/msl/organ.wav","null","audio-keyboard-response","195","105687","0.0-1.0-194.0","",""
"null","sound/msl/boing.wav","null","audio-keyboard-response","196","106197","0.0-1.0-195.0","",""
"null","sound/msl/dog.wav","null","audio-keyboard-response","197","106707","0.0-1.0-196.0","",""
"null","sound/msl/ding.wav","null","audio-keyboard-response","198","107218","0.0-1.0-197.0","",""
"null","sound/msl/door_bell.wav","null","audio-keyboard-response","199","107737","0.0-1.0-198.0","",""
"null","sound/msl/goat.wav","null","audio-keyboard-response","200","108288","0.0-1.0-199.0","",""
"null","sound/msl/bird.wav","null","audio-keyboard-response","201","108808","0.0-1.0-200.0","",""
"null","sound/msl/slide_whistle.wav","null","audio-keyboard-response","202","109328","0.0-1.0-201.0","",""
"null","sound/msl/frog.wav","null","audio-keyboard-response","203","109848","0.0-1.0-202.0","",""
"null","sound/msl/Water.wav","null","audio-keyboard-response","204","110368","0.0-1.0-203.0","",""
"null","sound/msl/door.wav","null","audio-keyboard-response","205","110878","0.0-1.0-204.0","",""
"null","sound/msl/cat.wav","null","audio-keyboard-response","206","111388","0.0-1.0-205.0","",""
"null","sound/msl/clock.wav","null","audio-keyboard-response","207","111949","0.0-1.0-206.0","",""
"null","sound/msl/cow.wav","null","audio-keyboard-response","208","112458","0.0-1.0-207.0","",""
"null","sound/msl/duck.wav","null","audio-keyboard-response","209","112978","0.0-1.0-208.0","",""
"null","sound/msl/organ.wav","null","audio-keyboard-response","210","113489","0.0-1.0-209.0","",""
"null","sound/msl/door_bell.wav","null","audio-keyboard-response","211","114009","0.0-1.0-210.0","",""
"null","sound/msl/goat.wav","null","audio-keyboard-response","212","114559","0.0-1.0-211.0","",""
"null","sound/msl/bird.wav","null","audio-keyboard-response","213","115068","0.0-1.0-212.0","",""
"null","sound/msl/door.wav","null","audio-keyboard-response","214","115578","0.0-1.0-213.0","",""
"null","sound/msl/cat.wav","null","audio-keyboard-response","215","116089","0.0-1.0-214.0","",""
"null","sound/msl/clock.wav","null","audio-keyboard-response","216","116648","0.0-1.0-215.0","",""
"null","sound/msl/boing.wav","null","audio-keyboard-response","217","117159","0.0-1.0-216.0","",""
"null","sound/msl/dog.wav","null","audio-keyboard-response","218","117669","0.0-1.0-217.0","",""
"null","sound/msl/ding.wav","null","audio-keyboard-response","219","118179","0.0-1.0-218.0","",""
"null","sound/msl/slide_whistle.wav","null","audio-keyboard-response","220","118700","0.0-1.0-219.0","",""
"null","sound/msl/frog.wav","null","audio-keyboard-response","221","119219","0.0-1.0-220.0","",""
"null","sound/msl/Water.wav","null","audio-keyboard-response","222","119739","0.0-1.0-221.0","",""
"null","sound/msl/cow.wav","null","audio-keyboard-response","223","120259","0.0-1.0-222.0","",""
"null","sound/msl/duck.wav","null","audio-keyboard-response","224","120779","0.0-1.0-223.0","",""
"null","sound/msl/organ.wav","null","audio-keyboard-response","225","121289","0.0-1.0-224.0","",""
"null","sound/msl/boing.wav","null","audio-keyboard-response","226","121799","0.0-1.0-225.0","",""
"null","sound/msl/dog.wav","null","audio-keyboard-response","227","122309","0.0-1.0-226.0","",""
"null","sound/msl/ding.wav","null","audio-keyboard-response","228","122820","0.0-1.0-227.0","",""
"null","sound/msl/door.wav","null","audio-keyboard-response","229","123330","0.0-1.0-228.0","",""
"null","sound/msl/cat.wav","null","audio-keyboard-response","230","123839","0.0-1.0-229.0","",""
"null","sound/msl/clock.wav","null","audio-keyboard-response","231","124399","0.0-1.0-230.0","",""
"null","sound/msl/boing.wav","null","audio-keyboard-response","232","124910","0.0-1.0-231.0","",""
"null","sound/msl/dog.wav","null","audio-keyboard-response","233","125420","0.0-1.0-232.0","",""
"null","sound/msl/ding.wav","null","audio-keyboard-response","234","125940","0.0-1.0-233.0","",""
"null","sound/msl/cow.wav","null","audio-keyboard-response","235","126461","0.0-1.0-234.0","",""
"null","sound/msl/duck.wav","null","audio-keyboard-response","236","126981","0.0-1.0-235.0","",""
"null","sound/msl/organ.wav","null","audio-keyboard-response","237","127490","0.0-1.0-236.0","",""
"null","sound/msl/slide_whistle.wav","null","audio-keyboard-response","238","128010","0.0-1.0-237.0","",""
"null","sound/msl/frog.wav","null","audio-keyboard-response","239","128531","0.0-1.0-238.0","",""
"null","sound/msl/Water.wav","null","audio-keyboard-response","240","129051","0.0-1.0-239.0","",""
"null","sound/msl/door_bell.wav","null","audio-keyboard-response","241","129571","0.0-1.0-240.0","",""
"null","sound/msl/goat.wav","null","audio-keyboard-response","242","130121","0.0-1.0-241.0","",""
"null","sound/msl/bird.wav","null","audio-keyboard-response","243","130632","0.0-1.0-242.0","",""
"null","sound/msl/door.wav","null","audio-keyboard-response","244","131141","0.0-1.0-243.0","",""
"null","sound/msl/cat.wav","null","audio-keyboard-response","245","131651","0.0-1.0-244.0","",""
"null","sound/msl/clock.wav","null","audio-keyboard-response","246","132211","0.0-1.0-245.0","",""
"null","sound/msl/cow.wav","null","audio-keyboard-response","247","132731","0.0-1.0-246.0","",""
"null","sound/msl/duck.wav","null","audio-keyboard-response","248","133251","0.0-1.0-247.0","",""
"null","sound/msl/organ.wav","null","audio-keyboard-response","249","133761","0.0-1.0-248.0","",""
"null","sound/msl/slide_whistle.wav","null","audio-keyboard-response","250","134271","0.0-1.0-249.0","",""
"null","sound/msl/frog.wav","null","audio-keyboard-response","251","134781","0.0-1.0-250.0","",""
"null","sound/msl/Water.wav","null","audio-keyboard-response","252","135302","0.0-1.0-251.0","",""
"null","sound/msl/door_bell.wav","null","audio-keyboard-response","253","135823","0.0-1.0-252.0","",""
"null","sound/msl/goat.wav","null","audio-keyboard-response","254","136372","0.0-1.0-253.0","",""
"null","sound/msl/bird.wav","null","audio-keyboard-response","255","136892","0.0-1.0-254.0","",""
"null","sound/msl/boing.wav","null","audio-keyboard-response","256","137401","0.0-1.0-255.0","",""
"null","sound/msl/dog.wav","null","audio-keyboard-response","257","137912","0.0-1.0-256.0","",""
"null","sound/msl/ding.wav","null","audio-keyboard-response","258","138422","0.0-1.0-257.0","",""
"null","sound/msl/door.wav","null","audio-keyboard-response","259","138932","0.0-1.0-258.0","",""
"null","sound/msl/cat.wav","null","audio-keyboard-response","260","139442","0.0-1.0-259.0","",""
"null","sound/msl/clock.wav","null","audio-keyboard-response","261","140002","0.0-1.0-260.0","",""
"null","sound/msl/door_bell.wav","null","audio-keyboard-response","262","140512","0.0-1.0-261.0","",""
"null","sound/msl/goat.wav","null","audio-keyboard-response","263","141057","0.0-1.0-262.0","",""
"null","sound/msl/bird.wav","null","audio-keyboard-response","264","141577","0.0-1.0-263.0","",""
"null","sound/msl/slide_whistle.wav","null","audio-keyboard-response","265","142097","0.0-1.0-264.0","",""
"null","sound/msl/frog.wav","null","audio-keyboard-response","266","142617","0.0-1.0-265.0","",""
"null","sound/msl/Water.wav","null","audio-keyboard-response","267","143138","0.0-1.0-266.0","",""
"null","sound/msl/boing.wav","null","audio-keyboard-response","268","143647","0.0-1.0-267.0","",""
"null","sound/msl/dog.wav","null","audio-keyboard-response","269","144168","0.0-1.0-268.0","",""
"null","sound/msl/ding.wav","null","audio-keyboard-response","270","144687","0.0-1.0-269.0","",""
"null","sound/msl/cow.wav","null","audio-keyboard-response","271","145207","0.0-1.0-270.0","",""
"null","sound/msl/duck.wav","null","audio-keyboard-response","272","145728","0.0-1.0-271.0","",""
"null","sound/msl/organ.wav","null","audio-keyboard-response","273","146238","0.0-1.0-272.0","",""
"null","sound/msl/door.wav","null","audio-keyboard-response","274","146747","0.0-1.0-273.0","",""
"null","sound/msl/cat.wav","null","audio-keyboard-response","275","147258","0.0-1.0-274.0","",""
"null","sound/msl/clock.wav","null","audio-keyboard-response","276","147818","0.0-1.0-275.0","",""
"null","sound/msl/door_bell.wav","null","audio-keyboard-response","277","148338","0.0-1.0-276.0","",""
"null","sound/msl/goat.wav","null","audio-keyboard-response","278","148888","0.0-1.0-277.0","",""
"null","sound/msl/bird.wav","null","audio-keyboard-response","279","149408","0.0-1.0-278.0","",""
"null","sound/msl/slide_whistle.wav","null","audio-keyboard-response","280","149928","0.0-1.0-279.0","",""
"null","sound/msl/frog.wav","null","audio-keyboard-response","281","150449","0.0-1.0-280.0","",""
"null","sound/msl/Water.wav","null","audio-keyboard-response","282","150969","0.0-1.0-281.0","",""
"null","sound/msl/cow.wav","null","audio-keyboard-response","283","151488","0.0-1.0-282.0","",""
"null","sound/msl/duck.wav","null","audio-keyboard-response","284","152009","0.0-1.0-283.0","",""
"null","sound/msl/organ.wav","null","audio-keyboard-response","285","152518","0.0-1.0-284.0","",""
"null","sound/msl/boing.wav","null","audio-keyboard-response","286","153028","0.0-1.0-285.0","",""
"null","sound/msl/dog.wav","null","audio-keyboard-response","287","153538","0.0-1.0-286.0","",""
"null","sound/msl/ding.wav","null","audio-keyboard-response","288","154059","0.0-1.0-287.0","",""
"null","sound/msl/door.wav","null","audio-keyboard-response","289","154569","0.0-1.0-288.0","",""
"null","sound/msl/cat.wav","null","audio-keyboard-response","290","155079","0.0-1.0-289.0","",""
"null","sound/msl/clock.wav","null","audio-keyboard-response","291","155638","0.0-1.0-290.0","",""
"null","sound/msl/slide_whistle.wav","null","audio-keyboard-response","292","156149","0.0-1.0-291.0","",""
"null","sound/msl/frog.wav","null","audio-keyboard-response","293","156659","0.0-1.0-292.0","",""
"null","sound/msl/Water.wav","null","audio-keyboard-response","294","157179","0.0-1.0-293.0","",""
"null","sound/msl/door_bell.wav","null","audio-keyboard-response","295","157699","0.0-1.0-294.0","",""
"null","sound/msl/goat.wav","null","audio-keyboard-response","296","158250","0.0-1.0-295.0","",""
"null","sound/msl/bird.wav","null","audio-keyboard-response","297","158769","0.0-1.0-296.0","",""
"null","sound/msl/door.wav","null","audio-keyboard-response","298","159279","0.0-1.0-297.0","",""
"null","sound/msl/cat.wav","null","audio-keyboard-response","299","159789","0.0-1.0-298.0","",""
"null","sound/msl/clock.wav","null","audio-keyboard-response","300","160350","0.0-1.0-299.0","",""
"null","sound/msl/cow.wav","null","audio-keyboard-response","301","160860","0.0-1.0-300.0","",""
"null","sound/msl/duck.wav","null","audio-keyboard-response","302","161380","0.0-1.0-301.0","",""
"null","sound/msl/organ.wav","null","audio-keyboard-response","303","161890","0.0-1.0-302.0","",""
"null","sound/msl/slide_whistle.wav","null","audio-keyboard-response","304","162410","0.0-1.0-303.0","",""
"null","sound/msl/frog.wav","null","audio-keyboard-response","305","162930","0.0-1.0-304.0","",""
"null","sound/msl/Water.wav","null","audio-keyboard-response","306","163450","0.0-1.0-305.0","",""
"null","sound/msl/boing.wav","null","audio-keyboard-response","307","163960","0.0-1.0-306.0","",""
"null","sound/msl/dog.wav","null","audio-keyboard-response","308","164470","0.0-1.0-307.0","",""
"null","sound/msl/ding.wav","null","audio-keyboard-response","309","164980","0.0-1.0-308.0","",""
"null","sound/msl/door_bell.wav","null","audio-keyboard-response","310","165500","0.0-1.0-309.0","",""
"null","sound/msl/goat.wav","null","audio-keyboard-response","311","166050","0.0-1.0-310.0","",""
"null","sound/msl/bird.wav","null","audio-keyboard-response","312","166570","0.0-1.0-311.0","",""
"null","sound/msl/door.wav","null","audio-keyboard-response","313","167080","0.0-1.0-312.0","",""
"null","sound/msl/cat.wav","null","audio-keyboard-response","314","167591","0.0-1.0-313.0","",""
"null","sound/msl/clock.wav","null","audio-keyboard-response","315","168151","0.0-1.0-314.0","",""
"null","sound/msl/cow.wav","null","audio-keyboard-response","316","168660","0.0-1.0-315.0","",""
"null","sound/msl/duck.wav","null","audio-keyboard-response","317","169180","0.0-1.0-316.0","",""
"null","sound/msl/organ.wav","null","audio-keyboard-response","318","169691","0.0-1.0-317.0","",""
"null","sound/msl/slide_whistle.wav","null","audio-keyboard-response","319","170211","0.0-1.0-318.0","",""
"null","sound/msl/frog.wav","null","audio-keyboard-response","320","170731","0.0-1.0-319.0","",""
"null","sound/msl/Water.wav","null","audio-keyboard-response","321","171251","0.0-1.0-320.0","",""
"null","sound/msl/door_bell.wav","null","audio-keyboard-response","322","171771","0.0-1.0-321.0","",""
"null","sound/msl/goat.wav","null","audio-keyboard-response","323","172322","0.0-1.0-322.0","",""
"null","sound/msl/bird.wav","null","audio-keyboard-response","324","172831","0.0-1.0-323.0","",""
"null","sound/msl/cow.wav","null","audio-keyboard-response","325","173341","0.0-1.0-324.0","",""
"null","sound/msl/duck.wav","null","audio-keyboard-response","326","173861","0.0-1.0-325.0","",""
"null","sound/msl/organ.wav","null","audio-keyboard-response","327","174372","0.0-1.0-326.0","",""
"null","sound/msl/boing.wav","null","audio-keyboard-response","328","174881","0.0-1.0-327.0","",""
"null","sound/msl/dog.wav","null","audio-keyboard-response","329","175392","0.0-1.0-328.0","",""
"null","sound/msl/ding.wav","null","audio-keyboard-response","330","175901","0.0-1.0-329.0","",""
"null","sound/msl/door.wav","null","audio-keyboard-response","331","176412","0.0-1.0-330.0","",""
"null","sound/msl/cat.wav","null","audio-keyboard-response","332","176922","0.0-1.0-331.0","",""
"null","sound/msl/clock.wav","null","audio-keyboard-response","333","177482","0.0-1.0-332.0","",""
"null","sound/msl/slide_whistle.wav","null","audio-keyboard-response","334","177991","0.0-1.0-333.0","",""
"null","sound/msl/frog.wav","null","audio-keyboard-response","335","178502","0.0-1.0-334.0","",""
"null","sound/msl/Water.wav","null","audio-keyboard-response","336","179021","0.0-1.0-335.0","",""
"null","sound/msl/boing.wav","null","audio-keyboard-response","337","179532","0.0-1.0-336.0","",""
"null","sound/msl/dog.wav","null","audio-keyboard-response","338","180052","0.0-1.0-337.0","",""
"null","sound/msl/ding.wav","null","audio-keyboard-response","339","180572","0.0-1.0-338.0","",""
"null","sound/msl/door_bell.wav","null","audio-keyboard-response","340","181092","0.0-1.0-339.0","",""
"null","sound/msl/goat.wav","null","audio-keyboard-response","341","181638","0.0-1.0-340.0","",""
"null","sound/msl/bird.wav","null","audio-keyboard-response","342","182147","0.0-1.0-341.0","",""
"null","sound/msl/slide_whistle.wav","null","audio-keyboard-response","343","182657","0.0-1.0-342.0","",""
"null","sound/msl/frog.wav","null","audio-keyboard-response","344","183177","0.0-1.0-343.0","",""
"null","sound/msl/Water.wav","null","audio-keyboard-response","345","183697","0.0-1.0-344.0","",""
"null","sound/msl/door_bell.wav","null","audio-keyboard-response","346","184218","0.0-1.0-345.0","",""
"null","sound/msl/goat.wav","null","audio-keyboard-response","347","184768","0.0-1.0-346.0","",""
"null","sound/msl/bird.wav","null","audio-keyboard-response","348","185288","0.0-1.0-347.0","",""
"null","sound/msl/boing.wav","null","audio-keyboard-response","349","185798","0.0-1.0-348.0","",""
"null","sound/msl/dog.wav","null","audio-keyboard-response","350","186307","0.0-1.0-349.0","",""
"null","sound/msl/ding.wav","null","audio-keyboard-response","351","186818","0.0-1.0-350.0","",""
"null","sound/msl/door.wav","null","audio-keyboard-response","352","187328","0.0-1.0-351.0","",""
"null","sound/msl/cat.wav","null","audio-keyboard-response","353","187838","0.0-1.0-352.0","",""
"null","sound/msl/clock.wav","null","audio-keyboard-response","354","188398","0.0-1.0-353.0","",""
"null","sound/msl/slide_whistle.wav","null","audio-keyboard-response","355","188908","0.0-1.0-354.0","",""
"null","sound/msl/frog.wav","null","audio-keyboard-response","356","189419","0.0-1.0-355.0","",""
"null","sound/msl/Water.wav","null","audio-keyboard-response","357","189939","0.0-1.0-356.0","",""
"null","sound/msl/door_bell.wav","null","audio-keyboard-response","358","190460","0.0-1.0-357.0","",""
"null","sound/msl/goat.wav","null","audio-keyboard-response","359","191009","0.0-1.0-358.0","",""
"null","sound/msl/bird.wav","null","audio-keyboard-response","360","191529","0.0-1.0-359.0","",""
"10740","Instructions2-eng.png","49","image-keyboard-response","361","202274","0.0-2.0","",""
"null","sound/msl/boing.wav","null","audio-keyboard-response","362","202781","0.0-3.0-0.0","",""
"null","sound/msl/dog.wav","null","audio-keyboard-response","363","203301","0.0-3.0-1.0","",""
"null","sound/msl/ding.wav","null","audio-keyboard-response","364","203821","0.0-3.0-2.0","",""
"null","sound/asl/silence.wav","null","audio-keyboard-response","365","204324","0.0-3.0-3.0","",""
"null","sound/msl/door.wav","null","audio-keyboard-response","366","204831","0.0-3.0-4.0","",""
"null","sound/msl/goat.wav","null","audio-keyboard-response","367","205381","0.0-3.0-5.0","",""
"null","sound/msl/organ.wav","null","audio-keyboard-response","368","205891","0.0-3.0-6.0","",""
"3221","sound/asl/silence.wav","49","audio-keyboard-response","369","209115","0.0-3.0-7.0","true",""
"null","sound/msl/cow.wav","null","audio-keyboard-response","370","209621","0.0-4.0-0.0","",""
"null","sound/msl/dog.wav","null","audio-keyboard-response","371","210141","0.0-4.0-1.0","",""
"null","sound/msl/Water.wav","null","audio-keyboard-response","372","210662","0.0-4.0-2.0","",""
"null","sound/asl/silence.wav","null","audio-keyboard-response","373","211162","0.0-4.0-3.0","",""
"null","sound/msl/boing.wav","null","audio-keyboard-response","374","211672","0.0-4.0-4.0","",""
"null","sound/msl/dog.wav","null","audio-keyboard-response","375","212181","0.0-4.0-5.0","",""
"null","sound/msl/ding.wav","null","audio-keyboard-response","376","212702","0.0-4.0-6.0","",""
"1269","sound/asl/silence.wav","50","audio-keyboard-response","377","213977","0.0-4.0-7.0","true",""
"null","sound/msl/door.wav","null","audio-keyboard-response","378","214481","0.0-5.0-0.0","",""
"null","sound/msl/goat.wav","null","audio-keyboard-response","379","215032","0.0-5.0-1.0","",""
"null","sound/msl/organ.wav","null","audio-keyboard-response","380","215542","0.0-5.0-2.0","",""
"null","sound/asl/silence.wav","null","audio-keyboard-response","381","216043","0.0-5.0-3.0","",""
"null","sound/msl/cow.wav","null","audio-keyboard-response","382","216552","0.0-5.0-4.0","",""
"null","sound/msl/duck.wav","null","audio-keyboard-response","383","217062","0.0-5.0-5.0","",""
"null","sound/msl/organ.wav","null","audio-keyboard-response","384","217572","0.0-5.0-6.0","",""
"669","sound/asl/silence.wav","49","audio-keyboard-response","385","218244","0.0-5.0-7.0","false",""
"null","sound/msl/boing.wav","null","audio-keyboard-response","386","218753","0.0-6.0-0.0","",""
"null","sound/msl/frog.wav","null","audio-keyboard-response","387","219262","0.0-6.0-1.0","",""
"null","sound/msl/clock.wav","null","audio-keyboard-response","388","219822","0.0-6.0-2.0","",""
"null","sound/asl/silence.wav","null","audio-keyboard-response","389","220324","0.0-6.0-3.0","",""
"null","sound/msl/door_bell.wav","null","audio-keyboard-response","390","220833","0.0-6.0-4.0","",""
"null","sound/msl/goat.wav","null","audio-keyboard-response","391","221383","0.0-6.0-5.0","",""
"null","sound/msl/bird.wav","null","audio-keyboard-response","392","221897","0.0-6.0-6.0","",""
"800","sound/asl/silence.wav","50","audio-keyboard-response","393","222698","0.0-6.0-7.0","true",""
"null","sound/msl/door.wav","null","audio-keyboard-response","394","223209","0.0-7.0-0.0","",""
"null","sound/msl/cat.wav","null","audio-keyboard-response","395","223718","0.0-7.0-1.0","",""
"null","sound/msl/clock.wav","null","audio-keyboard-response","396","224277","0.0-7.0-2.0","",""
"null","sound/asl/silence.wav","null","audio-keyboard-response","397","224779","0.0-7.0-3.0","",""
"null","sound/msl/door.wav","null","audio-keyboard-response","398","225288","0.0-7.0-4.0","",""
"null","sound/msl/goat.wav","null","audio-keyboard-response","399","225838","0.0-7.0-5.0","",""
"null","sound/msl/organ.wav","null","audio-keyboard-response","400","226349","0.0-7.0-6.0","",""
"2008","sound/asl/silence.wav","50","audio-keyboard-response","401","228361","0.0-7.0-7.0","false",""
"null","sound/msl/cow.wav","null","audio-keyboard-response","402","228869","0.0-8.0-0.0","",""
"null","sound/msl/dog.wav","null","audio-keyboard-response","403","229378","0.0-8.0-1.0","",""
"null","sound/msl/Water.wav","null","audio-keyboard-response","404","229899","0.0-8.0-2.0","",""
"null","sound/asl/silence.wav","null","audio-keyboard-response","405","230400","0.0-8.0-3.0","",""
"null","sound/msl/door_bell.wav","null","audio-keyboard-response","406","230908","0.0-8.0-4.0","",""
"null","sound/msl/goat.wav","null","audio-keyboard-response","407","231459","0.0-8.0-5.0","",""
"null","sound/msl/bird.wav","null","audio-keyboard-response","408","231979","0.0-8.0-6.0","",""
"869","sound/asl/silence.wav","49","audio-keyboard-response","409","232851","0.0-8.0-7.0","false",""
"null","sound/msl/boing.wav","null","audio-keyboard-response","410","233359","0.0-9.0-0.0","",""
"null","sound/msl/frog.wav","null","audio-keyboard-response","411","233869","0.0-9.0-1.0","",""
"null","sound/msl/clock.wav","null","audio-keyboard-response","412","234429","0.0-9.0-2.0","",""
"null","sound/asl/silence.wav","null","audio-keyboard-response","413","234931","0.0-9.0-3.0","",""
"null","sound/msl/boing.wav","null","audio-keyboard-response","414","235439","0.0-9.0-4.0","",""
"null","sound/msl/dog.wav","null","audio-keyboard-response","415","235950","0.0-9.0-5.0","",""
"null","sound/msl/ding.wav","null","audio-keyboard-response","416","236460","0.0-9.0-6.0","",""
"2149","sound/asl/silence.wav","50","audio-keyboard-response","417","238619","0.0-9.0-7.0","true",""
"null","sound/msl/cow.wav","null","audio-keyboard-response","418","239140","0.0-10.0-0.0","",""
"null","sound/msl/dog.wav","null","audio-keyboard-response","419","239660","0.0-10.0-1.0","",""
"null","sound/msl/Water.wav","null","audio-keyboard-response","420","240180","0.0-10.0-2.0","",""
"null","sound/asl/silence.wav","null","audio-keyboard-response","421","240681","0.0-10.0-3.0","",""
"null","sound/msl/slide_whistle.wav","null","audio-keyboard-response","422","241190","0.0-10.0-4.0","",""
"null","sound/msl/frog.wav","null","audio-keyboard-response","423","241700","0.0-10.0-5.0","",""
"null","sound/msl/Water.wav","null","audio-keyboard-response","424","242220","0.0-10.0-6.0","",""
"931","sound/asl/silence.wav","49","audio-keyboard-response","425","243152","0.0-10.0-7.0","false",""
"null","sound/msl/slide_whistle.wav","null","audio-keyboard-response","426","243661","0.0-11.0-0.0","",""
"null","sound/msl/cat.wav","null","audio-keyboard-response","427","244170","0.0-11.0-1.0","",""
"null","sound/msl/bird.wav","null","audio-keyboard-response","428","244691","0.0-11.0-2.0","",""
"null","sound/asl/silence.wav","null","audio-keyboard-response","429","245192","0.0-11.0-3.0","",""
"null","sound/msl/boing.wav","null","audio-keyboard-response","430","245700","0.0-11.0-4.0","",""
"null","sound/msl/dog.wav","null","audio-keyboard-response","431","246221","0.0-11.0-5.0","",""
"null","sound/msl/ding.wav","null","audio-keyboard-response","432","246741","0.0-11.0-6.0","",""
"451","sound/asl/silence.wav","49","audio-keyboard-response","433","247195","0.0-11.0-7.0","false",""
"null","sound/msl/door_bell.wav","null","audio-keyboard-response","434","247700","0.0-12.0-0.0","",""
"null","sound/msl/goat.wav","null","audio-keyboard-response","435","248251","0.0-12.0-1.0","",""
"null","sound/msl/bird.wav","null","audio-keyboard-response","436","248771","0.0-12.0-2.0","",""
"null","sound/asl/silence.wav","null","audio-keyboard-response","437","249272","0.0-12.0-3.0","",""
"null","sound/msl/door.wav","null","audio-keyboard-response","438","249782","0.0-12.0-4.0","",""
"null","sound/msl/goat.wav","null","audio-keyboard-response","439","250331","0.0-12.0-5.0","",""
"null","sound/msl/organ.wav","null","audio-keyboard-response","440","250841","0.0-12.0-6.0","",""
"941","sound/asl/silence.wav","50","audio-keyboard-response","441","251785","0.0-12.0-7.0","false",""
"null","sound/msl/boing.wav","null","audio-keyboard-response","442","252291","0.0-13.0-0.0","",""
"null","sound/msl/frog.wav","null","audio-keyboard-response","443","252811","0.0-13.0-1.0","",""
"null","sound/msl/clock.wav","null","audio-keyboard-response","444","253371","0.0-13.0-2.0","",""
"null","sound/asl/silence.wav","null","audio-keyboard-response","445","253873","0.0-13.0-3.0","",""
"null","sound/msl/door.wav","null","audio-keyboard-response","446","254382","0.0-13.0-4.0","",""
"null","sound/msl/cat.wav","null","audio-keyboard-response","447","254894","0.0-13.0-5.0","",""
"null","sound/msl/clock.wav","null","audio-keyboard-response","448","255452","0.0-13.0-6.0","",""
"821","sound/asl/silence.wav","49","audio-keyboard-response","449","256274","0.0-13.0-7.0","false",""
"null","sound/msl/cow.wav","null","audio-keyboard-response","450","256782","0.0-14.0-0.0","",""
"null","sound/msl/duck.wav","null","audio-keyboard-response","451","257303","0.0-14.0-1.0","",""
"null","sound/msl/organ.wav","null","audio-keyboard-response","452","257812","0.0-14.0-2.0","",""
"null","sound/asl/silence.wav","null","audio-keyboard-response","453","258315","0.0-14.0-3.0","",""
"null","sound/msl/door_bell.wav","null","audio-keyboard-response","454","258822","0.0-14.0-4.0","",""
"null","sound/msl/duck.wav","null","audio-keyboard-response","455","259345","0.0-14.0-5.0","",""
"null","sound/msl/ding.wav","null","audio-keyboard-response","456","259863","0.0-14.0-6.0","",""
"459","sound/asl/silence.wav","50","audio-keyboard-response","457","260329","0.0-14.0-7.0","false",""
"null","sound/msl/boing.wav","null","audio-keyboard-response","458","260833","0.0-15.0-0.0","",""
"null","sound/msl/dog.wav","null","audio-keyboard-response","459","261343","0.0-15.0-1.0","",""
"null","sound/msl/ding.wav","null","audio-keyboard-response","460","261864","0.0-15.0-2.0","",""
"null","sound/asl/silence.wav","null","audio-keyboard-response","461","262364","0.0-15.0-3.0","",""
"null","sound/msl/door_bell.wav","null","audio-keyboard-response","462","262868","0.0-15.0-4.0","",""
"null","sound/msl/duck.wav","null","audio-keyboard-response","463","263378","0.0-15.0-5.0","",""
"null","sound/msl/ding.wav","null","audio-keyboard-response","464","263898","0.0-15.0-6.0","",""
"160","sound/asl/silence.wav","49","audio-keyboard-response","465","264069","0.0-15.0-7.0","true",""
"null","sound/msl/slide_whistle.wav","null","audio-keyboard-response","466","264578","0.0-16.0-0.0","",""
"null","sound/msl/frog.wav","null","audio-keyboard-response","467","265098","0.0-16.0-1.0","",""
"null","sound/msl/Water.wav","null","audio-keyboard-response","468","265619","0.0-16.0-2.0","",""
"null","sound/asl/silence.wav","null","audio-keyboard-response","469","266120","0.0-16.0-3.0","",""
"null","sound/msl/door.wav","null","audio-keyboard-response","470","266629","0.0-16.0-4.0","",""
"null","sound/msl/goat.wav","null","audio-keyboard-response","471","267179","0.0-16.0-5.0","",""
"null","sound/msl/organ.wav","null","audio-keyboard-response","472","267689","0.0-16.0-6.0","",""
"621","sound/asl/silence.wav","50","audio-keyboard-response","473","268319","0.0-16.0-7.0","false",""
"null","sound/msl/cow.wav","null","audio-keyboard-response","474","268829","0.0-17.0-0.0","",""
"null","sound/msl/duck.wav","null","audio-keyboard-response","475","269340","0.0-17.0-1.0","",""
"null","sound/msl/organ.wav","null","audio-keyboard-response","476","269849","0.0-17.0-2.0","",""
"null","sound/asl/silence.wav","null","audio-keyboard-response","477","270350","0.0-17.0-3.0","",""
"null","sound/msl/boing.wav","null","audio-keyboard-response","478","270859","0.0-17.0-4.0","",""
"null","sound/msl/frog.wav","null","audio-keyboard-response","479","271379","0.0-17.0-5.0","",""
"null","sound/msl/clock.wav","null","audio-keyboard-response","480","271940","0.0-17.0-6.0","",""
"429","sound/asl/silence.wav","49","audio-keyboard-response","481","272371","0.0-17.0-7.0","true",""
"null","sound/msl/door.wav","null","audio-keyboard-response","482","272879","0.0-18.0-0.0","",""
"null","sound/msl/cat.wav","null","audio-keyboard-response","483","273390","0.0-18.0-1.0","",""
"null","sound/msl/clock.wav","null","audio-keyboard-response","484","273949","0.0-18.0-2.0","",""
"null","sound/asl/silence.wav","null","audio-keyboard-response","485","274451","0.0-18.0-3.0","",""
"null","sound/msl/cow.wav","null","audio-keyboard-response","486","274970","0.0-18.0-4.0","",""
"null","sound/msl/dog.wav","null","audio-keyboard-response","487","275490","0.0-18.0-5.0","",""
"null","sound/msl/Water.wav","null","audio-keyboard-response","488","276010","0.0-18.0-6.0","",""
"920","sound/asl/silence.wav","49","audio-keyboard-response","489","276936","0.0-18.0-7.0","true",""
"null","sound/msl/door_bell.wav","null","audio-keyboard-response","490","277450","0.0-19.0-0.0","",""
"null","sound/msl/duck.wav","null","audio-keyboard-response","491","277970","0.0-19.0-1.0","",""
"null","sound/msl/ding.wav","null","audio-keyboard-response","492","278490","0.0-19.0-2.0","",""
"null","sound/asl/silence.wav","null","audio-keyboard-response","493","278991","0.0-19.0-3.0","",""
"null","sound/msl/door.wav","null","audio-keyboard-response","494","279501","0.0-19.0-4.0","",""
"null","sound/msl/cat.wav","null","audio-keyboard-response","495","280010","0.0-19.0-5.0","",""
"null","sound/msl/clock.wav","null","audio-keyboard-response","496","280570","0.0-19.0-6.0","",""
"901","sound/asl/silence.wav","50","audio-keyboard-response","497","281477","0.0-19.0-7.0","true",""
"null","sound/msl/cow.wav","null","audio-keyboard-response","498","281980","0.0-20.0-0.0","",""
"null","sound/msl/duck.wav","null","audio-keyboard-response","499","282501","0.0-20.0-1.0","",""
"null","sound/msl/organ.wav","null","audio-keyboard-response","500","283011","0.0-20.0-2.0","",""
"null","sound/asl/silence.wav","null","audio-keyboard-response","501","283512","0.0-20.0-3.0","",""
"null","sound/msl/cow.wav","null","audio-keyboard-response","502","284021","0.0-20.0-4.0","",""
"null","sound/msl/dog.wav","null","audio-keyboard-response","503","284541","0.0-20.0-5.0","",""
"null","sound/msl/Water.wav","null","audio-keyboard-response","504","285061","0.0-20.0-6.0","",""
"1229","sound/asl/silence.wav","50","audio-keyboard-response","505","286300","0.0-20.0-7.0","false",""
"null","sound/msl/door_bell.wav","null","audio-keyboard-response","506","286821","0.0-21.0-0.0","",""
"null","sound/msl/duck.wav","null","audio-keyboard-response","507","287341","0.0-21.0-1.0","",""
"null","sound/msl/ding.wav","null","audio-keyboard-response","508","287862","0.0-21.0-2.0","",""
"null","sound/asl/silence.wav","null","audio-keyboard-response","509","288364","0.0-21.0-3.0","",""
"null","sound/msl/door_bell.wav","null","audio-keyboard-response","510","288871","0.0-21.0-4.0","",""
"null","sound/msl/goat.wav","null","audio-keyboard-response","511","289421","0.0-21.0-5.0","",""
"null","sound/msl/bird.wav","null","audio-keyboard-response","512","289941","0.0-21.0-6.0","",""
"571","sound/asl/silence.wav","50","audio-keyboard-response","513","290520","0.0-21.0-7.0","true",""
"null","sound/msl/boing.wav","null","audio-keyboard-response","514","291032","0.0-22.0-0.0","",""
"null","sound/msl/frog.wav","null","audio-keyboard-response","515","291542","0.0-22.0-1.0","",""
"null","sound/msl/clock.wav","null","audio-keyboard-response","516","292102","0.0-22.0-2.0","",""
"null","sound/asl/silence.wav","null","audio-keyboard-response","517","292603","0.0-22.0-3.0","",""
"null","sound/msl/slide_whistle.wav","null","audio-keyboard-response","518","293112","0.0-22.0-4.0","",""
"null","sound/msl/frog.wav","null","audio-keyboard-response","519","293622","0.0-22.0-5.0","",""
"null","sound/msl/Water.wav","null","audio-keyboard-response","520","294142","0.0-22.0-6.0","",""
"429","sound/asl/silence.wav","49","audio-keyboard-response","521","294577","0.0-22.0-7.0","false",""
"null","sound/msl/door_bell.wav","null","audio-keyboard-response","522","295092","0.0-23.0-0.0","",""
"null","sound/msl/duck.wav","null","audio-keyboard-response","523","295612","0.0-23.0-1.0","",""
"null","sound/msl/ding.wav","null","audio-keyboard-response","524","296132","0.0-23.0-2.0","",""
"null","sound/asl/silence.wav","null","audio-keyboard-response","525","296634","0.0-23.0-3.0","",""
"null","sound/msl/slide_whistle.wav","null","audio-keyboard-response","526","297142","0.0-23.0-4.0","",""
"null","sound/msl/frog.wav","null","audio-keyboard-response","527","297663","0.0-23.0-5.0","",""
"null","sound/msl/Water.wav","null","audio-keyboard-response","528","298183","0.0-23.0-6.0","",""
"659","sound/asl/silence.wav","50","audio-keyboard-response","529","298846","0.0-23.0-7.0","true",""
"null","sound/msl/slide_whistle.wav","null","audio-keyboard-response","530","299353","0.0-24.0-0.0","",""
"null","sound/msl/cat.wav","null","audio-keyboard-response","531","299863","0.0-24.0-1.0","",""
"null","sound/msl/bird.wav","null","audio-keyboard-response","532","300383","0.0-24.0-2.0","",""
"null","sound/asl/silence.wav","null","audio-keyboard-response","533","300885","0.0-24.0-3.0","",""
"null","sound/msl/cow.wav","null","audio-keyboard-response","534","301393","0.0-24.0-4.0","",""
"null","sound/msl/duck.wav","null","audio-keyboard-response","535","301903","0.0-24.0-5.0","",""
"null","sound/msl/organ.wav","null","audio-keyboard-response","536","302413","0.0-24.0-6.0","",""
"709","sound/asl/silence.wav","50","audio-keyboard-response","537","303131","0.0-24.0-7.0","true",""
"null","sound/msl/door_bell.wav","null","audio-keyboard-response","538","303629","0.0-25.0-0.0","",""
"null","sound/msl/goat.wav","null","audio-keyboard-response","539","304178","0.0-25.0-1.0","",""
"null","sound/msl/bird.wav","null","audio-keyboard-response","540","304699","0.0-25.0-2.0","",""
"null","sound/asl/silence.wav","null","audio-keyboard-response","541","305199","0.0-25.0-3.0","",""
"null","sound/msl/slide_whistle.wav","null","audio-keyboard-response","542","305708","0.0-25.0-4.0","",""
"null","sound/msl/cat.wav","null","audio-keyboard-response","543","306219","0.0-25.0-5.0","",""
"null","sound/msl/bird.wav","null","audio-keyboard-response","544","306739","0.0-25.0-6.0","",""
"619","sound/asl/silence.wav","50","audio-keyboard-response","545","307365","0.0-25.0-7.0","false",""
"null","sound/msl/door.wav","null","audio-keyboard-response","546","307869","0.0-26.0-0.0","",""
"null","sound/msl/cat.wav","null","audio-keyboard-response","547","308379","0.0-26.0-1.0","",""
"null","sound/msl/clock.wav","null","audio-keyboard-response","548","308939","0.0-26.0-2.0","",""
"null","sound/asl/silence.wav","null","audio-keyboard-response","549","309439","0.0-26.0-3.0","",""
"null","sound/msl/slide_whistle.wav","null","audio-keyboard-response","550","309949","0.0-26.0-4.0","",""
"null","sound/msl/cat.wav","null","audio-keyboard-response","551","310460","0.0-26.0-5.0","",""
"null","sound/msl/bird.wav","null","audio-keyboard-response","552","310980","0.0-26.0-6.0","",""
"299","sound/asl/silence.wav","49","audio-keyboard-response","553","311281","0.0-26.0-7.0","true",""
"null","sound/msl/slide_whistle.wav","null","audio-keyboard-response","554","311789","0.0-27.0-0.0","",""
"null","sound/msl/frog.wav","null","audio-keyboard-response","555","312300","0.0-27.0-1.0","",""
"null","sound/msl/Water.wav","null","audio-keyboard-response","556","312820","0.0-27.0-2.0","",""
"null","sound/asl/silence.wav","null","audio-keyboard-response","557","313322","0.0-27.0-3.0","",""
"null","sound/msl/slide_whistle.wav","null","audio-keyboard-response","558","313830","0.0-27.0-4.0","",""
"null","sound/msl/cat.wav","null","audio-keyboard-response","559","314340","0.0-27.0-5.0","",""
"null","sound/msl/bird.wav","null","audio-keyboard-response","560","314860","0.0-27.0-6.0","",""
"491","sound/asl/silence.wav","50","audio-keyboard-response","561","315351","0.0-27.0-7.0","false",""
"3707","","","instructions","562","319061","0.0-28.0","","[{""page_index"":0,""viewing_time"":3707}]"
