"rt","stimulus","key_press","trial_type","trial_index","time_elapsed","internal_node_id","correct","view_history"
"11198","alien.jpg","49","image-keyboard-response","0","11200","0.0-0.0","",""
"null","sound/msl/Water.wav","null","audio-keyboard-response","1","11705","0.0-1.0-0.0","",""
"null","sound/msl/cat.wav","null","audio-keyboard-response","2","12206","0.0-1.0-1.0","",""
"null","sound/msl/door_bell.wav","null","audio-keyboard-response","3","12714","0.0-1.0-2.0","",""
"null","sound/msl/clock.wav","null","audio-keyboard-response","4","13266","0.0-1.0-3.0","",""
"null","sound/msl/slide_whistle.wav","null","audio-keyboard-response","5","13765","0.0-1.0-4.0","",""
"null","sound/msl/duck.wav","null","audio-keyboard-response","6","14275","0.0-1.0-5.0","",""
"null","sound/msl/door.wav","null","audio-keyboard-response","7","14774","0.0-1.0-6.0","",""
"null","sound/msl/ding.wav","null","audio-keyboard-response","8","15275","0.0-1.0-7.0","",""
"null","sound/msl/bird.wav","null","audio-keyboard-response","9","15785","0.0-1.0-8.0","",""
"null","sound/msl/cow.wav","null","audio-keyboard-response","10","16286","0.0-1.0-9.0","",""
"null","sound/msl/frog.wav","null","audio-keyboard-response","11","16794","0.0-1.0-10.0","",""
"null","sound/msl/goat.wav","null","audio-keyboard-response","12","17334","0.0-1.0-11.0","",""
"null","sound/msl/clock.wav","null","audio-keyboard-response","13","17885","0.0-1.0-12.0","",""
"null","sound/msl/slide_whistle.wav","null","audio-keyboard-response","14","18385","0.0-1.0-13.0","",""
"null","sound/msl/duck.wav","null","audio-keyboard-response","15","18885","0.0-1.0-14.0","",""
"null","sound/msl/Water.wav","null","audio-keyboard-response","16","19398","0.0-1.0-15.0","",""
"null","sound/msl/cat.wav","null","audio-keyboard-response","17","19897","0.0-1.0-16.0","",""
"null","sound/msl/door_bell.wav","null","audio-keyboard-response","18","20397","0.0-1.0-17.0","",""
"null","sound/msl/dog.wav","null","audio-keyboard-response","19","20906","0.0-1.0-18.0","",""
"null","sound/msl/organ.wav","null","audio-keyboard-response","20","21407","0.0-1.0-19.0","",""
"null","sound/msl/boing.wav","null","audio-keyboard-response","21","21908","0.0-1.0-20.0","",""
"null","sound/msl/cow.wav","null","audio-keyboard-response","22","22407","0.0-1.0-21.0","",""
"null","sound/msl/frog.wav","null","audio-keyboard-response","23","22917","0.0-1.0-22.0","",""
"null","sound/msl/goat.wav","null","audio-keyboard-response","24","23457","0.0-1.0-23.0","",""
"null","sound/msl/door.wav","null","audio-keyboard-response","25","23958","0.0-1.0-24.0","",""
"null","sound/msl/ding.wav","null","audio-keyboard-response","26","24467","0.0-1.0-25.0","",""
"null","sound/msl/bird.wav","null","audio-keyboard-response","27","24968","0.0-1.0-26.0","",""
"null","sound/msl/Water.wav","null","audio-keyboard-response","28","25477","0.0-1.0-27.0","",""
"null","sound/msl/cat.wav","null","audio-keyboard-response","29","25977","0.0-1.0-28.0","",""
"null","sound/msl/door_bell.wav","null","audio-keyboard-response","30","26477","0.0-1.0-29.0","",""
"null","sound/msl/clock.wav","null","audio-keyboard-response","31","27027","0.0-1.0-30.0","",""
"null","sound/msl/slide_whistle.wav","null","audio-keyboard-response","32","27527","0.0-1.0-31.0","",""
"null","sound/msl/duck.wav","null","audio-keyboard-response","33","28038","0.0-1.0-32.0","",""
"null","sound/msl/dog.wav","null","audio-keyboard-response","34","28547","0.0-1.0-33.0","",""
"null","sound/msl/organ.wav","null","audio-keyboard-response","35","29047","0.0-1.0-34.0","",""
"null","sound/msl/boing.wav","null","audio-keyboard-response","36","29547","0.0-1.0-35.0","",""
"null","sound/msl/door.wav","null","audio-keyboard-response","37","30047","0.0-1.0-36.0","",""
"null","sound/msl/ding.wav","null","audio-keyboard-response","38","30557","0.0-1.0-37.0","",""
"null","sound/msl/bird.wav","null","audio-keyboard-response","39","31067","0.0-1.0-38.0","",""
"null","sound/msl/cow.wav","null","audio-keyboard-response","40","31567","0.0-1.0-39.0","",""
"null","sound/msl/frog.wav","null","audio-keyboard-response","41","32077","0.0-1.0-40.0","",""
"null","sound/msl/goat.wav","null","audio-keyboard-response","42","32616","0.0-1.0-41.0","",""
"null","sound/msl/dog.wav","null","audio-keyboard-response","43","33117","0.0-1.0-42.0","",""
"null","sound/msl/organ.wav","null","audio-keyboard-response","44","33618","0.0-1.0-43.0","",""
"null","sound/msl/boing.wav","null","audio-keyboard-response","45","34117","0.0-1.0-44.0","",""
"null","sound/msl/clock.wav","null","audio-keyboard-response","46","34667","0.0-1.0-45.0","",""
"null","sound/msl/slide_whistle.wav","null","audio-keyboard-response","47","35167","0.0-1.0-46.0","",""
"null","sound/msl/duck.wav","null","audio-keyboard-response","48","35678","0.0-1.0-47.0","",""
"null","sound/msl/door.wav","null","audio-keyboard-response","49","36178","0.0-1.0-48.0","",""
"null","sound/msl/ding.wav","null","audio-keyboard-response","50","36677","0.0-1.0-49.0","",""
"null","sound/msl/bird.wav","null","audio-keyboard-response","51","37187","0.0-1.0-50.0","",""
"null","sound/msl/Water.wav","null","audio-keyboard-response","52","37697","0.0-1.0-51.0","",""
"null","sound/msl/cat.wav","null","audio-keyboard-response","53","38197","0.0-1.0-52.0","",""
"null","sound/msl/door_bell.wav","null","audio-keyboard-response","54","38707","0.0-1.0-53.0","",""
"null","sound/msl/clock.wav","null","audio-keyboard-response","55","39258","0.0-1.0-54.0","",""
"null","sound/msl/slide_whistle.wav","null","audio-keyboard-response","56","39757","0.0-1.0-55.0","",""
"null","sound/msl/duck.wav","null","audio-keyboard-response","57","40268","0.0-1.0-56.0","",""
"null","sound/msl/door.wav","null","audio-keyboard-response","58","40767","0.0-1.0-57.0","",""
"null","sound/msl/ding.wav","null","audio-keyboard-response","59","41276","0.0-1.0-58.0","",""
"null","sound/msl/bird.wav","null","audio-keyboard-response","60","41787","0.0-1.0-59.0","",""
"null","sound/msl/cow.wav","null","audio-keyboard-response","61","42288","0.0-1.0-60.0","",""
"null","sound/msl/frog.wav","null","audio-keyboard-response","62","42797","0.0-1.0-61.0","",""
"null","sound/msl/goat.wav","null","audio-keyboard-response","63","43337","0.0-1.0-62.0","",""
"null","sound/msl/dog.wav","null","audio-keyboard-response","64","43838","0.0-1.0-63.0","",""
"null","sound/msl/organ.wav","null","audio-keyboard-response","65","44337","0.0-1.0-64.0","",""
"null","sound/msl/boing.wav","null","audio-keyboard-response","66","44838","0.0-1.0-65.0","",""
"null","sound/msl/clock.wav","null","audio-keyboard-response","67","45387","0.0-1.0-66.0","",""
"null","sound/msl/slide_whistle.wav","null","audio-keyboard-response","68","45888","0.0-1.0-67.0","",""
"null","sound/msl/duck.wav","null","audio-keyboard-response","69","46398","0.0-1.0-68.0","",""
"null","sound/msl/Water.wav","null","audio-keyboard-response","70","46907","0.0-1.0-69.0","",""
"null","sound/msl/cat.wav","null","audio-keyboard-response","71","47407","0.0-1.0-70.0","",""
"null","sound/msl/door_bell.wav","null","audio-keyboard-response","72","47917","0.0-1.0-71.0","",""
"null","sound/msl/door.wav","null","audio-keyboard-response","73","48417","0.0-1.0-72.0","",""
"null","sound/msl/ding.wav","null","audio-keyboard-response","74","48918","0.0-1.0-73.0","",""
"null","sound/msl/bird.wav","null","audio-keyboard-response","75","49427","0.0-1.0-74.0","",""
"null","sound/msl/cow.wav","null","audio-keyboard-response","76","49927","0.0-1.0-75.0","",""
"null","sound/msl/frog.wav","null","audio-keyboard-response","77","50438","0.0-1.0-76.0","",""
"null","sound/msl/goat.wav","null","audio-keyboard-response","78","50978","0.0-1.0-77.0","",""
"null","sound/msl/door.wav","null","audio-keyboard-response","79","51477","0.0-1.0-78.0","",""
"null","sound/msl/ding.wav","null","audio-keyboard-response","80","51987","0.0-1.0-79.0","",""
"null","sound/msl/bird.wav","null","audio-keyboard-response","81","52488","0.0-1.0-80.0","",""
"null","sound/msl/dog.wav","null","audio-keyboard-response","82","52998","0.0-1.0-81.0","",""
"null","sound/msl/organ.wav","null","audio-keyboard-response","83","53498","0.0-1.0-82.0","",""
"null","sound/msl/boing.wav","null","audio-keyboard-response","84","53997","0.0-1.0-83.0","",""
"null","sound/msl/Water.wav","null","audio-keyboard-response","85","54508","0.0-1.0-84.0","",""
"null","sound/msl/cat.wav","null","audio-keyboard-response","86","55008","0.0-1.0-85.0","",""
"null","sound/msl/door_bell.wav","null","audio-keyboard-response","87","55518","0.0-1.0-86.0","",""
"null","sound/msl/clock.wav","null","audio-keyboard-response","88","56068","0.0-1.0-87.0","",""
"null","sound/msl/slide_whistle.wav","null","audio-keyboard-response","89","56567","0.0-1.0-88.0","",""
"null","sound/msl/duck.wav","null","audio-keyboard-response","90","57077","0.0-1.0-89.0","",""
"null","sound/msl/dog.wav","null","audio-keyboard-response","91","57588","0.0-1.0-90.0","",""
"null","sound/msl/organ.wav","null","audio-keyboard-response","92","58088","0.0-1.0-91.0","",""
"null","sound/msl/boing.wav","null","audio-keyboard-response","93","58587","0.0-1.0-92.0","",""
"null","sound/msl/cow.wav","null","audio-keyboard-response","94","59087","0.0-1.0-93.0","",""
"null","sound/msl/frog.wav","null","audio-keyboard-response","95","59597","0.0-1.0-94.0","",""
"null","sound/msl/goat.wav","null","audio-keyboard-response","96","60137","0.0-1.0-95.0","",""
"null","sound/msl/door.wav","null","audio-keyboard-response","97","60637","0.0-1.0-96.0","",""
"null","sound/msl/ding.wav","null","audio-keyboard-response","98","61148","0.0-1.0-97.0","",""
"null","sound/msl/bird.wav","null","audio-keyboard-response","99","61648","0.0-1.0-98.0","",""
"null","sound/msl/clock.wav","null","audio-keyboard-response","100","62197","0.0-1.0-99.0","",""
"null","sound/msl/slide_whistle.wav","null","audio-keyboard-response","101","62697","0.0-1.0-100.0","",""
"null","sound/msl/duck.wav","null","audio-keyboard-response","102","63197","0.0-1.0-101.0","",""
"null","sound/msl/dog.wav","null","audio-keyboard-response","103","63707","0.0-1.0-102.0","",""
"null","sound/msl/organ.wav","null","audio-keyboard-response","104","64207","0.0-1.0-103.0","",""
"null","sound/msl/boing.wav","null","audio-keyboard-response","105","64707","0.0-1.0-104.0","",""
"null","sound/msl/Water.wav","null","audio-keyboard-response","106","65217","0.0-1.0-105.0","",""
"null","sound/msl/cat.wav","null","audio-keyboard-response","107","65718","0.0-1.0-106.0","",""
"null","sound/msl/door_bell.wav","null","audio-keyboard-response","108","66227","0.0-1.0-107.0","",""
"null","sound/msl/clock.wav","null","audio-keyboard-response","109","66777","0.0-1.0-108.0","",""
"null","sound/msl/slide_whistle.wav","null","audio-keyboard-response","110","67277","0.0-1.0-109.0","",""
"null","sound/msl/duck.wav","null","audio-keyboard-response","111","67787","0.0-1.0-110.0","",""
"null","sound/msl/cow.wav","null","audio-keyboard-response","112","68287","0.0-1.0-111.0","",""
"null","sound/msl/frog.wav","null","audio-keyboard-response","113","68797","0.0-1.0-112.0","",""
"null","sound/msl/goat.wav","null","audio-keyboard-response","114","69338","0.0-1.0-113.0","",""
"null","sound/msl/dog.wav","null","audio-keyboard-response","115","69837","0.0-1.0-114.0","",""
"null","sound/msl/organ.wav","null","audio-keyboard-response","116","70338","0.0-1.0-115.0","",""
"null","sound/msl/boing.wav","null","audio-keyboard-response","117","70837","0.0-1.0-116.0","",""
"null","sound/msl/door.wav","null","audio-keyboard-response","118","71337","0.0-1.0-117.0","",""
"null","sound/msl/ding.wav","null","audio-keyboard-response","119","71838","0.0-1.0-118.0","",""
"null","sound/msl/bird.wav","null","audio-keyboard-response","120","72348","0.0-1.0-119.0","",""
"null","sound/msl/Water.wav","null","audio-keyboard-response","121","72857","0.0-1.0-120.0","",""
"null","sound/msl/cat.wav","null","audio-keyboard-response","122","73358","0.0-1.0-121.0","",""
"null","sound/msl/door_bell.wav","null","audio-keyboard-response","123","73867","0.0-1.0-122.0","",""
"null","sound/msl/clock.wav","null","audio-keyboard-response","124","74417","0.0-1.0-123.0","",""
"null","sound/msl/slide_whistle.wav","null","audio-keyboard-response","125","74917","0.0-1.0-124.0","",""
"null","sound/msl/duck.wav","null","audio-keyboard-response","126","75427","0.0-1.0-125.0","",""
"null","sound/msl/dog.wav","null","audio-keyboard-response","127","75927","0.0-1.0-126.0","",""
"null","sound/msl/organ.wav","null","audio-keyboard-response","128","76427","0.0-1.0-127.0","",""
"null","sound/msl/boing.wav","null","audio-keyboard-response","129","76928","0.0-1.0-128.0","",""
"null","sound/msl/cow.wav","null","audio-keyboard-response","130","77437","0.0-1.0-129.0","",""
"null","sound/msl/frog.wav","null","audio-keyboard-response","131","77947","0.0-1.0-130.0","",""
"null","sound/msl/goat.wav","null","audio-keyboard-response","132","78487","0.0-1.0-131.0","",""
"null","sound/msl/clock.wav","null","audio-keyboard-response","133","79037","0.0-1.0-132.0","",""
"null","sound/msl/slide_whistle.wav","null","audio-keyboard-response","134","79537","0.0-1.0-133.0","",""
"null","sound/msl/duck.wav","null","audio-keyboard-response","135","80037","0.0-1.0-134.0","",""
"null","sound/msl/door.wav","null","audio-keyboard-response","136","80538","0.0-1.0-135.0","",""
"null","sound/msl/ding.wav","null","audio-keyboard-response","137","81037","0.0-1.0-136.0","",""
"null","sound/msl/bird.wav","null","audio-keyboard-response","138","81547","0.0-1.0-137.0","",""
"null","sound/msl/cow.wav","null","audio-keyboard-response","139","82047","0.0-1.0-138.0","",""
"null","sound/msl/frog.wav","null","audio-keyboard-response","140","82558","0.0-1.0-139.0","",""
"null","sound/msl/goat.wav","null","audio-keyboard-response","141","83097","0.0-1.0-140.0","",""
"null","sound/msl/Water.wav","null","audio-keyboard-response","142","83607","0.0-1.0-141.0","",""
"null","sound/msl/cat.wav","null","audio-keyboard-response","143","84107","0.0-1.0-142.0","",""
"null","sound/msl/door_bell.wav","null","audio-keyboard-response","144","84608","0.0-1.0-143.0","",""
"null","sound/msl/dog.wav","null","audio-keyboard-response","145","85117","0.0-1.0-144.0","",""
"null","sound/msl/organ.wav","null","audio-keyboard-response","146","85618","0.0-1.0-145.0","",""
"null","sound/msl/boing.wav","null","audio-keyboard-response","147","86118","0.0-1.0-146.0","",""
"null","sound/msl/door.wav","null","audio-keyboard-response","148","86618","0.0-1.0-147.0","",""
"null","sound/msl/ding.wav","null","audio-keyboard-response","149","87118","0.0-1.0-148.0","",""
"null","sound/msl/bird.wav","null","audio-keyboard-response","150","87627","0.0-1.0-149.0","",""
"null","sound/msl/Water.wav","null","audio-keyboard-response","151","88137","0.0-1.0-150.0","",""
"null","sound/msl/cat.wav","null","audio-keyboard-response","152","88638","0.0-1.0-151.0","",""
"null","sound/msl/door_bell.wav","null","audio-keyboard-response","153","89148","0.0-1.0-152.0","",""
"null","sound/msl/clock.wav","null","audio-keyboard-response","154","89698","0.0-1.0-153.0","",""
"null","sound/msl/slide_whistle.wav","null","audio-keyboard-response","155","90197","0.0-1.0-154.0","",""
"null","sound/msl/duck.wav","null","audio-keyboard-response","156","90708","0.0-1.0-155.0","",""
"null","sound/msl/cow.wav","null","audio-keyboard-response","157","91207","0.0-1.0-156.0","",""
"null","sound/msl/frog.wav","null","audio-keyboard-response","158","91718","0.0-1.0-157.0","",""
"null","sound/msl/goat.wav","null","audio-keyboard-response","159","92257","0.0-1.0-158.0","",""
"null","sound/msl/dog.wav","null","audio-keyboard-response","160","92757","0.0-1.0-159.0","",""
"null","sound/msl/organ.wav","null","audio-keyboard-response","161","93257","0.0-1.0-160.0","",""
"null","sound/msl/boing.wav","null","audio-keyboard-response","162","93757","0.0-1.0-161.0","",""
"null","sound/msl/clock.wav","null","audio-keyboard-response","163","94307","0.0-1.0-162.0","",""
"null","sound/msl/slide_whistle.wav","null","audio-keyboard-response","164","94806","0.0-1.0-163.0","",""
"null","sound/msl/duck.wav","null","audio-keyboard-response","165","95318","0.0-1.0-164.0","",""
"null","sound/msl/cow.wav","null","audio-keyboard-response","166","95827","0.0-1.0-165.0","",""
"null","sound/msl/frog.wav","null","audio-keyboard-response","167","96327","0.0-1.0-166.0","",""
"null","sound/msl/goat.wav","null","audio-keyboard-response","168","96867","0.0-1.0-167.0","",""
"null","sound/msl/Water.wav","null","audio-keyboard-response","169","97377","0.0-1.0-168.0","",""
"null","sound/msl/cat.wav","null","audio-keyboard-response","170","97877","0.0-1.0-169.0","",""
"null","sound/msl/door_bell.wav","null","audio-keyboard-response","171","98387","0.0-1.0-170.0","",""
"null","sound/msl/door.wav","null","audio-keyboard-response","172","98887","0.0-1.0-171.0","",""
"null","sound/msl/ding.wav","null","audio-keyboard-response","173","99398","0.0-1.0-172.0","",""
"null","sound/msl/bird.wav","null","audio-keyboard-response","174","99907","0.0-1.0-173.0","",""
"null","sound/msl/dog.wav","null","audio-keyboard-response","175","100407","0.0-1.0-174.0","",""
"null","sound/msl/organ.wav","null","audio-keyboard-response","176","100907","0.0-1.0-175.0","",""
"null","sound/msl/boing.wav","null","audio-keyboard-response","177","101407","0.0-1.0-176.0","",""
"null","sound/msl/clock.wav","null","audio-keyboard-response","178","101957","0.0-1.0-177.0","",""
"null","sound/msl/slide_whistle.wav","null","audio-keyboard-response","179","102457","0.0-1.0-178.0","",""
"null","sound/msl/duck.wav","null","audio-keyboard-response","180","102957","0.0-1.0-179.0","",""
"null","sound/msl/door.wav","null","audio-keyboard-response","181","103457","0.0-1.0-180.0","",""
"null","sound/msl/ding.wav","null","audio-keyboard-response","182","103958","0.0-1.0-181.0","",""
"null","sound/msl/bird.wav","null","audio-keyboard-response","183","104467","0.0-1.0-182.0","",""
"null","sound/msl/cow.wav","null","audio-keyboard-response","184","104968","0.0-1.0-183.0","",""
"null","sound/msl/frog.wav","null","audio-keyboard-response","185","105476","0.0-1.0-184.0","",""
"null","sound/msl/goat.wav","null","audio-keyboard-response","186","106017","0.0-1.0-185.0","",""
"null","sound/msl/Water.wav","null","audio-keyboard-response","187","106528","0.0-1.0-186.0","",""
"null","sound/msl/cat.wav","null","audio-keyboard-response","188","107026","0.0-1.0-187.0","",""
"null","sound/msl/door_bell.wav","null","audio-keyboard-response","189","107527","0.0-1.0-188.0","",""
"null","sound/msl/dog.wav","null","audio-keyboard-response","190","108037","0.0-1.0-189.0","",""
"null","sound/msl/organ.wav","null","audio-keyboard-response","191","108537","0.0-1.0-190.0","",""
"null","sound/msl/boing.wav","null","audio-keyboard-response","192","109037","0.0-1.0-191.0","",""
"null","sound/msl/clock.wav","null","audio-keyboard-response","193","109586","0.0-1.0-192.0","",""
"null","sound/msl/slide_whistle.wav","null","audio-keyboard-response","194","110087","0.0-1.0-193.0","",""
"null","sound/msl/duck.wav","null","audio-keyboard-response","195","110597","0.0-1.0-194.0","",""
"null","sound/msl/door.wav","null","audio-keyboard-response","196","111097","0.0-1.0-195.0","",""
"null","sound/msl/ding.wav","null","audio-keyboard-response","197","111597","0.0-1.0-196.0","",""
"null","sound/msl/bird.wav","null","audio-keyboard-response","198","112106","0.0-1.0-197.0","",""
"null","sound/msl/Water.wav","null","audio-keyboard-response","199","112616","0.0-1.0-198.0","",""
"null","sound/msl/cat.wav","null","audio-keyboard-response","200","113117","0.0-1.0-199.0","",""
"null","sound/msl/door_bell.wav","null","audio-keyboard-response","201","113627","0.0-1.0-200.0","",""
"null","sound/msl/cow.wav","null","audio-keyboard-response","202","114128","0.0-1.0-201.0","",""
"null","sound/msl/frog.wav","null","audio-keyboard-response","203","114637","0.0-1.0-202.0","",""
"null","sound/msl/goat.wav","null","audio-keyboard-response","204","115177","0.0-1.0-203.0","",""
"null","sound/msl/dog.wav","null","audio-keyboard-response","205","115677","0.0-1.0-204.0","",""
"null","sound/msl/organ.wav","null","audio-keyboard-response","206","116178","0.0-1.0-205.0","",""
"null","sound/msl/boing.wav","null","audio-keyboard-response","207","116677","0.0-1.0-206.0","",""
"null","sound/msl/clock.wav","null","audio-keyboard-response","208","117227","0.0-1.0-207.0","",""
"null","sound/msl/slide_whistle.wav","null","audio-keyboard-response","209","117728","0.0-1.0-208.0","",""
"null","sound/msl/duck.wav","null","audio-keyboard-response","210","118238","0.0-1.0-209.0","",""
"null","sound/msl/Water.wav","null","audio-keyboard-response","211","118746","0.0-1.0-210.0","",""
"null","sound/msl/cat.wav","null","audio-keyboard-response","212","119247","0.0-1.0-211.0","",""
"null","sound/msl/door_bell.wav","null","audio-keyboard-response","213","119757","0.0-1.0-212.0","",""
"null","sound/msl/dog.wav","null","audio-keyboard-response","214","120267","0.0-1.0-213.0","",""
"null","sound/msl/organ.wav","null","audio-keyboard-response","215","120766","0.0-1.0-214.0","",""
"null","sound/msl/boing.wav","null","audio-keyboard-response","216","121267","0.0-1.0-215.0","",""
"null","sound/msl/door.wav","null","audio-keyboard-response","217","121767","0.0-1.0-216.0","",""
"null","sound/msl/ding.wav","null","audio-keyboard-response","218","122277","0.0-1.0-217.0","",""
"null","sound/msl/bird.wav","null","audio-keyboard-response","219","122787","0.0-1.0-218.0","",""
"null","sound/msl/cow.wav","null","audio-keyboard-response","220","123288","0.0-1.0-219.0","",""
"null","sound/msl/frog.wav","null","audio-keyboard-response","221","123797","0.0-1.0-220.0","",""
"null","sound/msl/goat.wav","null","audio-keyboard-response","222","124337","0.0-1.0-221.0","",""
"null","sound/msl/clock.wav","null","audio-keyboard-response","223","124887","0.0-1.0-222.0","",""
"null","sound/msl/slide_whistle.wav","null","audio-keyboard-response","224","125387","0.0-1.0-223.0","",""
"null","sound/msl/duck.wav","null","audio-keyboard-response","225","125888","0.0-1.0-224.0","",""
"null","sound/msl/door.wav","null","audio-keyboard-response","226","126388","0.0-1.0-225.0","",""
"null","sound/msl/ding.wav","null","audio-keyboard-response","227","126887","0.0-1.0-226.0","",""
"null","sound/msl/bird.wav","null","audio-keyboard-response","228","127398","0.0-1.0-227.0","",""
"null","sound/msl/dog.wav","null","audio-keyboard-response","229","127907","0.0-1.0-228.0","",""
"null","sound/msl/organ.wav","null","audio-keyboard-response","230","128407","0.0-1.0-229.0","",""
"null","sound/msl/boing.wav","null","audio-keyboard-response","231","128908","0.0-1.0-230.0","",""
"null","sound/msl/door.wav","null","audio-keyboard-response","232","129407","0.0-1.0-231.0","",""
"null","sound/msl/ding.wav","null","audio-keyboard-response","233","129918","0.0-1.0-232.0","",""
"null","sound/msl/bird.wav","null","audio-keyboard-response","234","130427","0.0-1.0-233.0","",""
"null","sound/msl/clock.wav","null","audio-keyboard-response","235","130977","0.0-1.0-234.0","",""
"null","sound/msl/slide_whistle.wav","null","audio-keyboard-response","236","131477","0.0-1.0-235.0","",""
"null","sound/msl/duck.wav","null","audio-keyboard-response","237","131987","0.0-1.0-236.0","",""
"null","sound/msl/cow.wav","null","audio-keyboard-response","238","132487","0.0-1.0-237.0","",""
"null","sound/msl/frog.wav","null","audio-keyboard-response","239","132997","0.0-1.0-238.0","",""
"null","sound/msl/goat.wav","null","audio-keyboard-response","240","133538","0.0-1.0-239.0","",""
"null","sound/msl/Water.wav","null","audio-keyboard-response","241","134047","0.0-1.0-240.0","",""
"null","sound/msl/cat.wav","null","audio-keyboard-response","242","134547","0.0-1.0-241.0","",""
"null","sound/msl/door_bell.wav","null","audio-keyboard-response","243","135047","0.0-1.0-242.0","",""
"null","sound/msl/dog.wav","null","audio-keyboard-response","244","135556","0.0-1.0-243.0","",""
"null","sound/msl/organ.wav","null","audio-keyboard-response","245","136057","0.0-1.0-244.0","",""
"null","sound/msl/boing.wav","null","audio-keyboard-response","246","136558","0.0-1.0-245.0","",""
"null","sound/msl/clock.wav","null","audio-keyboard-response","247","137107","0.0-1.0-246.0","",""
"null","sound/msl/slide_whistle.wav","null","audio-keyboard-response","248","137607","0.0-1.0-247.0","",""
"null","sound/msl/duck.wav","null","audio-keyboard-response","249","138117","0.0-1.0-248.0","",""
"null","sound/msl/cow.wav","null","audio-keyboard-response","250","138628","0.0-1.0-249.0","",""
"null","sound/msl/frog.wav","null","audio-keyboard-response","251","139127","0.0-1.0-250.0","",""
"null","sound/msl/goat.wav","null","audio-keyboard-response","252","139668","0.0-1.0-251.0","",""
"null","sound/msl/Water.wav","null","audio-keyboard-response","253","140177","0.0-1.0-252.0","",""
"null","sound/msl/cat.wav","null","audio-keyboard-response","254","140678","0.0-1.0-253.0","",""
"null","sound/msl/door_bell.wav","null","audio-keyboard-response","255","141187","0.0-1.0-254.0","",""
"null","sound/msl/door.wav","null","audio-keyboard-response","256","141688","0.0-1.0-255.0","",""
"null","sound/msl/ding.wav","null","audio-keyboard-response","257","142198","0.0-1.0-256.0","",""
"null","sound/msl/bird.wav","null","audio-keyboard-response","258","142707","0.0-1.0-257.0","",""
"null","sound/msl/dog.wav","null","audio-keyboard-response","259","143207","0.0-1.0-258.0","",""
"null","sound/msl/organ.wav","null","audio-keyboard-response","260","143707","0.0-1.0-259.0","",""
"null","sound/msl/boing.wav","null","audio-keyboard-response","261","144208","0.0-1.0-260.0","",""
"null","sound/msl/Water.wav","null","audio-keyboard-response","262","144717","0.0-1.0-261.0","",""
"null","sound/msl/cat.wav","null","audio-keyboard-response","263","145217","0.0-1.0-262.0","",""
"null","sound/msl/door_bell.wav","null","audio-keyboard-response","264","145717","0.0-1.0-263.0","",""
"null","sound/msl/cow.wav","null","audio-keyboard-response","265","146228","0.0-1.0-264.0","",""
"null","sound/msl/frog.wav","null","audio-keyboard-response","266","146727","0.0-1.0-265.0","",""
"null","sound/msl/goat.wav","null","audio-keyboard-response","267","147268","0.0-1.0-266.0","",""
"null","sound/msl/door.wav","null","audio-keyboard-response","268","147767","0.0-1.0-267.0","",""
"null","sound/msl/ding.wav","null","audio-keyboard-response","269","148277","0.0-1.0-268.0","",""
"null","sound/msl/bird.wav","null","audio-keyboard-response","270","148787","0.0-1.0-269.0","",""
"null","sound/msl/clock.wav","null","audio-keyboard-response","271","149337","0.0-1.0-270.0","",""
"null","sound/msl/slide_whistle.wav","null","audio-keyboard-response","272","149837","0.0-1.0-271.0","",""
"null","sound/msl/duck.wav","null","audio-keyboard-response","273","150347","0.0-1.0-272.0","",""
"null","sound/msl/dog.wav","null","audio-keyboard-response","274","150848","0.0-1.0-273.0","",""
"null","sound/msl/organ.wav","null","audio-keyboard-response","275","151348","0.0-1.0-274.0","",""
"null","sound/msl/boing.wav","null","audio-keyboard-response","276","151847","0.0-1.0-275.0","",""
"null","sound/msl/Water.wav","null","audio-keyboard-response","277","152358","0.0-1.0-276.0","",""
"null","sound/msl/cat.wav","null","audio-keyboard-response","278","152857","0.0-1.0-277.0","",""
"null","sound/msl/door_bell.wav","null","audio-keyboard-response","279","153357","0.0-1.0-278.0","",""
"null","sound/msl/cow.wav","null","audio-keyboard-response","280","153868","0.0-1.0-279.0","",""
"null","sound/msl/frog.wav","null","audio-keyboard-response","281","154368","0.0-1.0-280.0","",""
"null","sound/msl/goat.wav","null","audio-keyboard-response","282","154907","0.0-1.0-281.0","",""
"null","sound/msl/clock.wav","null","audio-keyboard-response","283","155458","0.0-1.0-282.0","",""
"null","sound/msl/slide_whistle.wav","null","audio-keyboard-response","284","155958","0.0-1.0-283.0","",""
"null","sound/msl/duck.wav","null","audio-keyboard-response","285","156467","0.0-1.0-284.0","",""
"null","sound/msl/door.wav","null","audio-keyboard-response","286","156968","0.0-1.0-285.0","",""
"null","sound/msl/ding.wav","null","audio-keyboard-response","287","157477","0.0-1.0-286.0","",""
"null","sound/msl/bird.wav","null","audio-keyboard-response","288","157987","0.0-1.0-287.0","",""
"null","sound/msl/dog.wav","null","audio-keyboard-response","289","158487","0.0-1.0-288.0","",""
"null","sound/msl/organ.wav","null","audio-keyboard-response","290","158988","0.0-1.0-289.0","",""
"null","sound/msl/boing.wav","null","audio-keyboard-response","291","159488","0.0-1.0-290.0","",""
"null","sound/msl/cow.wav","null","audio-keyboard-response","292","159998","0.0-1.0-291.0","",""
"null","sound/msl/frog.wav","null","audio-keyboard-response","293","160507","0.0-1.0-292.0","",""
"null","sound/msl/goat.wav","null","audio-keyboard-response","294","161048","0.0-1.0-293.0","",""
"null","sound/msl/Water.wav","null","audio-keyboard-response","295","161557","0.0-1.0-294.0","",""
"null","sound/msl/cat.wav","null","audio-keyboard-response","296","162057","0.0-1.0-295.0","",""
"null","sound/msl/door_bell.wav","null","audio-keyboard-response","297","162557","0.0-1.0-296.0","",""
"null","sound/msl/dog.wav","null","audio-keyboard-response","298","163067","0.0-1.0-297.0","",""
"null","sound/msl/organ.wav","null","audio-keyboard-response","299","163568","0.0-1.0-298.0","",""
"null","sound/msl/boing.wav","null","audio-keyboard-response","300","164067","0.0-1.0-299.0","",""
"null","sound/msl/clock.wav","null","audio-keyboard-response","301","164617","0.0-1.0-300.0","",""
"null","sound/msl/slide_whistle.wav","null","audio-keyboard-response","302","165117","0.0-1.0-301.0","",""
"null","sound/msl/duck.wav","null","audio-keyboard-response","303","165627","0.0-1.0-302.0","",""
"null","sound/msl/cow.wav","null","audio-keyboard-response","304","166128","0.0-1.0-303.0","",""
"null","sound/msl/frog.wav","null","audio-keyboard-response","305","166637","0.0-1.0-304.0","",""
"null","sound/msl/goat.wav","null","audio-keyboard-response","306","167177","0.0-1.0-305.0","",""
"null","sound/msl/door.wav","null","audio-keyboard-response","307","167678","0.0-1.0-306.0","",""
"null","sound/msl/ding.wav","null","audio-keyboard-response","308","168187","0.0-1.0-307.0","",""
"null","sound/msl/bird.wav","null","audio-keyboard-response","309","168687","0.0-1.0-308.0","",""
"null","sound/msl/Water.wav","null","audio-keyboard-response","310","169197","0.0-1.0-309.0","",""
"null","sound/msl/cat.wav","null","audio-keyboard-response","311","169697","0.0-1.0-310.0","",""
"null","sound/msl/door_bell.wav","null","audio-keyboard-response","312","170198","0.0-1.0-311.0","",""
"null","sound/msl/dog.wav","null","audio-keyboard-response","313","170707","0.0-1.0-312.0","",""
"null","sound/msl/organ.wav","null","audio-keyboard-response","314","171208","0.0-1.0-313.0","",""
"null","sound/msl/boing.wav","null","audio-keyboard-response","315","171707","0.0-1.0-314.0","",""
"null","sound/msl/clock.wav","null","audio-keyboard-response","316","172257","0.0-1.0-315.0","",""
"null","sound/msl/slide_whistle.wav","null","audio-keyboard-response","317","172758","0.0-1.0-316.0","",""
"null","sound/msl/duck.wav","null","audio-keyboard-response","318","173267","0.0-1.0-317.0","",""
"null","sound/msl/cow.wav","null","audio-keyboard-response","319","173768","0.0-1.0-318.0","",""
"null","sound/msl/frog.wav","null","audio-keyboard-response","320","174278","0.0-1.0-319.0","",""
"null","sound/msl/goat.wav","null","audio-keyboard-response","321","174818","0.0-1.0-320.0","",""
"null","sound/msl/Water.wav","null","audio-keyboard-response","322","175327","0.0-1.0-321.0","",""
"null","sound/msl/cat.wav","null","audio-keyboard-response","323","175827","0.0-1.0-322.0","",""
"null","sound/msl/door_bell.wav","null","audio-keyboard-response","324","176327","0.0-1.0-323.0","",""
"null","sound/msl/clock.wav","null","audio-keyboard-response","325","176877","0.0-1.0-324.0","",""
"null","sound/msl/slide_whistle.wav","null","audio-keyboard-response","326","177377","0.0-1.0-325.0","",""
"null","sound/msl/duck.wav","null","audio-keyboard-response","327","177877","0.0-1.0-326.0","",""
"null","sound/msl/door.wav","null","audio-keyboard-response","328","178378","0.0-1.0-327.0","",""
"null","sound/msl/ding.wav","null","audio-keyboard-response","329","178877","0.0-1.0-328.0","",""
"null","sound/msl/bird.wav","null","audio-keyboard-response","330","179387","0.0-1.0-329.0","",""
"null","sound/msl/dog.wav","null","audio-keyboard-response","331","179887","0.0-1.0-330.0","",""
"null","sound/msl/organ.wav","null","audio-keyboard-response","332","180388","0.0-1.0-331.0","",""
"null","sound/msl/boing.wav","null","audio-keyboard-response","333","180887","0.0-1.0-332.0","",""
"null","sound/msl/cow.wav","null","audio-keyboard-response","334","181397","0.0-1.0-333.0","",""
"null","sound/msl/frog.wav","null","audio-keyboard-response","335","181908","0.0-1.0-334.0","",""
"null","sound/msl/goat.wav","null","audio-keyboard-response","336","182447","0.0-1.0-335.0","",""
"null","sound/msl/door.wav","null","audio-keyboard-response","337","182948","0.0-1.0-336.0","",""
"null","sound/msl/ding.wav","null","audio-keyboard-response","338","183447","0.0-1.0-337.0","",""
"null","sound/msl/bird.wav","null","audio-keyboard-response","339","183958","0.0-1.0-338.0","",""
"null","sound/msl/Water.wav","null","audio-keyboard-response","340","184467","0.0-1.0-339.0","",""
"null","sound/msl/cat.wav","null","audio-keyboard-response","341","184967","0.0-1.0-340.0","",""
"null","sound/msl/door_bell.wav","null","audio-keyboard-response","342","185477","0.0-1.0-341.0","",""
"null","sound/msl/cow.wav","null","audio-keyboard-response","343","185987","0.0-1.0-342.0","",""
"null","sound/msl/frog.wav","null","audio-keyboard-response","344","186487","0.0-1.0-343.0","",""
"null","sound/msl/goat.wav","null","audio-keyboard-response","345","187028","0.0-1.0-344.0","",""
"null","sound/msl/Water.wav","null","audio-keyboard-response","346","187537","0.0-1.0-345.0","",""
"null","sound/msl/cat.wav","null","audio-keyboard-response","347","188037","0.0-1.0-346.0","",""
"null","sound/msl/door_bell.wav","null","audio-keyboard-response","348","188547","0.0-1.0-347.0","",""
"null","sound/msl/door.wav","null","audio-keyboard-response","349","189048","0.0-1.0-348.0","",""
"null","sound/msl/ding.wav","null","audio-keyboard-response","350","189558","0.0-1.0-349.0","",""
"null","sound/msl/bird.wav","null","audio-keyboard-response","351","190067","0.0-1.0-350.0","",""
"null","sound/msl/dog.wav","null","audio-keyboard-response","352","190568","0.0-1.0-351.0","",""
"null","sound/msl/organ.wav","null","audio-keyboard-response","353","191068","0.0-1.0-352.0","",""
"null","sound/msl/boing.wav","null","audio-keyboard-response","354","191567","0.0-1.0-353.0","",""
"null","sound/msl/cow.wav","null","audio-keyboard-response","355","192078","0.0-1.0-354.0","",""
"null","sound/msl/frog.wav","null","audio-keyboard-response","356","192586","0.0-1.0-355.0","",""
"null","sound/msl/goat.wav","null","audio-keyboard-response","357","193128","0.0-1.0-356.0","",""
"null","sound/msl/Water.wav","null","audio-keyboard-response","358","193637","0.0-1.0-357.0","",""
"null","sound/msl/cat.wav","null","audio-keyboard-response","359","194138","0.0-1.0-358.0","",""
"null","sound/msl/door_bell.wav","null","audio-keyboard-response","360","194637","0.0-1.0-359.0","",""
"11402","Instructions2-eng.png","49","image-keyboard-response","361","206040","0.0-2.0","",""
"null","sound/msl/door.wav","null","audio-keyboard-response","362","206533","0.0-3.0-0.0","",""
"null","sound/msl/ding.wav","null","audio-keyboard-response","363","207033","0.0-3.0-1.0","",""
"null","sound/msl/bird.wav","null","audio-keyboard-response","364","207543","0.0-3.0-2.0","",""
"null","sound/asl/silence.wav","null","audio-keyboard-response","365","208061","0.0-3.0-3.0","",""
"null","sound/msl/dog.wav","null","audio-keyboard-response","366","208553","0.0-3.0-4.0","",""
"null","sound/msl/cat.wav","null","audio-keyboard-response","367","209053","0.0-3.0-5.0","",""
"null","sound/msl/duck.wav","null","audio-keyboard-response","368","209554","0.0-3.0-6.0","",""
"531","sound/asl/silence.wav","49","audio-keyboard-response","369","210090","0.0-3.0-7.0","true",""
"null","sound/msl/door.wav","null","audio-keyboard-response","370","210583","0.0-4.0-0.0","",""
"null","sound/msl/frog.wav","null","audio-keyboard-response","371","211083","0.0-4.0-1.0","",""
"null","sound/msl/boing.wav","null","audio-keyboard-response","372","211583","0.0-4.0-2.0","",""
"null","sound/asl/silence.wav","null","audio-keyboard-response","373","212092","0.0-4.0-3.0","",""
"null","sound/msl/door.wav","null","audio-keyboard-response","374","212593","0.0-4.0-4.0","",""
"null","sound/msl/ding.wav","null","audio-keyboard-response","375","213103","0.0-4.0-5.0","",""
"null","sound/msl/bird.wav","null","audio-keyboard-response","376","213603","0.0-4.0-6.0","",""
"480","sound/asl/silence.wav","50","audio-keyboard-response","377","214090","0.0-4.0-7.0","true",""
"null","sound/msl/cow.wav","null","audio-keyboard-response","378","214594","0.0-5.0-0.0","",""
"null","sound/msl/frog.wav","null","audio-keyboard-response","379","215103","0.0-5.0-1.0","",""
"null","sound/msl/goat.wav","null","audio-keyboard-response","380","215643","0.0-5.0-2.0","",""
"null","sound/asl/silence.wav","null","audio-keyboard-response","381","216145","0.0-5.0-3.0","",""
"null","sound/msl/cow.wav","null","audio-keyboard-response","382","216644","0.0-5.0-4.0","",""
"null","sound/msl/organ.wav","null","audio-keyboard-response","383","217144","0.0-5.0-5.0","",""
"null","sound/msl/door_bell.wav","null","audio-keyboard-response","384","217643","0.0-5.0-6.0","",""
"189","sound/asl/silence.wav","49","audio-keyboard-response","385","217841","0.0-5.0-7.0","true",""
"null","sound/msl/door.wav","null","audio-keyboard-response","386","218334","0.0-6.0-0.0","",""
"null","sound/msl/frog.wav","null","audio-keyboard-response","387","218834","0.0-6.0-1.0","",""
"null","sound/msl/boing.wav","null","audio-keyboard-response","388","219333","0.0-6.0-2.0","",""
"null","sound/asl/silence.wav","null","audio-keyboard-response","389","219850","0.0-6.0-3.0","",""
"null","sound/msl/Water.wav","null","audio-keyboard-response","390","220353","0.0-6.0-4.0","",""
"null","sound/msl/cat.wav","null","audio-keyboard-response","391","220854","0.0-6.0-5.0","",""
"null","sound/msl/door_bell.wav","null","audio-keyboard-response","392","221354","0.0-6.0-6.0","",""
"189","sound/asl/silence.wav","50","audio-keyboard-response","393","221547","0.0-6.0-7.0","true",""
"null","sound/msl/door.wav","null","audio-keyboard-response","394","222043","0.0-7.0-0.0","",""
"null","sound/msl/frog.wav","null","audio-keyboard-response","395","222553","0.0-7.0-1.0","",""
"null","sound/msl/boing.wav","null","audio-keyboard-response","396","223053","0.0-7.0-2.0","",""
"null","sound/asl/silence.wav","null","audio-keyboard-response","397","223562","0.0-7.0-3.0","",""
"null","sound/msl/dog.wav","null","audio-keyboard-response","398","224074","0.0-7.0-4.0","",""
"null","sound/msl/organ.wav","null","audio-keyboard-response","399","224574","0.0-7.0-5.0","",""
"null","sound/msl/boing.wav","null","audio-keyboard-response","400","225074","0.0-7.0-6.0","",""
"171","sound/asl/silence.wav","50","audio-keyboard-response","401","225248","0.0-7.0-7.0","true",""
"null","sound/msl/cow.wav","null","audio-keyboard-response","402","225753","0.0-8.0-0.0","",""
"null","sound/msl/organ.wav","null","audio-keyboard-response","403","226253","0.0-8.0-1.0","",""
"null","sound/msl/door_bell.wav","null","audio-keyboard-response","404","226753","0.0-8.0-2.0","",""
"null","sound/asl/silence.wav","null","audio-keyboard-response","405","227254","0.0-8.0-3.0","",""
"null","sound/msl/clock.wav","null","audio-keyboard-response","406","227803","0.0-8.0-4.0","",""
"null","sound/msl/slide_whistle.wav","null","audio-keyboard-response","407","228303","0.0-8.0-5.0","",""
"null","sound/msl/duck.wav","null","audio-keyboard-response","408","228804","0.0-8.0-6.0","",""
"120","sound/asl/silence.wav","50","audio-keyboard-response","409","228930","0.0-8.0-7.0","true",""
"null","sound/msl/dog.wav","null","audio-keyboard-response","410","229433","0.0-9.0-0.0","",""
"null","sound/msl/cat.wav","null","audio-keyboard-response","411","229934","0.0-9.0-1.0","",""
"null","sound/msl/duck.wav","null","audio-keyboard-response","412","230434","0.0-9.0-2.0","",""
"null","sound/asl/silence.wav","null","audio-keyboard-response","413","230942","0.0-9.0-3.0","",""
"null","sound/msl/clock.wav","null","audio-keyboard-response","414","231484","0.0-9.0-4.0","",""
"null","sound/msl/slide_whistle.wav","null","audio-keyboard-response","415","231983","0.0-9.0-5.0","",""
"null","sound/msl/duck.wav","null","audio-keyboard-response","416","232483","0.0-9.0-6.0","",""
"720","sound/asl/silence.wav","50","audio-keyboard-response","417","233208","0.0-9.0-7.0","true",""
"null","sound/msl/dog.wav","null","audio-keyboard-response","418","233713","0.0-10.0-0.0","",""
"null","sound/msl/organ.wav","null","audio-keyboard-response","419","234213","0.0-10.0-1.0","",""
"null","sound/msl/boing.wav","null","audio-keyboard-response","420","234714","0.0-10.0-2.0","",""
"null","sound/asl/silence.wav","null","audio-keyboard-response","421","235232","0.0-10.0-3.0","",""
"null","sound/msl/cow.wav","null","audio-keyboard-response","422","235724","0.0-10.0-4.0","",""
"null","sound/msl/organ.wav","null","audio-keyboard-response","423","236223","0.0-10.0-5.0","",""
"null","sound/msl/door_bell.wav","null","audio-keyboard-response","424","236723","0.0-10.0-6.0","",""
"488","sound/asl/silence.wav","50","audio-keyboard-response","425","237216","0.0-10.0-7.0","false",""
"null","sound/msl/Water.wav","null","audio-keyboard-response","426","237723","0.0-11.0-0.0","",""
"null","sound/msl/slide_whistle.wav","null","audio-keyboard-response","427","238223","0.0-11.0-1.0","",""
"null","sound/msl/bird.wav","null","audio-keyboard-response","428","238723","0.0-11.0-2.0","",""
"null","sound/asl/silence.wav","null","audio-keyboard-response","429","239242","0.0-11.0-3.0","",""
"null","sound/msl/Water.wav","null","audio-keyboard-response","430","239744","0.0-11.0-4.0","",""
"null","sound/msl/cat.wav","null","audio-keyboard-response","431","240244","0.0-11.0-5.0","",""
"null","sound/msl/door_bell.wav","null","audio-keyboard-response","432","240753","0.0-11.0-6.0","",""
"69","sound/asl/silence.wav","49","audio-keyboard-response","433","240829","0.0-11.0-7.0","false",""
"null","sound/msl/Water.wav","null","audio-keyboard-response","434","241334","0.0-12.0-0.0","",""
"null","sound/msl/cat.wav","null","audio-keyboard-response","435","241834","0.0-12.0-1.0","",""
"null","sound/msl/door_bell.wav","null","audio-keyboard-response","436","242344","0.0-12.0-2.0","",""
"null","sound/asl/silence.wav","null","audio-keyboard-response","437","242862","0.0-12.0-3.0","",""
"null","sound/msl/dog.wav","null","audio-keyboard-response","438","243354","0.0-12.0-4.0","",""
"null","sound/msl/cat.wav","null","audio-keyboard-response","439","243853","0.0-12.0-5.0","",""
"null","sound/msl/duck.wav","null","audio-keyboard-response","440","244353","0.0-12.0-6.0","",""
"539","sound/asl/silence.wav","50","audio-keyboard-response","441","244896","0.0-12.0-7.0","false",""
"null","sound/msl/clock.wav","null","audio-keyboard-response","442","245443","0.0-13.0-0.0","",""
"null","sound/msl/ding.wav","null","audio-keyboard-response","443","245953","0.0-13.0-1.0","",""
"null","sound/msl/goat.wav","null","audio-keyboard-response","444","246493","0.0-13.0-2.0","",""
"null","sound/asl/silence.wav","null","audio-keyboard-response","445","247002","0.0-13.0-3.0","",""
"null","sound/msl/Water.wav","null","audio-keyboard-response","446","247503","0.0-13.0-4.0","",""
"null","sound/msl/cat.wav","null","audio-keyboard-response","447","248003","0.0-13.0-5.0","",""
"null","sound/msl/door_bell.wav","null","audio-keyboard-response","448","248513","0.0-13.0-6.0","",""
"669","sound/asl/silence.wav","49","audio-keyboard-response","449","249185","0.0-13.0-7.0","false",""
"null","sound/msl/cow.wav","null","audio-keyboard-response","450","249684","0.0-14.0-0.0","",""
"null","sound/msl/organ.wav","null","audio-keyboard-response","451","250183","0.0-14.0-1.0","",""
"null","sound/msl/door_bell.wav","null","audio-keyboard-response","452","250683","0.0-14.0-2.0","",""
"null","sound/asl/silence.wav","null","audio-keyboard-response","453","251192","0.0-14.0-3.0","",""
"null","sound/msl/door.wav","null","audio-keyboard-response","454","251693","0.0-14.0-4.0","",""
"null","sound/msl/ding.wav","null","audio-keyboard-response","455","252193","0.0-14.0-5.0","",""
"null","sound/msl/bird.wav","null","audio-keyboard-response","456","252704","0.0-14.0-6.0","",""
"1571","sound/asl/silence.wav","49","audio-keyboard-response","457","254281","0.0-14.0-7.0","false",""
"null","sound/msl/cow.wav","null","audio-keyboard-response","458","254784","0.0-15.0-0.0","",""
"null","sound/msl/frog.wav","null","audio-keyboard-response","459","255283","0.0-15.0-1.0","",""
"null","sound/msl/goat.wav","null","audio-keyboard-response","460","255823","0.0-15.0-2.0","",""
"null","sound/asl/silence.wav","null","audio-keyboard-response","461","256332","0.0-15.0-3.0","",""
"null","sound/msl/dog.wav","null","audio-keyboard-response","462","256833","0.0-15.0-4.0","",""
"null","sound/msl/cat.wav","null","audio-keyboard-response","463","257334","0.0-15.0-5.0","",""
"null","sound/msl/duck.wav","null","audio-keyboard-response","464","257833","0.0-15.0-6.0","",""
"291","sound/asl/silence.wav","50","audio-keyboard-response","465","258124","0.0-15.0-7.0","false",""
"null","sound/msl/clock.wav","null","audio-keyboard-response","466","258674","0.0-16.0-0.0","",""
"null","sound/msl/ding.wav","null","audio-keyboard-response","467","259183","0.0-16.0-1.0","",""
"null","sound/msl/goat.wav","null","audio-keyboard-response","468","259724","0.0-16.0-2.0","",""
"null","sound/asl/silence.wav","null","audio-keyboard-response","469","260243","0.0-16.0-3.0","",""
"null","sound/msl/door.wav","null","audio-keyboard-response","470","260733","0.0-16.0-4.0","",""
"null","sound/msl/ding.wav","null","audio-keyboard-response","471","261232","0.0-16.0-5.0","",""
"null","sound/msl/bird.wav","null","audio-keyboard-response","472","261743","0.0-16.0-6.0","",""
"3531","sound/asl/silence.wav","50","audio-keyboard-response","473","265277","0.0-16.0-7.0","true",""
"null","sound/msl/clock.wav","null","audio-keyboard-response","474","265824","0.0-17.0-0.0","",""
"null","sound/msl/slide_whistle.wav","null","audio-keyboard-response","475","266328","0.0-17.0-1.0","",""
"null","sound/msl/duck.wav","null","audio-keyboard-response","476","266837","0.0-17.0-2.0","",""
"null","sound/asl/silence.wav","null","audio-keyboard-response","477","267346","0.0-17.0-3.0","",""
"null","sound/msl/Water.wav","null","audio-keyboard-response","478","267847","0.0-17.0-4.0","",""
"null","sound/msl/slide_whistle.wav","null","audio-keyboard-response","479","268347","0.0-17.0-5.0","",""
"null","sound/msl/bird.wav","null","audio-keyboard-response","480","268848","0.0-17.0-6.0","",""
"360","sound/asl/silence.wav","49","audio-keyboard-response","481","269212","0.0-17.0-7.0","true",""
"null","sound/msl/clock.wav","null","audio-keyboard-response","482","269758","0.0-18.0-0.0","",""
"null","sound/msl/slide_whistle.wav","null","audio-keyboard-response","483","270258","0.0-18.0-1.0","",""
"null","sound/msl/duck.wav","null","audio-keyboard-response","484","270757","0.0-18.0-2.0","",""
"null","sound/asl/silence.wav","null","audio-keyboard-response","485","271276","0.0-18.0-3.0","",""
"null","sound/msl/clock.wav","null","audio-keyboard-response","486","271817","0.0-18.0-4.0","",""
"null","sound/msl/ding.wav","null","audio-keyboard-response","487","272318","0.0-18.0-5.0","",""
"null","sound/msl/goat.wav","null","audio-keyboard-response","488","272858","0.0-18.0-6.0","",""
"840","sound/asl/silence.wav","49","audio-keyboard-response","489","273708","0.0-18.0-7.0","true",""
"null","sound/msl/dog.wav","null","audio-keyboard-response","490","274207","0.0-19.0-0.0","",""
"null","sound/msl/organ.wav","null","audio-keyboard-response","491","274708","0.0-19.0-1.0","",""
"null","sound/msl/boing.wav","null","audio-keyboard-response","492","275208","0.0-19.0-2.0","",""
"null","sound/asl/silence.wav","null","audio-keyboard-response","493","275727","0.0-19.0-3.0","",""
"null","sound/msl/clock.wav","null","audio-keyboard-response","494","276267","0.0-19.0-4.0","",""
"null","sound/msl/ding.wav","null","audio-keyboard-response","495","276768","0.0-19.0-5.0","",""
"null","sound/msl/goat.wav","null","audio-keyboard-response","496","277307","0.0-19.0-6.0","",""
"1621","sound/asl/silence.wav","49","audio-keyboard-response","497","278931","0.0-19.0-7.0","true",""
"null","sound/msl/dog.wav","null","audio-keyboard-response","498","279437","0.0-20.0-0.0","",""
"null","sound/msl/organ.wav","null","audio-keyboard-response","499","279938","0.0-20.0-1.0","",""
"null","sound/msl/boing.wav","null","audio-keyboard-response","500","280438","0.0-20.0-2.0","",""
"null","sound/asl/silence.wav","null","audio-keyboard-response","501","280957","0.0-20.0-3.0","",""
"null","sound/msl/dog.wav","null","audio-keyboard-response","502","281448","0.0-20.0-4.0","",""
"null","sound/msl/cat.wav","null","audio-keyboard-response","503","281948","0.0-20.0-5.0","",""
"null","sound/msl/duck.wav","null","audio-keyboard-response","504","282448","0.0-20.0-6.0","",""
"9768","sound/asl/silence.wav","50","audio-keyboard-response","505","292224","0.0-20.0-7.0","false",""
"null","sound/msl/clock.wav","null","audio-keyboard-response","506","292767","0.0-21.0-0.0","",""
"null","sound/msl/ding.wav","null","audio-keyboard-response","507","293278","0.0-21.0-1.0","",""
"null","sound/msl/goat.wav","null","audio-keyboard-response","508","293818","0.0-21.0-2.0","",""
"null","sound/asl/silence.wav","null","audio-keyboard-response","509","294326","0.0-21.0-3.0","",""
"null","sound/msl/cow.wav","null","audio-keyboard-response","510","294828","0.0-21.0-4.0","",""
"null","sound/msl/frog.wav","null","audio-keyboard-response","511","295328","0.0-21.0-5.0","",""
"null","sound/msl/goat.wav","null","audio-keyboard-response","512","295868","0.0-21.0-6.0","",""
"349","sound/asl/silence.wav","50","audio-keyboard-response","513","296223","0.0-21.0-7.0","true",""
"null","sound/msl/door.wav","null","audio-keyboard-response","514","296718","0.0-22.0-0.0","",""
"null","sound/msl/ding.wav","null","audio-keyboard-response","515","297228","0.0-22.0-1.0","",""
"null","sound/msl/bird.wav","null","audio-keyboard-response","516","297727","0.0-22.0-2.0","",""
"null","sound/asl/silence.wav","null","audio-keyboard-response","517","298247","0.0-22.0-3.0","",""
"null","sound/msl/Water.wav","null","audio-keyboard-response","518","298758","0.0-22.0-4.0","",""
"null","sound/msl/slide_whistle.wav","null","audio-keyboard-response","519","299257","0.0-22.0-5.0","",""
"null","sound/msl/bird.wav","null","audio-keyboard-response","520","299757","0.0-22.0-6.0","",""
"299","sound/asl/silence.wav","49","audio-keyboard-response","521","300059","0.0-22.0-7.0","true",""
"null","sound/msl/Water.wav","null","audio-keyboard-response","522","300568","0.0-23.0-0.0","",""
"null","sound/msl/cat.wav","null","audio-keyboard-response","523","301067","0.0-23.0-1.0","",""
"null","sound/msl/door_bell.wav","null","audio-keyboard-response","524","301568","0.0-23.0-2.0","",""
"null","sound/asl/silence.wav","null","audio-keyboard-response","525","302076","0.0-23.0-3.0","",""
"null","sound/msl/cow.wav","null","audio-keyboard-response","526","302587","0.0-23.0-4.0","",""
"null","sound/msl/organ.wav","null","audio-keyboard-response","527","303088","0.0-23.0-5.0","",""
"null","sound/msl/door_bell.wav","null","audio-keyboard-response","528","303597","0.0-23.0-6.0","",""
"600","sound/asl/silence.wav","50","audio-keyboard-response","529","304202","0.0-23.0-7.0","false",""
"null","sound/msl/door.wav","null","audio-keyboard-response","530","304697","0.0-24.0-0.0","",""
"null","sound/msl/frog.wav","null","audio-keyboard-response","531","305197","0.0-24.0-1.0","",""
"null","sound/msl/boing.wav","null","audio-keyboard-response","532","305698","0.0-24.0-2.0","",""
"null","sound/asl/silence.wav","null","audio-keyboard-response","533","306206","0.0-24.0-3.0","",""
"null","sound/msl/cow.wav","null","audio-keyboard-response","534","306707","0.0-24.0-4.0","",""
"null","sound/msl/frog.wav","null","audio-keyboard-response","535","307208","0.0-24.0-5.0","",""
"null","sound/msl/goat.wav","null","audio-keyboard-response","536","307748","0.0-24.0-6.0","",""
"760","sound/asl/silence.wav","49","audio-keyboard-response","537","308510","0.0-24.0-7.0","false",""
"null","sound/msl/Water.wav","null","audio-keyboard-response","538","309018","0.0-25.0-0.0","",""
"null","sound/msl/slide_whistle.wav","null","audio-keyboard-response","539","309517","0.0-25.0-1.0","",""
"null","sound/msl/bird.wav","null","audio-keyboard-response","540","310027","0.0-25.0-2.0","",""
"null","sound/asl/silence.wav","null","audio-keyboard-response","541","310528","0.0-25.0-3.0","",""
"null","sound/msl/dog.wav","null","audio-keyboard-response","542","311038","0.0-25.0-4.0","",""
"null","sound/msl/organ.wav","null","audio-keyboard-response","543","311538","0.0-25.0-5.0","",""
"null","sound/msl/boing.wav","null","audio-keyboard-response","544","312037","0.0-25.0-6.0","",""
"320","sound/asl/silence.wav","49","audio-keyboard-response","545","312359","0.0-25.0-7.0","false",""
"null","sound/msl/Water.wav","null","audio-keyboard-response","546","312868","0.0-26.0-0.0","",""
"null","sound/msl/slide_whistle.wav","null","audio-keyboard-response","547","313367","0.0-26.0-1.0","",""
"null","sound/msl/bird.wav","null","audio-keyboard-response","548","313877","0.0-26.0-2.0","",""
"null","sound/asl/silence.wav","null","audio-keyboard-response","549","314387","0.0-26.0-3.0","",""
"null","sound/msl/cow.wav","null","audio-keyboard-response","550","314878","0.0-26.0-4.0","",""
"null","sound/msl/frog.wav","null","audio-keyboard-response","551","315388","0.0-26.0-5.0","",""
"null","sound/msl/goat.wav","null","audio-keyboard-response","552","315928","0.0-26.0-6.0","",""
"1880","sound/asl/silence.wav","49","audio-keyboard-response","553","317808","0.0-26.0-7.0","false",""
"null","sound/msl/clock.wav","null","audio-keyboard-response","554","318358","0.0-27.0-0.0","",""
"null","sound/msl/slide_whistle.wav","null","audio-keyboard-response","555","318858","0.0-27.0-1.0","",""
"null","sound/msl/duck.wav","null","audio-keyboard-response","556","319357","0.0-27.0-2.0","",""
"null","sound/asl/silence.wav","null","audio-keyboard-response","557","319858","0.0-27.0-3.0","",""
"null","sound/msl/door.wav","null","audio-keyboard-response","558","320357","0.0-27.0-4.0","",""
"null","sound/msl/frog.wav","null","audio-keyboard-response","559","320867","0.0-27.0-5.0","",""
"null","sound/msl/boing.wav","null","audio-keyboard-response","560","321368","0.0-27.0-6.0","",""
"509","sound/asl/silence.wav","50","audio-keyboard-response","561","321886","0.0-27.0-7.0","false",""
"12816","","","instructions","562","334702","0.0-28.0","","[{""page_index"":0,""viewing_time"":12816}]"
