word,location,image,repetition,trialnum,condition,letter6,letter5,letter4,letter3,letter2,letter1,corrAns,l_block_trial_loop.thisRepN,l_block_trial_loop.thisTrialN,l_block_trial_loop.thisN,l_block_trial_loop.thisIndex,v_block_trials.thisRepN,v_block_trials.thisTrialN,v_block_trials.thisN,v_block_trials.thisIndex,blank_block_trial_loop.thisRepN,blank_block_trial_loop.thisTrialN,blank_block_trial_loop.thisN,blank_block_trial_loop.thisIndex,forced_test_trials.thisRepN,forced_test_trials.thisTrialN,forced_test_trials.thisN,forced_test_trials.thisIndex,l_block_trial_key_resp.keys,l_block_trial_key_resp.rt,v_block_trial_key_resp.keys,v_block_trial_key_resp.rt,blank_block_trial_key_resp.keys,question_key_resp.keys,question_key_resp.corr,question_key_resp.rt,Run,vtarget,PartID,ltarget,frameRate,expName,date,
1,1,M.png,33,379,S,,,,,,,,0,0,0,0,,,,,,,,,,,,,None,,,,,,,,3,12,008,G,119.865086478,visual,2017_Nov_01_1228,
1,2,K.png,33,380,S,,,,,,,,0,1,1,1,,,,,,,,,,,,,None,,,,,,,,3,12,008,G,119.865086478,visual,2017_Nov_01_1228,
1,3,B.png,33,381,S,,,,,,,,0,2,2,2,,,,,,,,,,,,,None,,,,,,,,3,12,008,G,119.865086478,visual,2017_Nov_01_1228,
1,1,M.png,34,385,S,,,,,,,,0,3,3,3,,,,,,,,,,,,,None,,,,,,,,3,12,008,G,119.865086478,visual,2017_Nov_01_1228,
1,2,K.png,34,386,S,,,,,,,,0,4,4,4,,,,,,,,,,,,,None,,,,,,,,3,12,008,G,119.865086478,visual,2017_Nov_01_1228,
1,3,B.png,34,387,S,,,,,,,,0,5,5,5,,,,,,,,,,,,,None,,,,,,,,3,12,008,G,119.865086478,visual,2017_Nov_01_1228,
4,1,E.png,33,391,S,,,,,,,,0,6,6,6,,,,,,,,,,,,,None,,,,,,,,3,12,008,G,119.865086478,visual,2017_Nov_01_1228,
4,2,L.png,33,392,S,,,,,,,,0,7,7,7,,,,,,,,,,,,,None,,,,,,,,3,12,008,G,119.865086478,visual,2017_Nov_01_1228,
4,3,H.png,33,393,S,,,,,,,,0,8,8,8,,,,,,,,,,,,,None,,,,,,,,3,12,008,G,119.865086478,visual,2017_Nov_01_1228,
3,1,D.png,33,394,S,,,,,,,,0,9,9,9,,,,,,,,,,,,,None,,,,,,,,3,12,008,G,119.865086478,visual,2017_Nov_01_1228,
3,2,G.png,33,395,S,,,,,,,,0,10,10,10,,,,,,,,,,,,,None,,,,,,,,3,12,008,G,119.865086478,visual,2017_Nov_01_1228,
3,3,C.png,33,396,S,,,,,,,,0,11,11,11,,,,,,,,,,,,,None,,,,,,,,3,12,008,G,119.865086478,visual,2017_Nov_01_1228,
2,1,A.png,33,397,S,,,,,,,,0,12,12,12,,,,,,,,,,,,,None,,,,,,,,3,12,008,G,119.865086478,visual,2017_Nov_01_1228,
2,2,J.png,33,398,S,,,,,,,,0,13,13,13,,,,,,,,,,,,,None,,,,,,,,3,12,008,G,119.865086478,visual,2017_Nov_01_1228,
2,3,F.png,33,399,S,,,,,,,,0,14,14,14,,,,,,,,,,,,,None,,,,,,,,3,12,008,G,119.865086478,visual,2017_Nov_01_1228,
1,1,M.png,35,400,S,,,,,,,,0,15,15,15,,,,,,,,,,,,,None,,,,,,,,3,12,008,G,119.865086478,visual,2017_Nov_01_1228,
1,2,K.png,35,401,S,,,,,,,,0,16,16,16,,,,,,,,,,,,,None,,,,,,,,3,12,008,G,119.865086478,visual,2017_Nov_01_1228,
1,3,B.png,35,402,S,,,,,,,,0,17,17,17,,,,,,,,,,,,,None,,,,,,,,3,12,008,G,119.865086478,visual,2017_Nov_01_1228,
3,1,D.png,34,403,S,,,,,,,,0,18,18,18,,,,,,,,,,,,,None,,,,,,,,3,12,008,G,119.865086478,visual,2017_Nov_01_1228,
3,2,G.png,34,404,S,,,,,,,,0,19,19,19,,,,,,,,,,,,,3,0.331419594382,,,,,,,3,12,008,G,119.865086478,visual,2017_Nov_01_1228,
3,3,C.png,34,405,S,,,,,,,,0,20,20,20,,,,,,,,,,,,,None,,,,,,,,3,12,008,G,119.865086478,visual,2017_Nov_01_1228,
4,1,E.png,34,406,S,,,,,,,,0,21,21,21,,,,,,,,,,,,,None,,,,,,,,3,12,008,G,119.865086478,visual,2017_Nov_01_1228,
4,2,L.png,34,407,S,,,,,,,,0,22,22,22,,,,,,,,,,,,,None,,,,,,,,3,12,008,G,119.865086478,visual,2017_Nov_01_1228,
4,3,H.png,34,408,S,,,,,,,,0,23,23,23,,,,,,,,,,,,,None,,,,,,,,3,12,008,G,119.865086478,visual,2017_Nov_01_1228,
0,1,Alien5.bmp,1,385,R,,,,,,,,,,,,0,0,0,0,,,,,,,,,,,None,,,,,,3,12,008,G,119.865086478,visual,2017_Nov_01_1228,
0,2,Alien7.bmp,1,386,R,,,,,,,,,,,,0,1,1,1,,,,,,,,,,,None,,,,,,3,12,008,G,119.865086478,visual,2017_Nov_01_1228,
0,3,Alien7.bmp,1,387,R,,,,,,,,,,,,0,2,2,2,,,,,,,,,,,None,,,,,,3,12,008,G,119.865086478,visual,2017_Nov_01_1228,
0,1,Alien9.bmp,1,388,R,,,,,,,,,,,,0,3,3,3,,,,,,,,,,,None,,,,,,3,12,008,G,119.865086478,visual,2017_Nov_01_1228,
0,2,Alien5.bmp,1,389,R,,,,,,,,,,,,0,4,4,4,,,,,,,,,,,None,,,,,,3,12,008,G,119.865086478,visual,2017_Nov_01_1228,
0,3,Alien12.bmp,1,390,R,,,,,,,,,,,,0,5,5,5,,,,,,,,,,,3,0.983724116668,,,,,3,12,008,G,119.865086478,visual,2017_Nov_01_1228,
0,1,Alien8.bmp,1,391,R,,,,,,,,,,,,0,6,6,6,,,,,,,,,,,None,,,,,,3,12,008,G,119.865086478,visual,2017_Nov_01_1228,
0,2,Alien4.bmp,1,392,R,,,,,,,,,,,,0,7,7,7,,,,,,,,,,,None,,,,,,3,12,008,G,119.865086478,visual,2017_Nov_01_1228,
0,3,Alien5.bmp,1,393,R,,,,,,,,,,,,0,8,8,8,,,,,,,,,,,None,,,,,,3,12,008,G,119.865086478,visual,2017_Nov_01_1228,
0,1,Alien10.bmp,1,394,R,,,,,,,,,,,,0,9,9,9,,,,,,,,,,,None,,,,,,3,12,008,G,119.865086478,visual,2017_Nov_01_1228,
0,2,Alien11.bmp,1,395,R,,,,,,,,,,,,0,10,10,10,,,,,,,,,,,None,,,,,,3,12,008,G,119.865086478,visual,2017_Nov_01_1228,
0,3,Alien6.bmp,1,396,R,,,,,,,,,,,,0,11,11,11,,,,,,,,,,,None,,,,,,3,12,008,G,119.865086478,visual,2017_Nov_01_1228,
0,1,Alien10.bmp,1,397,R,,,,,,,,,,,,0,12,12,12,,,,,,,,,,,None,,,,,,3,12,008,G,119.865086478,visual,2017_Nov_01_1228,
0,2,Alien8.bmp,1,398,R,,,,,,,,,,,,0,13,13,13,,,,,,,,,,,None,,,,,,3,12,008,G,119.865086478,visual,2017_Nov_01_1228,
0,3,Alien1.bmp,1,399,R,,,,,,,,,,,,0,14,14,14,,,,,,,,,,,None,,,,,,3,12,008,G,119.865086478,visual,2017_Nov_01_1228,
0,1,Alien9.bmp,1,400,R,,,,,,,,,,,,0,15,15,15,,,,,,,,,,,None,,,,,,3,12,008,G,119.865086478,visual,2017_Nov_01_1228,
0,2,Alien11.bmp,1,401,R,,,,,,,,,,,,0,16,16,16,,,,,,,,,,,None,,,,,,3,12,008,G,119.865086478,visual,2017_Nov_01_1228,
0,3,Alien4.bmp,1,402,R,,,,,,,,,,,,0,17,17,17,,,,,,,,,,,None,,,,,,3,12,008,G,119.865086478,visual,2017_Nov_01_1228,
0,1,Alien6.bmp,1,403,R,,,,,,,,,,,,0,18,18,18,,,,,,,,,,,None,,,,,,3,12,008,G,119.865086478,visual,2017_Nov_01_1228,
0,2,Alien12.bmp,1,404,R,,,,,,,,,,,,0,19,19,19,,,,,,,,,,,3,0.401960558433,,,,,3,12,008,G,119.865086478,visual,2017_Nov_01_1228,
0,3,Alien4.bmp,1,405,R,,,,,,,,,,,,0,20,20,20,,,,,,,,,,,None,,,,,,3,12,008,G,119.865086478,visual,2017_Nov_01_1228,
0,1,Alien3.bmp,1,406,R,,,,,,,,,,,,0,21,21,21,,,,,,,,,,,None,,,,,,3,12,008,G,119.865086478,visual,2017_Nov_01_1228,
0,2,Alien6.bmp,1,407,R,,,,,,,,,,,,0,22,22,22,,,,,,,,,,,None,,,,,,3,12,008,G,119.865086478,visual,2017_Nov_01_1228,
0,3,Alien2.bmp,1,408,R,,,,,,,,,,,,0,23,23,23,,,,,,,,,,,None,,,,,,3,12,008,G,119.865086478,visual,2017_Nov_01_1228,
0,0,blank.png,0,0,B,,,,,,,,,,,,0,24,24,24,,,,,,,,,,,None,,,,,,3,12,008,G,119.865086478,visual,2017_Nov_01_1228,
0,0,blank.png,0,0,B,,,,,,,,,,,,0,25,25,25,,,,,,,,,,,None,,,,,,3,12,008,G,119.865086478,visual,2017_Nov_01_1228,
0,0,blank.png,0,0,B,,,,,,,,,,,,0,26,26,26,,,,,,,,,,,None,,,,,,3,12,008,G,119.865086478,visual,2017_Nov_01_1228,
0,0,blank.png,0,0,B,,,,,,,,,,,,0,27,27,27,,,,,,,,,,,None,,,,,,3,12,008,G,119.865086478,visual,2017_Nov_01_1228,
0,0,blank.png,0,0,B,,,,,,,,,,,,0,28,28,28,,,,,,,,,,,None,,,,,,3,12,008,G,119.865086478,visual,2017_Nov_01_1228,
0,0,blank.png,0,0,B,,,,,,,,,,,,0,29,29,29,,,,,,,,,,,None,,,,,,3,12,008,G,119.865086478,visual,2017_Nov_01_1228,
0,0,blank.png,0,0,B,,,,,,,,,,,,0,30,30,30,,,,,,,,,,,None,,,,,,3,12,008,G,119.865086478,visual,2017_Nov_01_1228,
0,0,blank.png,0,0,B,,,,,,,,,,,,0,31,31,31,,,,,,,,,,,None,,,,,,3,12,008,G,119.865086478,visual,2017_Nov_01_1228,
0,0,blank.png,0,0,B,,,,,,,,,,,,0,32,32,32,,,,,,,,,,,None,,,,,,3,12,008,G,119.865086478,visual,2017_Nov_01_1228,
0,0,blank.png,0,0,B,,,,,,,,,,,,0,33,33,33,,,,,,,,,,,None,,,,,,3,12,008,G,119.865086478,visual,2017_Nov_01_1228,
0,0,blank.png,0,0,B,,,,,,,,,,,,0,34,34,34,,,,,,,,,,,None,,,,,,3,12,008,G,119.865086478,visual,2017_Nov_01_1228,
0,0,blank.png,0,0,B,,,,,,,,,,,,0,35,35,35,,,,,,,,,,,None,,,,,,3,12,008,G,119.865086478,visual,2017_Nov_01_1228,
2,1,A.png,34,409,S,,,,,,,,0,0,0,0,,,,,,,,,,,,,None,,,,,,,,3,12,008,G,119.865086478,visual,2017_Nov_01_1228,
2,2,J.png,34,410,S,,,,,,,,0,1,1,1,,,,,,,,,,,,,None,,,,,,,,3,12,008,G,119.865086478,visual,2017_Nov_01_1228,
2,3,F.png,34,411,S,,,,,,,,0,2,2,2,,,,,,,,,,,,,None,,,,,,,,3,12,008,G,119.865086478,visual,2017_Nov_01_1228,
1,1,M.png,36,412,S,,,,,,,,0,3,3,3,,,,,,,,,,,,,None,,,,,,,,3,12,008,G,119.865086478,visual,2017_Nov_01_1228,
1,2,K.png,36,413,S,,,,,,,,0,4,4,4,,,,,,,,,,,,,None,,,,,,,,3,12,008,G,119.865086478,visual,2017_Nov_01_1228,
1,3,B.png,36,414,S,,,,,,,,0,5,5,5,,,,,,,,,,,,,None,,,,,,,,3,12,008,G,119.865086478,visual,2017_Nov_01_1228,
2,1,A.png,35,415,S,,,,,,,,0,6,6,6,,,,,,,,,,,,,None,,,,,,,,3,12,008,G,119.865086478,visual,2017_Nov_01_1228,
2,2,J.png,35,416,S,,,,,,,,0,7,7,7,,,,,,,,,,,,,None,,,,,,,,3,12,008,G,119.865086478,visual,2017_Nov_01_1228,
2,3,F.png,35,417,S,,,,,,,,0,8,8,8,,,,,,,,,,,,,None,,,,,,,,3,12,008,G,119.865086478,visual,2017_Nov_01_1228,
4,1,E.png,35,418,S,,,,,,,,0,9,9,9,,,,,,,,,,,,,None,,,,,,,,3,12,008,G,119.865086478,visual,2017_Nov_01_1228,
4,2,L.png,35,419,S,,,,,,,,0,10,10,10,,,,,,,,,,,,,None,,,,,,,,3,12,008,G,119.865086478,visual,2017_Nov_01_1228,
4,3,H.png,35,420,S,,,,,,,,0,11,11,11,,,,,,,,,,,,,None,,,,,,,,3,12,008,G,119.865086478,visual,2017_Nov_01_1228,
3,1,D.png,35,421,S,,,,,,,,0,12,12,12,,,,,,,,,,,,,None,,,,,,,,3,12,008,G,119.865086478,visual,2017_Nov_01_1228,
3,2,G.png,35,422,S,,,,,,,,0,13,13,13,,,,,,,,,,,,,3,0.289815683151,,,,,,,3,12,008,G,119.865086478,visual,2017_Nov_01_1228,
3,3,C.png,35,423,S,,,,,,,,0,14,14,14,,,,,,,,,,,,,None,,,,,,,,3,12,008,G,119.865086478,visual,2017_Nov_01_1228,
4,1,E.png,36,424,S,,,,,,,,0,15,15,15,,,,,,,,,,,,,None,,,,,,,,3,12,008,G,119.865086478,visual,2017_Nov_01_1228,
4,2,L.png,36,425,S,,,,,,,,0,16,16,16,,,,,,,,,,,,,None,,,,,,,,3,12,008,G,119.865086478,visual,2017_Nov_01_1228,
4,3,H.png,36,426,S,,,,,,,,0,17,17,17,,,,,,,,,,,,,None,,,,,,,,3,12,008,G,119.865086478,visual,2017_Nov_01_1228,
3,1,D.png,36,427,S,,,,,,,,0,18,18,18,,,,,,,,,,,,,None,,,,,,,,3,12,008,G,119.865086478,visual,2017_Nov_01_1228,
3,2,G.png,36,428,S,,,,,,,,0,19,19,19,,,,,,,,,,,,,3,0.322920124439,,,,,,,3,12,008,G,119.865086478,visual,2017_Nov_01_1228,
3,3,C.png,36,429,S,,,,,,,,0,20,20,20,,,,,,,,,,,,,None,,,,,,,,3,12,008,G,119.865086478,visual,2017_Nov_01_1228,
2,1,A.png,36,430,S,,,,,,,,0,21,21,21,,,,,,,,,,,,,None,,,,,,,,3,12,008,G,119.865086478,visual,2017_Nov_01_1228,
2,2,J.png,36,431,S,,,,,,,,0,22,22,22,,,,,,,,,,,,,None,,,,,,,,3,12,008,G,119.865086478,visual,2017_Nov_01_1228,
2,3,F.png,36,432,S,,,,,,,,0,23,23,23,,,,,,,,,,,,,None,,,,,,,,3,12,008,G,119.865086478,visual,2017_Nov_01_1228,
0,0,blank.png,0,0,B,,,,,,,,,,,,,,,,0,0,0,0,,,,,,,,,None,,,,3,12,008,G,119.865086478,visual,2017_Nov_01_1228,
0,0,blank.png,0,0,B,,,,,,,,,,,,,,,,0,1,1,1,,,,,,,,,None,,,,3,12,008,G,119.865086478,visual,2017_Nov_01_1228,
0,0,blank.png,0,0,B,,,,,,,,,,,,,,,,0,2,2,2,,,,,,,,,None,,,,3,12,008,G,119.865086478,visual,2017_Nov_01_1228,
0,0,blank.png,0,0,B,,,,,,,,,,,,,,,,0,3,3,3,,,,,,,,,None,,,,3,12,008,G,119.865086478,visual,2017_Nov_01_1228,
0,0,blank.png,0,0,B,,,,,,,,,,,,,,,,0,4,4,4,,,,,,,,,None,,,,3,12,008,G,119.865086478,visual,2017_Nov_01_1228,
0,0,blank.png,0,0,B,,,,,,,,,,,,,,,,0,5,5,5,,,,,,,,,None,,,,3,12,008,G,119.865086478,visual,2017_Nov_01_1228,
0,0,blank.png,0,0,B,,,,,,,,,,,,,,,,0,6,6,6,,,,,,,,,None,,,,3,12,008,G,119.865086478,visual,2017_Nov_01_1228,
0,0,blank.png,0,0,B,,,,,,,,,,,,,,,,0,7,7,7,,,,,,,,,None,,,,3,12,008,G,119.865086478,visual,2017_Nov_01_1228,
0,0,blank.png,0,0,B,,,,,,,,,,,,,,,,0,8,8,8,,,,,,,,,None,,,,3,12,008,G,119.865086478,visual,2017_Nov_01_1228,
0,0,blank.png,0,0,B,,,,,,,,,,,,,,,,0,9,9,9,,,,,,,,,None,,,,3,12,008,G,119.865086478,visual,2017_Nov_01_1228,
0,0,blank.png,0,0,B,,,,,,,,,,,,,,,,0,10,10,10,,,,,,,,,None,,,,3,12,008,G,119.865086478,visual,2017_Nov_01_1228,
0,0,blank.png,0,0,B,,,,,,,,,,,,,,,,0,11,11,11,,,,,,,,,None,,,,3,12,008,G,119.865086478,visual,2017_Nov_01_1228,
0,1,Alien2.bmp,1,409,R,,,,,,,,,,,,0,0,0,0,,,,,,,,,,,None,,,,,,3,12,008,G,119.865086478,visual,2017_Nov_01_1228,
0,2,Alien6.bmp,1,410,R,,,,,,,,,,,,0,1,1,1,,,,,,,,,,,None,,,,,,3,12,008,G,119.865086478,visual,2017_Nov_01_1228,
0,3,Alien1.bmp,1,411,R,,,,,,,,,,,,0,2,2,2,,,,,,,,,,,None,,,,,,3,12,008,G,119.865086478,visual,2017_Nov_01_1228,
0,1,Alien5.bmp,1,412,R,,,,,,,,,,,,0,3,3,3,,,,,,,,,,,None,,,,,,3,12,008,G,119.865086478,visual,2017_Nov_01_1228,
0,2,Alien3.bmp,1,413,R,,,,,,,,,,,,0,4,4,4,,,,,,,,,,,None,,,,,,3,12,008,G,119.865086478,visual,2017_Nov_01_1228,
0,3,Alien3.bmp,1,414,R,,,,,,,,,,,,0,5,5,5,,,,,,,,,,,None,,,,,,3,12,008,G,119.865086478,visual,2017_Nov_01_1228,
0,1,Alien7.bmp,1,415,R,,,,,,,,,,,,0,6,6,6,,,,,,,,,,,None,,,,,,3,12,008,G,119.865086478,visual,2017_Nov_01_1228,
0,2,Alien4.bmp,1,416,R,,,,,,,,,,,,0,7,7,7,,,,,,,,,,,None,,,,,,3,12,008,G,119.865086478,visual,2017_Nov_01_1228,
0,3,Alien2.bmp,1,417,R,,,,,,,,,,,,0,8,8,8,,,,,,,,,,,None,,,,,,3,12,008,G,119.865086478,visual,2017_Nov_01_1228,
0,1,Alien12.bmp,1,418,R,,,,,,,,,,,,0,9,9,9,,,,,,,,,,,3,0.575309809239,,,,,3,12,008,G,119.865086478,visual,2017_Nov_01_1228,
0,2,Alien9.bmp,1,419,R,,,,,,,,,,,,0,10,10,10,,,,,,,,,,,None,,,,,,3,12,008,G,119.865086478,visual,2017_Nov_01_1228,
0,3,Alien11.bmp,1,420,R,,,,,,,,,,,,0,11,11,11,,,,,,,,,,,None,,,,,,3,12,008,G,119.865086478,visual,2017_Nov_01_1228,
0,1,Alien12.bmp,1,421,R,,,,,,,,,,,,0,12,12,12,,,,,,,,,,,3,0.425241158708,,,,,3,12,008,G,119.865086478,visual,2017_Nov_01_1228,
0,2,Alien7.bmp,1,422,R,,,,,,,,,,,,0,13,13,13,,,,,,,,,,,None,,,,,,3,12,008,G,119.865086478,visual,2017_Nov_01_1228,
0,3,Alien8.bmp,1,423,R,,,,,,,,,,,,0,14,14,14,,,,,,,,,,,None,,,,,,3,12,008,G,119.865086478,visual,2017_Nov_01_1228,
0,1,Alien10.bmp,1,424,R,,,,,,,,,,,,0,15,15,15,,,,,,,,,,,None,,,,,,3,12,008,G,119.865086478,visual,2017_Nov_01_1228,
0,2,Alien11.bmp,1,425,R,,,,,,,,,,,,0,16,16,16,,,,,,,,,,,None,,,,,,3,12,008,G,119.865086478,visual,2017_Nov_01_1228,
0,3,Alien3.bmp,1,426,R,,,,,,,,,,,,0,17,17,17,,,,,,,,,,,None,,,,,,3,12,008,G,119.865086478,visual,2017_Nov_01_1228,
0,1,Alien1.bmp,1,427,R,,,,,,,,,,,,0,18,18,18,,,,,,,,,,,None,,,,,,3,12,008,G,119.865086478,visual,2017_Nov_01_1228,
0,2,Alien10.bmp,1,428,R,,,,,,,,,,,,0,19,19,19,,,,,,,,,,,None,,,,,,3,12,008,G,119.865086478,visual,2017_Nov_01_1228,
0,3,Alien2.bmp,1,429,R,,,,,,,,,,,,0,20,20,20,,,,,,,,,,,None,,,,,,3,12,008,G,119.865086478,visual,2017_Nov_01_1228,
0,1,Alien9.bmp,1,430,R,,,,,,,,,,,,0,21,21,21,,,,,,,,,,,None,,,,,,3,12,008,G,119.865086478,visual,2017_Nov_01_1228,
0,2,Alien8.bmp,1,431,R,,,,,,,,,,,,0,22,22,22,,,,,,,,,,,None,,,,,,3,12,008,G,119.865086478,visual,2017_Nov_01_1228,
0,3,Alien1.bmp,1,432,R,,,,,,,,,,,,0,23,23,23,,,,,,,,,,,None,,,,,,3,12,008,G,119.865086478,visual,2017_Nov_01_1228,
0,0,blank.png,0,0,B,,,,,,,,,,,,0,24,24,24,,,,,,,,,,,None,,,,,,3,12,008,G,119.865086478,visual,2017_Nov_01_1228,
0,0,blank.png,0,0,B,,,,,,,,,,,,0,25,25,25,,,,,,,,,,,None,,,,,,3,12,008,G,119.865086478,visual,2017_Nov_01_1228,
0,0,blank.png,0,0,B,,,,,,,,,,,,0,26,26,26,,,,,,,,,,,None,,,,,,3,12,008,G,119.865086478,visual,2017_Nov_01_1228,
0,0,blank.png,0,0,B,,,,,,,,,,,,0,27,27,27,,,,,,,,,,,None,,,,,,3,12,008,G,119.865086478,visual,2017_Nov_01_1228,
0,0,blank.png,0,0,B,,,,,,,,,,,,0,28,28,28,,,,,,,,,,,None,,,,,,3,12,008,G,119.865086478,visual,2017_Nov_01_1228,
0,0,blank.png,0,0,B,,,,,,,,,,,,0,29,29,29,,,,,,,,,,,None,,,,,,3,12,008,G,119.865086478,visual,2017_Nov_01_1228,
0,0,blank.png,0,0,B,,,,,,,,,,,,0,30,30,30,,,,,,,,,,,None,,,,,,3,12,008,G,119.865086478,visual,2017_Nov_01_1228,
0,0,blank.png,0,0,B,,,,,,,,,,,,0,31,31,31,,,,,,,,,,,None,,,,,,3,12,008,G,119.865086478,visual,2017_Nov_01_1228,
0,0,blank.png,0,0,B,,,,,,,,,,,,0,32,32,32,,,,,,,,,,,None,,,,,,3,12,008,G,119.865086478,visual,2017_Nov_01_1228,
0,0,blank.png,0,0,B,,,,,,,,,,,,0,33,33,33,,,,,,,,,,,None,,,,,,3,12,008,G,119.865086478,visual,2017_Nov_01_1228,
0,0,blank.png,0,0,B,,,,,,,,,,,,0,34,34,34,,,,,,,,,,,None,,,,,,3,12,008,G,119.865086478,visual,2017_Nov_01_1228,
0,0,blank.png,0,0,B,,,,,,,,,,,,0,35,35,35,,,,,,,,,,,None,,,,,,3,12,008,G,119.865086478,visual,2017_Nov_01_1228,
0,1,Alien7.bmp,1,433,R,,,,,,,,,,,,0,36,36,36,,,,,,,,,,,None,,,,,,3,12,008,G,119.865086478,visual,2017_Nov_01_1228,
0,2,Alien11.bmp,1,434,R,,,,,,,,,,,,0,37,37,37,,,,,,,,,,,None,,,,,,3,12,008,G,119.865086478,visual,2017_Nov_01_1228,
0,3,Alien9.bmp,1,435,R,,,,,,,,,,,,0,38,38,38,,,,,,,,,,,None,,,,,,3,12,008,G,119.865086478,visual,2017_Nov_01_1228,
0,1,Alien10.bmp,1,436,R,,,,,,,,,,,,0,39,39,39,,,,,,,,,,,None,,,,,,3,12,008,G,119.865086478,visual,2017_Nov_01_1228,
0,2,Alien6.bmp,1,437,R,,,,,,,,,,,,0,40,40,40,,,,,,,,,,,None,,,,,,3,12,008,G,119.865086478,visual,2017_Nov_01_1228,
0,3,Alien4.bmp,1,438,R,,,,,,,,,,,,0,41,41,41,,,,,,,,,,,None,,,,,,3,12,008,G,119.865086478,visual,2017_Nov_01_1228,
0,1,Alien1.bmp,1,439,R,,,,,,,,,,,,0,42,42,42,,,,,,,,,,,None,,,,,,3,12,008,G,119.865086478,visual,2017_Nov_01_1228,
0,2,Alien5.bmp,1,440,R,,,,,,,,,,,,0,43,43,43,,,,,,,,,,,None,,,,,,3,12,008,G,119.865086478,visual,2017_Nov_01_1228,
0,3,Alien2.bmp,1,441,R,,,,,,,,,,,,0,44,44,44,,,,,,,,,,,None,,,,,,3,12,008,G,119.865086478,visual,2017_Nov_01_1228,
0,1,Alien4.bmp,1,442,R,,,,,,,,,,,,0,45,45,45,,,,,,,,,,,None,,,,,,3,12,008,G,119.865086478,visual,2017_Nov_01_1228,
0,2,Alien8.bmp,1,443,R,,,,,,,,,,,,0,46,46,46,,,,,,,,,,,None,,,,,,3,12,008,G,119.865086478,visual,2017_Nov_01_1228,
0,3,Alien1.bmp,1,444,R,,,,,,,,,,,,0,47,47,47,,,,,,,,,,,None,,,,,,3,12,008,G,119.865086478,visual,2017_Nov_01_1228,
0,1,Alien9.bmp,1,445,R,,,,,,,,,,,,0,48,48,48,,,,,,,,,,,None,,,,,,3,12,008,G,119.865086478,visual,2017_Nov_01_1228,
0,2,Alien8.bmp,1,446,R,,,,,,,,,,,,0,49,49,49,,,,,,,,,,,None,,,,,,3,12,008,G,119.865086478,visual,2017_Nov_01_1228,
0,3,Alien3.bmp,1,447,R,,,,,,,,,,,,0,50,50,50,,,,,,,,,,,None,,,,,,3,12,008,G,119.865086478,visual,2017_Nov_01_1228,
0,1,Alien3.bmp,1,448,R,,,,,,,,,,,,0,51,51,51,,,,,,,,,,,None,,,,,,3,12,008,G,119.865086478,visual,2017_Nov_01_1228,
0,2,Alien6.bmp,1,449,R,,,,,,,,,,,,0,52,52,52,,,,,,,,,,,None,,,,,,3,12,008,G,119.865086478,visual,2017_Nov_01_1228,
0,3,Alien6.bmp,1,450,R,,,,,,,,,,,,0,53,53,53,,,,,,,,,,,None,,,,,,3,12,008,G,119.865086478,visual,2017_Nov_01_1228,
0,1,Alien5.bmp,1,451,R,,,,,,,,,,,,0,54,54,54,,,,,,,,,,,None,,,,,,3,12,008,G,119.865086478,visual,2017_Nov_01_1228,
0,2,Alien12.bmp,1,452,R,,,,,,,,,,,,0,55,55,55,,,,,,,,,,,3,0.510341671237,,,,,3,12,008,G,119.865086478,visual,2017_Nov_01_1228,
0,3,Alien5.bmp,1,453,R,,,,,,,,,,,,0,56,56,56,,,,,,,,,,,None,,,,,,3,12,008,G,119.865086478,visual,2017_Nov_01_1228,
0,1,Alien7.bmp,1,454,R,,,,,,,,,,,,0,57,57,57,,,,,,,,,,,None,,,,,,3,12,008,G,119.865086478,visual,2017_Nov_01_1228,
0,2,Alien2.bmp,1,455,R,,,,,,,,,,,,0,58,58,58,,,,,,,,,,,None,,,,,,3,12,008,G,119.865086478,visual,2017_Nov_01_1228,
0,3,Alien4.bmp,1,456,R,,,,,,,,,,,,0,59,59,59,,,,,,,,,,,None,,,,,,3,12,008,G,119.865086478,visual,2017_Nov_01_1228,
0,0,blank.png,0,0,B,,,,,,,,,,,,0,60,60,60,,,,,,,,,,,None,,,,,,3,12,008,G,119.865086478,visual,2017_Nov_01_1228,
0,0,blank.png,0,0,B,,,,,,,,,,,,0,61,61,61,,,,,,,,,,,None,,,,,,3,12,008,G,119.865086478,visual,2017_Nov_01_1228,
0,0,blank.png,0,0,B,,,,,,,,,,,,0,62,62,62,,,,,,,,,,,None,,,,,,3,12,008,G,119.865086478,visual,2017_Nov_01_1228,
0,0,blank.png,0,0,B,,,,,,,,,,,,0,63,63,63,,,,,,,,,,,None,,,,,,3,12,008,G,119.865086478,visual,2017_Nov_01_1228,
0,0,blank.png,0,0,B,,,,,,,,,,,,0,64,64,64,,,,,,,,,,,None,,,,,,3,12,008,G,119.865086478,visual,2017_Nov_01_1228,
0,0,blank.png,0,0,B,,,,,,,,,,,,0,65,65,65,,,,,,,,,,,None,,,,,,3,12,008,G,119.865086478,visual,2017_Nov_01_1228,
0,0,blank.png,0,0,B,,,,,,,,,,,,0,66,66,66,,,,,,,,,,,None,,,,,,3,12,008,G,119.865086478,visual,2017_Nov_01_1228,
0,0,blank.png,0,0,B,,,,,,,,,,,,0,67,67,67,,,,,,,,,,,None,,,,,,3,12,008,G,119.865086478,visual,2017_Nov_01_1228,
0,0,blank.png,0,0,B,,,,,,,,,,,,0,68,68,68,,,,,,,,,,,None,,,,,,3,12,008,G,119.865086478,visual,2017_Nov_01_1228,
0,0,blank.png,0,0,B,,,,,,,,,,,,0,69,69,69,,,,,,,,,,,None,,,,,,3,12,008,G,119.865086478,visual,2017_Nov_01_1228,
0,0,blank.png,0,0,B,,,,,,,,,,,,0,70,70,70,,,,,,,,,,,None,,,,,,3,12,008,G,119.865086478,visual,2017_Nov_01_1228,
0,0,blank.png,0,0,B,,,,,,,,,,,,0,71,71,71,,,,,,,,,,,None,,,,,,3,12,008,G,119.865086478,visual,2017_Nov_01_1228,
1,1,M.png,37,433,S,,,,,,,,0,0,0,0,,,,,,,,,,,,,None,,,,,,,,3,12,008,G,119.865086478,visual,2017_Nov_01_1228,
1,2,K.png,37,434,S,,,,,,,,0,1,1,1,,,,,,,,,,,,,None,,,,,,,,3,12,008,G,119.865086478,visual,2017_Nov_01_1228,
1,3,B.png,37,435,S,,,,,,,,0,2,2,2,,,,,,,,,,,,,None,,,,,,,,3,12,008,G,119.865086478,visual,2017_Nov_01_1228,
3,1,D.png,37,436,S,,,,,,,,0,3,3,3,,,,,,,,,,,,,None,,,,,,,,3,12,008,G,119.865086478,visual,2017_Nov_01_1228,
3,2,G.png,37,437,S,,,,,,,,0,4,4,4,,,,,,,,,,,,,3,0.364934772733,,,,,,,3,12,008,G,119.865086478,visual,2017_Nov_01_1228,
3,3,C.png,37,438,S,,,,,,,,0,5,5,5,,,,,,,,,,,,,None,,,,,,,,3,12,008,G,119.865086478,visual,2017_Nov_01_1228,
1,1,M.png,38,439,S,,,,,,,,0,6,6,6,,,,,,,,,,,,,None,,,,,,,,3,12,008,G,119.865086478,visual,2017_Nov_01_1228,
1,2,K.png,38,440,S,,,,,,,,0,7,7,7,,,,,,,,,,,,,None,,,,,,,,3,12,008,G,119.865086478,visual,2017_Nov_01_1228,
1,3,B.png,38,441,S,,,,,,,,0,8,8,8,,,,,,,,,,,,,None,,,,,,,,3,12,008,G,119.865086478,visual,2017_Nov_01_1228,
4,1,E.png,37,442,S,,,,,,,,0,9,9,9,,,,,,,,,,,,,None,,,,,,,,3,12,008,G,119.865086478,visual,2017_Nov_01_1228,
4,2,L.png,37,443,S,,,,,,,,0,10,10,10,,,,,,,,,,,,,None,,,,,,,,3,12,008,G,119.865086478,visual,2017_Nov_01_1228,
4,3,H.png,37,444,S,,,,,,,,0,11,11,11,,,,,,,,,,,,,None,,,,,,,,3,12,008,G,119.865086478,visual,2017_Nov_01_1228,
2,1,A.png,37,445,S,,,,,,,,0,12,12,12,,,,,,,,,,,,,None,,,,,,,,3,12,008,G,119.865086478,visual,2017_Nov_01_1228,
2,2,J.png,37,446,S,,,,,,,,0,13,13,13,,,,,,,,,,,,,None,,,,,,,,3,12,008,G,119.865086478,visual,2017_Nov_01_1228,
2,3,F.png,37,447,S,,,,,,,,0,14,14,14,,,,,,,,,,,,,None,,,,,,,,3,12,008,G,119.865086478,visual,2017_Nov_01_1228,
1,1,M.png,39,448,S,,,,,,,,0,15,15,15,,,,,,,,,,,,,None,,,,,,,,3,12,008,G,119.865086478,visual,2017_Nov_01_1228,
1,2,K.png,39,449,S,,,,,,,,0,16,16,16,,,,,,,,,,,,,None,,,,,,,,3,12,008,G,119.865086478,visual,2017_Nov_01_1228,
1,3,B.png,39,450,S,,,,,,,,0,17,17,17,,,,,,,,,,,,,None,,,,,,,,3,12,008,G,119.865086478,visual,2017_Nov_01_1228,
4,1,E.png,38,451,S,,,,,,,,0,18,18,18,,,,,,,,,,,,,None,,,,,,,,3,12,008,G,119.865086478,visual,2017_Nov_01_1228,
4,2,L.png,38,452,S,,,,,,,,0,19,19,19,,,,,,,,,,,,,None,,,,,,,,3,12,008,G,119.865086478,visual,2017_Nov_01_1228,
4,3,H.png,38,453,S,,,,,,,,0,20,20,20,,,,,,,,,,,,,None,,,,,,,,3,12,008,G,119.865086478,visual,2017_Nov_01_1228,
2,1,A.png,38,454,S,,,,,,,,0,21,21,21,,,,,,,,,,,,,None,,,,,,,,3,12,008,G,119.865086478,visual,2017_Nov_01_1228,
2,2,J.png,38,455,S,,,,,,,,0,22,22,22,,,,,,,,,,,,,None,,,,,,,,3,12,008,G,119.865086478,visual,2017_Nov_01_1228,
2,3,F.png,38,456,S,,,,,,,,0,23,23,23,,,,,,,,,,,,,None,,,,,,,,3,12,008,G,119.865086478,visual,2017_Nov_01_1228,
0,0,blank.png,0,0,B,,,,,,,,,,,,,,,,0,0,0,0,,,,,,,,,None,,,,3,12,008,G,119.865086478,visual,2017_Nov_01_1228,
0,0,blank.png,0,0,B,,,,,,,,,,,,,,,,0,1,1,1,,,,,,,,,None,,,,3,12,008,G,119.865086478,visual,2017_Nov_01_1228,
0,0,blank.png,0,0,B,,,,,,,,,,,,,,,,0,2,2,2,,,,,,,,,None,,,,3,12,008,G,119.865086478,visual,2017_Nov_01_1228,
0,0,blank.png,0,0,B,,,,,,,,,,,,,,,,0,3,3,3,,,,,,,,,None,,,,3,12,008,G,119.865086478,visual,2017_Nov_01_1228,
0,0,blank.png,0,0,B,,,,,,,,,,,,,,,,0,4,4,4,,,,,,,,,None,,,,3,12,008,G,119.865086478,visual,2017_Nov_01_1228,
0,0,blank.png,0,0,B,,,,,,,,,,,,,,,,0,5,5,5,,,,,,,,,None,,,,3,12,008,G,119.865086478,visual,2017_Nov_01_1228,
0,0,blank.png,0,0,B,,,,,,,,,,,,,,,,0,6,6,6,,,,,,,,,None,,,,3,12,008,G,119.865086478,visual,2017_Nov_01_1228,
0,0,blank.png,0,0,B,,,,,,,,,,,,,,,,0,7,7,7,,,,,,,,,None,,,,3,12,008,G,119.865086478,visual,2017_Nov_01_1228,
0,0,blank.png,0,0,B,,,,,,,,,,,,,,,,0,8,8,8,,,,,,,,,None,,,,3,12,008,G,119.865086478,visual,2017_Nov_01_1228,
0,0,blank.png,0,0,B,,,,,,,,,,,,,,,,0,9,9,9,,,,,,,,,None,,,,3,12,008,G,119.865086478,visual,2017_Nov_01_1228,
0,0,blank.png,0,0,B,,,,,,,,,,,,,,,,0,10,10,10,,,,,,,,,None,,,,3,12,008,G,119.865086478,visual,2017_Nov_01_1228,
0,0,blank.png,0,0,B,,,,,,,,,,,,,,,,0,11,11,11,,,,,,,,,None,,,,3,12,008,G,119.865086478,visual,2017_Nov_01_1228,
3,1,D.png,38,457,S,,,,,,,,0,0,0,0,,,,,,,,,,,,,None,,,,,,,,3,12,008,G,119.865086478,visual,2017_Nov_01_1228,
3,2,G.png,38,458,S,,,,,,,,0,1,1,1,,,,,,,,,,,,,3,0.373225460804,,,,,,,3,12,008,G,119.865086478,visual,2017_Nov_01_1228,
3,3,C.png,38,459,S,,,,,,,,0,2,2,2,,,,,,,,,,,,,None,,,,,,,,3,12,008,G,119.865086478,visual,2017_Nov_01_1228,
2,1,A.png,39,460,S,,,,,,,,0,3,3,3,,,,,,,,,,,,,None,,,,,,,,3,12,008,G,119.865086478,visual,2017_Nov_01_1228,
2,2,J.png,39,461,S,,,,,,,,0,4,4,4,,,,,,,,,,,,,None,,,,,,,,3,12,008,G,119.865086478,visual,2017_Nov_01_1228,
2,3,F.png,39,462,S,,,,,,,,0,5,5,5,,,,,,,,,,,,,None,,,,,,,,3,12,008,G,119.865086478,visual,2017_Nov_01_1228,
1,1,M.png,40,463,S,,,,,,,,0,6,6,6,,,,,,,,,,,,,None,,,,,,,,3,12,008,G,119.865086478,visual,2017_Nov_01_1228,
1,2,K.png,40,464,S,,,,,,,,0,7,7,7,,,,,,,,,,,,,None,,,,,,,,3,12,008,G,119.865086478,visual,2017_Nov_01_1228,
1,3,B.png,40,465,S,,,,,,,,0,8,8,8,,,,,,,,,,,,,None,,,,,,,,3,12,008,G,119.865086478,visual,2017_Nov_01_1228,
3,1,D.png,39,466,S,,,,,,,,0,9,9,9,,,,,,,,,,,,,None,,,,,,,,3,12,008,G,119.865086478,visual,2017_Nov_01_1228,
3,2,G.png,39,467,S,,,,,,,,0,10,10,10,,,,,,,,,,,,,3,0.306530179078,,,,,,,3,12,008,G,119.865086478,visual,2017_Nov_01_1228,
3,3,C.png,39,468,S,,,,,,,,0,11,11,11,,,,,,,,,,,,,None,,,,,,,,3,12,008,G,119.865086478,visual,2017_Nov_01_1228,
4,1,E.png,39,469,S,,,,,,,,0,12,12,12,,,,,,,,,,,,,None,,,,,,,,3,12,008,G,119.865086478,visual,2017_Nov_01_1228,
4,2,L.png,39,470,S,,,,,,,,0,13,13,13,,,,,,,,,,,,,None,,,,,,,,3,12,008,G,119.865086478,visual,2017_Nov_01_1228,
4,3,H.png,39,471,S,,,,,,,,0,14,14,14,,,,,,,,,,,,,None,,,,,,,,3,12,008,G,119.865086478,visual,2017_Nov_01_1228,
3,1,D.png,40,472,S,,,,,,,,0,15,15,15,,,,,,,,,,,,,None,,,,,,,,3,12,008,G,119.865086478,visual,2017_Nov_01_1228,
3,2,G.png,40,473,S,,,,,,,,0,16,16,16,,,,,,,,,,,,,3,0.348172205777,,,,,,,3,12,008,G,119.865086478,visual,2017_Nov_01_1228,
3,3,C.png,40,474,S,,,,,,,,0,17,17,17,,,,,,,,,,,,,None,,,,,,,,3,12,008,G,119.865086478,visual,2017_Nov_01_1228,
2,1,A.png,40,475,S,,,,,,,,0,18,18,18,,,,,,,,,,,,,None,,,,,,,,3,12,008,G,119.865086478,visual,2017_Nov_01_1228,
2,2,J.png,40,476,S,,,,,,,,0,19,19,19,,,,,,,,,,,,,None,,,,,,,,3,12,008,G,119.865086478,visual,2017_Nov_01_1228,
2,3,F.png,40,477,S,,,,,,,,0,20,20,20,,,,,,,,,,,,,None,,,,,,,,3,12,008,G,119.865086478,visual,2017_Nov_01_1228,
4,1,E.png,40,478,S,,,,,,,,0,21,21,21,,,,,,,,,,,,,None,,,,,,,,3,12,008,G,119.865086478,visual,2017_Nov_01_1228,
4,2,L.png,40,479,S,,,,,,,,0,22,22,22,,,,,,,,,,,,,None,,,,,,,,3,12,008,G,119.865086478,visual,2017_Nov_01_1228,
4,3,H.png,40,480,S,,,,,,,,0,23,23,23,,,,,,,,,,,,,None,,,,,,,,3,12,008,G,119.865086478,visual,2017_Nov_01_1228,
0,1,Alien11.bmp,1,457,R,,,,,,,,,,,,0,0,0,0,,,,,,,,,,,None,,,,,,3,12,008,G,119.865086478,visual,2017_Nov_01_1228,
0,2,Alien8.bmp,1,458,R,,,,,,,,,,,,0,1,1,1,,,,,,,,,,,None,,,,,,3,12,008,G,119.865086478,visual,2017_Nov_01_1228,
0,3,Alien12.bmp,1,459,R,,,,,,,,,,,,0,2,2,2,,,,,,,,,,,3,0.608617627964,,,,,3,12,008,G,119.865086478,visual,2017_Nov_01_1228,
0,1,Alien6.bmp,1,460,R,,,,,,,,,,,,0,3,3,3,,,,,,,,,,,None,,,,,,3,12,008,G,119.865086478,visual,2017_Nov_01_1228,
0,2,Alien10.bmp,1,461,R,,,,,,,,,,,,0,4,4,4,,,,,,,,,,,None,,,,,,3,12,008,G,119.865086478,visual,2017_Nov_01_1228,
0,3,Alien2.bmp,1,462,R,,,,,,,,,,,,0,5,5,5,,,,,,,,,,,None,,,,,,3,12,008,G,119.865086478,visual,2017_Nov_01_1228,
0,1,Alien12.bmp,1,463,R,,,,,,,,,,,,0,6,6,6,,,,,,,,,,,None,,,,,,3,12,008,G,119.865086478,visual,2017_Nov_01_1228,
0,2,Alien4.bmp,1,464,R,,,,,,,,,,,,0,7,7,7,,,,,,,,,,,3,0.0668272637267,,,,,3,12,008,G,119.865086478,visual,2017_Nov_01_1228,
0,3,Alien12.bmp,1,465,R,,,,,,,,,,,,0,8,8,8,,,,,,,,,,,3,0.483542499205,,,,,3,12,008,G,119.865086478,visual,2017_Nov_01_1228,
0,1,Alien7.bmp,1,466,R,,,,,,,,,,,,0,9,9,9,,,,,,,,,,,None,,,,,,3,12,008,G,119.865086478,visual,2017_Nov_01_1228,
0,2,Alien3.bmp,1,467,R,,,,,,,,,,,,0,10,10,10,,,,,,,,,,,None,,,,,,3,12,008,G,119.865086478,visual,2017_Nov_01_1228,
0,3,Alien1.bmp,1,468,R,,,,,,,,,,,,0,11,11,11,,,,,,,,,,,None,,,,,,3,12,008,G,119.865086478,visual,2017_Nov_01_1228,
0,1,Alien11.bmp,1,469,R,,,,,,,,,,,,0,12,12,12,,,,,,,,,,,None,,,,,,3,12,008,G,119.865086478,visual,2017_Nov_01_1228,
0,2,Alien10.bmp,1,470,R,,,,,,,,,,,,0,13,13,13,,,,,,,,,,,None,,,,,,3,12,008,G,119.865086478,visual,2017_Nov_01_1228,
0,3,Alien1.bmp,1,471,R,,,,,,,,,,,,0,14,14,14,,,,,,,,,,,None,,,,,,3,12,008,G,119.865086478,visual,2017_Nov_01_1228,
0,1,Alien11.bmp,1,472,R,,,,,,,,,,,,0,15,15,15,,,,,,,,,,,None,,,,,,3,12,008,G,119.865086478,visual,2017_Nov_01_1228,
0,2,Alien10.bmp,1,473,R,,,,,,,,,,,,0,16,16,16,,,,,,,,,,,None,,,,,,3,12,008,G,119.865086478,visual,2017_Nov_01_1228,
0,3,Alien7.bmp,1,474,R,,,,,,,,,,,,0,17,17,17,,,,,,,,,,,None,,,,,,3,12,008,G,119.865086478,visual,2017_Nov_01_1228,
0,1,Alien2.bmp,1,475,R,,,,,,,,,,,,0,18,18,18,,,,,,,,,,,None,,,,,,3,12,008,G,119.865086478,visual,2017_Nov_01_1228,
0,2,Alien3.bmp,1,476,R,,,,,,,,,,,,0,19,19,19,,,,,,,,,,,None,,,,,,3,12,008,G,119.865086478,visual,2017_Nov_01_1228,
0,3,Alien5.bmp,1,477,R,,,,,,,,,,,,0,20,20,20,,,,,,,,,,,None,,,,,,3,12,008,G,119.865086478,visual,2017_Nov_01_1228,
0,1,Alien9.bmp,1,478,R,,,,,,,,,,,,0,21,21,21,,,,,,,,,,,None,,,,,,3,12,008,G,119.865086478,visual,2017_Nov_01_1228,
0,2,Alien9.bmp,1,479,R,,,,,,,,,,,,0,22,22,22,,,,,,,,,,,None,,,,,,3,12,008,G,119.865086478,visual,2017_Nov_01_1228,
0,3,Alien8.bmp,1,480,R,,,,,,,,,,,,0,23,23,23,,,,,,,,,,,None,,,,,,3,12,008,G,119.865086478,visual,2017_Nov_01_1228,
0,0,blank.png,0,0,B,,,,,,,,,,,,0,24,24,24,,,,,,,,,,,None,,,,,,3,12,008,G,119.865086478,visual,2017_Nov_01_1228,
0,0,blank.png,0,0,B,,,,,,,,,,,,0,25,25,25,,,,,,,,,,,None,,,,,,3,12,008,G,119.865086478,visual,2017_Nov_01_1228,
0,0,blank.png,0,0,B,,,,,,,,,,,,0,26,26,26,,,,,,,,,,,None,,,,,,3,12,008,G,119.865086478,visual,2017_Nov_01_1228,
0,0,blank.png,0,0,B,,,,,,,,,,,,0,27,27,27,,,,,,,,,,,None,,,,,,3,12,008,G,119.865086478,visual,2017_Nov_01_1228,
0,0,blank.png,0,0,B,,,,,,,,,,,,0,28,28,28,,,,,,,,,,,None,,,,,,3,12,008,G,119.865086478,visual,2017_Nov_01_1228,
0,0,blank.png,0,0,B,,,,,,,,,,,,0,29,29,29,,,,,,,,,,,None,,,,,,3,12,008,G,119.865086478,visual,2017_Nov_01_1228,
0,0,blank.png,0,0,B,,,,,,,,,,,,0,30,30,30,,,,,,,,,,,None,,,,,,3,12,008,G,119.865086478,visual,2017_Nov_01_1228,
0,0,blank.png,0,0,B,,,,,,,,,,,,0,31,31,31,,,,,,,,,,,None,,,,,,3,12,008,G,119.865086478,visual,2017_Nov_01_1228,
0,0,blank.png,0,0,B,,,,,,,,,,,,0,32,32,32,,,,,,,,,,,None,,,,,,3,12,008,G,119.865086478,visual,2017_Nov_01_1228,
0,0,blank.png,0,0,B,,,,,,,,,,,,0,33,33,33,,,,,,,,,,,None,,,,,,3,12,008,G,119.865086478,visual,2017_Nov_01_1228,
0,0,blank.png,0,0,B,,,,,,,,,,,,0,34,34,34,,,,,,,,,,,None,,,,,,3,12,008,G,119.865086478,visual,2017_Nov_01_1228,
0,0,blank.png,0,0,B,,,,,,,,,,,,0,35,35,35,,,,,,,,,,,None,,,,,,3,12,008,G,119.865086478,visual,2017_Nov_01_1228,
0,1,Alien6.bmp,1,481,R,,,,,,,,,,,,0,36,36,36,,,,,,,,,,,None,,,,,,3,12,008,G,119.865086478,visual,2017_Nov_01_1228,
0,2,Alien12.bmp,1,482,R,,,,,,,,,,,,0,37,37,37,,,,,,,,,,,3,0.550246598679,,,,,3,12,008,G,119.865086478,visual,2017_Nov_01_1228,
0,3,Alien2.bmp,1,483,R,,,,,,,,,,,,0,38,38,38,,,,,,,,,,,None,,,,,,3,12,008,G,119.865086478,visual,2017_Nov_01_1228,
0,1,Alien5.bmp,1,484,R,,,,,,,,,,,,0,39,39,39,,,,,,,,,,,None,,,,,,3,12,008,G,119.865086478,visual,2017_Nov_01_1228,
0,2,Alien7.bmp,1,485,R,,,,,,,,,,,,0,40,40,40,,,,,,,,,,,None,,,,,,3,12,008,G,119.865086478,visual,2017_Nov_01_1228,
0,3,Alien4.bmp,1,486,R,,,,,,,,,,,,0,41,41,41,,,,,,,,,,,None,,,,,,3,12,008,G,119.865086478,visual,2017_Nov_01_1228,
0,1,Alien10.bmp,1,487,R,,,,,,,,,,,,0,42,42,42,,,,,,,,,,,None,,,,,,3,12,008,G,119.865086478,visual,2017_Nov_01_1228,
0,2,Alien9.bmp,1,488,R,,,,,,,,,,,,0,43,43,43,,,,,,,,,,,None,,,,,,3,12,008,G,119.865086478,visual,2017_Nov_01_1228,
0,3,Alien8.bmp,1,489,R,,,,,,,,,,,,0,44,44,44,,,,,,,,,,,None,,,,,,3,12,008,G,119.865086478,visual,2017_Nov_01_1228,
0,1,Alien10.bmp,1,490,R,,,,,,,,,,,,0,45,45,45,,,,,,,,,,,None,,,,,,3,12,008,G,119.865086478,visual,2017_Nov_01_1228,
0,2,Alien6.bmp,1,491,R,,,,,,,,,,,,0,46,46,46,,,,,,,,,,,None,,,,,,3,12,008,G,119.865086478,visual,2017_Nov_01_1228,
0,3,Alien11.bmp,1,492,R,,,,,,,,,,,,0,47,47,47,,,,,,,,,,,None,,,,,,3,12,008,G,119.865086478,visual,2017_Nov_01_1228,
0,1,Alien3.bmp,1,493,R,,,,,,,,,,,,0,48,48,48,,,,,,,,,,,None,,,,,,3,12,008,G,119.865086478,visual,2017_Nov_01_1228,
0,2,Alien1.bmp,1,494,R,,,,,,,,,,,,0,49,49,49,,,,,,,,,,,None,,,,,,3,12,008,G,119.865086478,visual,2017_Nov_01_1228,
0,3,Alien7.bmp,1,495,R,,,,,,,,,,,,0,50,50,50,,,,,,,,,,,None,,,,,,3,12,008,G,119.865086478,visual,2017_Nov_01_1228,
0,1,Alien4.bmp,1,496,R,,,,,,,,,,,,0,51,51,51,,,,,,,,,,,None,,,,,,3,12,008,G,119.865086478,visual,2017_Nov_01_1228,
0,2,Alien9.bmp,1,497,R,,,,,,,,,,,,0,52,52,52,,,,,,,,,,,None,,,,,,3,12,008,G,119.865086478,visual,2017_Nov_01_1228,
0,3,Alien1.bmp,1,498,R,,,,,,,,,,,,0,53,53,53,,,,,,,,,,,None,,,,,,3,12,008,G,119.865086478,visual,2017_Nov_01_1228,
0,1,Alien12.bmp,1,499,R,,,,,,,,,,,,0,54,54,54,,,,,,,,,,,3,0.533528120548,,,,,3,12,008,G,119.865086478,visual,2017_Nov_01_1228,
0,2,Alien5.bmp,1,500,R,,,,,,,,,,,,0,55,55,55,,,,,,,,,,,None,,,,,,3,12,008,G,119.865086478,visual,2017_Nov_01_1228,
0,3,Alien2.bmp,1,501,R,,,,,,,,,,,,0,56,56,56,,,,,,,,,,,None,,,,,,3,12,008,G,119.865086478,visual,2017_Nov_01_1228,
0,1,Alien8.bmp,1,502,R,,,,,,,,,,,,0,57,57,57,,,,,,,,,,,None,,,,,,3,12,008,G,119.865086478,visual,2017_Nov_01_1228,
0,2,Alien3.bmp,1,503,R,,,,,,,,,,,,0,58,58,58,,,,,,,,,,,None,,,,,,3,12,008,G,119.865086478,visual,2017_Nov_01_1228,
0,3,Alien11.bmp,1,504,R,,,,,,,,,,,,0,59,59,59,,,,,,,,,,,None,,,,,,3,12,008,G,119.865086478,visual,2017_Nov_01_1228,
0,0,blank.png,0,0,B,,,,,,,,,,,,0,60,60,60,,,,,,,,,,,None,,,,,,3,12,008,G,119.865086478,visual,2017_Nov_01_1228,
0,0,blank.png,0,0,B,,,,,,,,,,,,0,61,61,61,,,,,,,,,,,None,,,,,,3,12,008,G,119.865086478,visual,2017_Nov_01_1228,
0,0,blank.png,0,0,B,,,,,,,,,,,,0,62,62,62,,,,,,,,,,,None,,,,,,3,12,008,G,119.865086478,visual,2017_Nov_01_1228,
0,0,blank.png,0,0,B,,,,,,,,,,,,0,63,63,63,,,,,,,,,,,None,,,,,,3,12,008,G,119.865086478,visual,2017_Nov_01_1228,
0,0,blank.png,0,0,B,,,,,,,,,,,,0,64,64,64,,,,,,,,,,,None,,,,,,3,12,008,G,119.865086478,visual,2017_Nov_01_1228,
0,0,blank.png,0,0,B,,,,,,,,,,,,0,65,65,65,,,,,,,,,,,None,,,,,,3,12,008,G,119.865086478,visual,2017_Nov_01_1228,
0,0,blank.png,0,0,B,,,,,,,,,,,,0,66,66,66,,,,,,,,,,,None,,,,,,3,12,008,G,119.865086478,visual,2017_Nov_01_1228,
0,0,blank.png,0,0,B,,,,,,,,,,,,0,67,67,67,,,,,,,,,,,None,,,,,,3,12,008,G,119.865086478,visual,2017_Nov_01_1228,
0,0,blank.png,0,0,B,,,,,,,,,,,,0,68,68,68,,,,,,,,,,,None,,,,,,3,12,008,G,119.865086478,visual,2017_Nov_01_1228,
0,0,blank.png,0,0,B,,,,,,,,,,,,0,69,69,69,,,,,,,,,,,None,,,,,,3,12,008,G,119.865086478,visual,2017_Nov_01_1228,
0,0,blank.png,0,0,B,,,,,,,,,,,,0,70,70,70,,,,,,,,,,,None,,,,,,3,12,008,G,119.865086478,visual,2017_Nov_01_1228,
0,0,blank.png,0,0,B,,,,,,,,,,,,0,71,71,71,,,,,,,,,,,None,,,,,,3,12,008,G,119.865086478,visual,2017_Nov_01_1228,
0,1,Alien4.bmp,1,505,R,,,,,,,,,,,,0,72,72,72,,,,,,,,,,,None,,,,,,3,12,008,G,119.865086478,visual,2017_Nov_01_1228,
0,2,Alien2.bmp,1,506,R,,,,,,,,,,,,0,73,73,73,,,,,,,,,,,None,,,,,,3,12,008,G,119.865086478,visual,2017_Nov_01_1228,
0,3,Alien1.bmp,1,507,R,,,,,,,,,,,,0,74,74,74,,,,,,,,,,,None,,,,,,3,12,008,G,119.865086478,visual,2017_Nov_01_1228,
0,1,Alien1.bmp,1,508,R,,,,,,,,,,,,0,75,75,75,,,,,,,,,,,None,,,,,,3,12,008,G,119.865086478,visual,2017_Nov_01_1228,
0,2,Alien8.bmp,1,509,R,,,,,,,,,,,,0,76,76,76,,,,,,,,,,,None,,,,,,3,12,008,G,119.865086478,visual,2017_Nov_01_1228,
0,3,Alien6.bmp,1,510,R,,,,,,,,,,,,0,77,77,77,,,,,,,,,,,None,,,,,,3,12,008,G,119.865086478,visual,2017_Nov_01_1228,
0,1,Alien11.bmp,1,511,R,,,,,,,,,,,,0,78,78,78,,,,,,,,,,,None,,,,,,3,12,008,G,119.865086478,visual,2017_Nov_01_1228,
0,2,Alien5.bmp,1,512,R,,,,,,,,,,,,0,79,79,79,,,,,,,,,,,None,,,,,,3,12,008,G,119.865086478,visual,2017_Nov_01_1228,
0,3,Alien5.bmp,1,513,R,,,,,,,,,,,,0,80,80,80,,,,,,,,,,,None,,,,,,3,12,008,G,119.865086478,visual,2017_Nov_01_1228,
0,1,Alien9.bmp,1,514,R,,,,,,,,,,,,0,81,81,81,,,,,,,,,,,None,,,,,,3,12,008,G,119.865086478,visual,2017_Nov_01_1228,
0,2,Alien7.bmp,1,515,R,,,,,,,,,,,,0,82,82,82,,,,,,,,,,,None,,,,,,3,12,008,G,119.865086478,visual,2017_Nov_01_1228,
0,3,Alien11.bmp,1,516,R,,,,,,,,,,,,0,83,83,83,,,,,,,,,,,None,,,,,,3,12,008,G,119.865086478,visual,2017_Nov_01_1228,
0,1,Alien8.bmp,1,517,R,,,,,,,,,,,,0,84,84,84,,,,,,,,,,,None,,,,,,3,12,008,G,119.865086478,visual,2017_Nov_01_1228,
0,2,Alien2.bmp,1,518,R,,,,,,,,,,,,0,85,85,85,,,,,,,,,,,None,,,,,,3,12,008,G,119.865086478,visual,2017_Nov_01_1228,
0,3,Alien9.bmp,1,519,R,,,,,,,,,,,,0,86,86,86,,,,,,,,,,,None,,,,,,3,12,008,G,119.865086478,visual,2017_Nov_01_1228,
0,1,Alien10.bmp,1,520,R,,,,,,,,,,,,0,87,87,87,,,,,,,,,,,None,,,,,,3,12,008,G,119.865086478,visual,2017_Nov_01_1228,
0,2,Alien12.bmp,1,521,R,,,,,,,,,,,,0,88,88,88,,,,,,,,,,,3,0.375126115337,,,,,3,12,008,G,119.865086478,visual,2017_Nov_01_1228,
0,3,Alien3.bmp,1,522,R,,,,,,,,,,,,0,89,89,89,,,,,,,,,,,None,,,,,,3,12,008,G,119.865086478,visual,2017_Nov_01_1228,
0,1,Alien10.bmp,1,523,R,,,,,,,,,,,,0,90,90,90,,,,,,,,,,,None,,,,,,3,12,008,G,119.865086478,visual,2017_Nov_01_1228,
0,2,Alien12.bmp,1,524,R,,,,,,,,,,,,0,91,91,91,,,,,,,,,,,3,0.408587533791,,,,,3,12,008,G,119.865086478,visual,2017_Nov_01_1228,
0,3,Alien7.bmp,1,525,R,,,,,,,,,,,,0,92,92,92,,,,,,,,,,,None,,,,,,3,12,008,G,119.865086478,visual,2017_Nov_01_1228,
0,1,Alien4.bmp,1,526,R,,,,,,,,,,,,0,93,93,93,,,,,,,,,,,None,,,,,,3,12,008,G,119.865086478,visual,2017_Nov_01_1228,
0,2,Alien6.bmp,1,527,R,,,,,,,,,,,,0,94,94,94,,,,,,,,,,,None,,,,,,3,12,008,G,119.865086478,visual,2017_Nov_01_1228,
0,3,Alien3.bmp,1,528,R,,,,,,,,,,,,0,95,95,95,,,,,,,,,,,None,,,,,,3,12,008,G,119.865086478,visual,2017_Nov_01_1228,
1,1,M.png,41,481,S,,,,,,,,0,0,0,0,,,,,,,,,,,,,None,,,,,,,,3,12,008,G,119.865086478,visual,2017_Nov_01_1228,
1,2,K.png,41,482,S,,,,,,,,0,1,1,1,,,,,,,,,,,,,None,,,,,,,,3,12,008,G,119.865086478,visual,2017_Nov_01_1228,
1,3,B.png,41,483,S,,,,,,,,0,2,2,2,,,,,,,,,,,,,None,,,,,,,,3,12,008,G,119.865086478,visual,2017_Nov_01_1228,
4,1,E.png,41,484,S,,,,,,,,0,3,3,3,,,,,,,,,,,,,None,,,,,,,,3,12,008,G,119.865086478,visual,2017_Nov_01_1228,
4,2,L.png,41,485,S,,,,,,,,0,4,4,4,,,,,,,,,,,,,None,,,,,,,,3,12,008,G,119.865086478,visual,2017_Nov_01_1228,
4,3,H.png,41,486,S,,,,,,,,0,5,5,5,,,,,,,,,,,,,None,,,,,,,,3,12,008,G,119.865086478,visual,2017_Nov_01_1228,
2,1,A.png,41,487,S,,,,,,,,0,6,6,6,,,,,,,,,,,,,None,,,,,,,,3,12,008,G,119.865086478,visual,2017_Nov_01_1228,
2,2,J.png,41,488,S,,,,,,,,0,7,7,7,,,,,,,,,,,,,None,,,,,,,,3,12,008,G,119.865086478,visual,2017_Nov_01_1228,
2,3,F.png,41,489,S,,,,,,,,0,8,8,8,,,,,,,,,,,,,None,,,,,,,,3,12,008,G,119.865086478,visual,2017_Nov_01_1228,
3,1,D.png,41,490,S,,,,,,,,0,9,9,9,,,,,,,,,,,,,None,,,,,,,,3,12,008,G,119.865086478,visual,2017_Nov_01_1228,
3,2,G.png,41,491,S,,,,,,,,0,10,10,10,,,,,,,,,,,,,3,0.206462509857,,,,,,,3,12,008,G,119.865086478,visual,2017_Nov_01_1228,
3,3,C.png,41,492,S,,,,,,,,0,11,11,11,,,,,,,,,,,,,None,,,,,,,,3,12,008,G,119.865086478,visual,2017_Nov_01_1228,
4,1,E.png,42,493,S,,,,,,,,0,12,12,12,,,,,,,,,,,,,None,,,,,,,,3,12,008,G,119.865086478,visual,2017_Nov_01_1228,
4,2,L.png,42,494,S,,,,,,,,0,13,13,13,,,,,,,,,,,,,None,,,,,,,,3,12,008,G,119.865086478,visual,2017_Nov_01_1228,
4,3,H.png,42,495,S,,,,,,,,0,14,14,14,,,,,,,,,,,,,None,,,,,,,,3,12,008,G,119.865086478,visual,2017_Nov_01_1228,
1,1,M.png,42,496,S,,,,,,,,0,15,15,15,,,,,,,,,,,,,None,,,,,,,,3,12,008,G,119.865086478,visual,2017_Nov_01_1228,
1,2,K.png,42,497,S,,,,,,,,0,16,16,16,,,,,,,,,,,,,None,,,,,,,,3,12,008,G,119.865086478,visual,2017_Nov_01_1228,
1,3,B.png,42,498,S,,,,,,,,0,17,17,17,,,,,,,,,,,,,None,,,,,,,,3,12,008,G,119.865086478,visual,2017_Nov_01_1228,
2,1,A.png,42,499,S,,,,,,,,0,18,18,18,,,,,,,,,,,,,None,,,,,,,,3,12,008,G,119.865086478,visual,2017_Nov_01_1228,
2,2,J.png,42,500,S,,,,,,,,0,19,19,19,,,,,,,,,,,,,None,,,,,,,,3,12,008,G,119.865086478,visual,2017_Nov_01_1228,
2,3,F.png,42,501,S,,,,,,,,0,20,20,20,,,,,,,,,,,,,None,,,,,,,,3,12,008,G,119.865086478,visual,2017_Nov_01_1228,
3,1,D.png,42,502,S,,,,,,,,0,21,21,21,,,,,,,,,,,,,None,,,,,,,,3,12,008,G,119.865086478,visual,2017_Nov_01_1228,
3,2,G.png,42,503,S,,,,,,,,0,22,22,22,,,,,,,,,,,,,3,0.298114904552,,,,,,,3,12,008,G,119.865086478,visual,2017_Nov_01_1228,
3,3,C.png,42,504,S,,,,,,,,0,23,23,23,,,,,,,,,,,,,None,,,,,,,,3,12,008,G,119.865086478,visual,2017_Nov_01_1228,
0,0,blank.png,0,0,B,,,,,,,,,,,,,,,,0,0,0,0,,,,,,,,,None,,,,3,12,008,G,119.865086478,visual,2017_Nov_01_1228,
0,0,blank.png,0,0,B,,,,,,,,,,,,,,,,0,1,1,1,,,,,,,,,None,,,,3,12,008,G,119.865086478,visual,2017_Nov_01_1228,
0,0,blank.png,0,0,B,,,,,,,,,,,,,,,,0,2,2,2,,,,,,,,,None,,,,3,12,008,G,119.865086478,visual,2017_Nov_01_1228,
0,0,blank.png,0,0,B,,,,,,,,,,,,,,,,0,3,3,3,,,,,,,,,None,,,,3,12,008,G,119.865086478,visual,2017_Nov_01_1228,
0,0,blank.png,0,0,B,,,,,,,,,,,,,,,,0,4,4,4,,,,,,,,,None,,,,3,12,008,G,119.865086478,visual,2017_Nov_01_1228,
0,0,blank.png,0,0,B,,,,,,,,,,,,,,,,0,5,5,5,,,,,,,,,None,,,,3,12,008,G,119.865086478,visual,2017_Nov_01_1228,
0,0,blank.png,0,0,B,,,,,,,,,,,,,,,,0,6,6,6,,,,,,,,,None,,,,3,12,008,G,119.865086478,visual,2017_Nov_01_1228,
0,0,blank.png,0,0,B,,,,,,,,,,,,,,,,0,7,7,7,,,,,,,,,None,,,,3,12,008,G,119.865086478,visual,2017_Nov_01_1228,
0,0,blank.png,0,0,B,,,,,,,,,,,,,,,,0,8,8,8,,,,,,,,,None,,,,3,12,008,G,119.865086478,visual,2017_Nov_01_1228,
0,0,blank.png,0,0,B,,,,,,,,,,,,,,,,0,9,9,9,,,,,,,,,None,,,,3,12,008,G,119.865086478,visual,2017_Nov_01_1228,
0,0,blank.png,0,0,B,,,,,,,,,,,,,,,,0,10,10,10,,,,,,,,,None,,,,3,12,008,G,119.865086478,visual,2017_Nov_01_1228,
0,0,blank.png,0,0,B,,,,,,,,,,,,,,,,0,11,11,11,,,,,,,,,None,,,,3,12,008,G,119.865086478,visual,2017_Nov_01_1228,
1,1,M.png,43,505,S,,,,,,,,0,0,0,0,,,,,,,,,,,,,None,,,,,,,,3,12,008,G,119.865086478,visual,2017_Nov_01_1228,
1,2,K.png,43,506,S,,,,,,,,0,1,1,1,,,,,,,,,,,,,None,,,,,,,,3,12,008,G,119.865086478,visual,2017_Nov_01_1228,
1,3,B.png,43,507,S,,,,,,,,0,2,2,2,,,,,,,,,,,,,None,,,,,,,,3,12,008,G,119.865086478,visual,2017_Nov_01_1228,
3,1,D.png,43,508,S,,,,,,,,0,3,3,3,,,,,,,,,,,,,3,0.97324207233,,,,,,,3,12,008,G,119.865086478,visual,2017_Nov_01_1228,
3,2,G.png,43,509,S,,,,,,,,0,4,4,4,,,,,,,,,,,,,None,,,,,,,,3,12,008,G,119.865086478,visual,2017_Nov_01_1228,
3,3,C.png,43,510,S,,,,,,,,0,5,5,5,,,,,,,,,,,,,None,,,,,,,,3,12,008,G,119.865086478,visual,2017_Nov_01_1228,
4,1,E.png,43,511,S,,,,,,,,0,6,6,6,,,,,,,,,,,,,None,,,,,,,,3,12,008,G,119.865086478,visual,2017_Nov_01_1228,
4,2,L.png,43,512,S,,,,,,,,0,7,7,7,,,,,,,,,,,,,None,,,,,,,,3,12,008,G,119.865086478,visual,2017_Nov_01_1228,
4,3,H.png,43,513,S,,,,,,,,0,8,8,8,,,,,,,,,,,,,None,,,,,,,,3,12,008,G,119.865086478,visual,2017_Nov_01_1228,
2,1,A.png,43,514,S,,,,,,,,0,9,9,9,,,,,,,,,,,,,None,,,,,,,,3,12,008,G,119.865086478,visual,2017_Nov_01_1228,
2,2,J.png,43,515,S,,,,,,,,0,10,10,10,,,,,,,,,,,,,None,,,,,,,,3,12,008,G,119.865086478,visual,2017_Nov_01_1228,
2,3,F.png,43,516,S,,,,,,,,0,11,11,11,,,,,,,,,,,,,None,,,,,,,,3,12,008,G,119.865086478,visual,2017_Nov_01_1228,
4,1,E.png,44,517,S,,,,,,,,0,12,12,12,,,,,,,,,,,,,None,,,,,,,,3,12,008,G,119.865086478,visual,2017_Nov_01_1228,
4,2,L.png,44,518,S,,,,,,,,0,13,13,13,,,,,,,,,,,,,None,,,,,,,,3,12,008,G,119.865086478,visual,2017_Nov_01_1228,
4,3,H.png,44,519,S,,,,,,,,0,14,14,14,,,,,,,,,,,,,None,,,,,,,,3,12,008,G,119.865086478,visual,2017_Nov_01_1228,
3,1,D.png,44,520,S,,,,,,,,0,15,15,15,,,,,,,,,,,,,None,,,,,,,,3,12,008,G,119.865086478,visual,2017_Nov_01_1228,
3,2,G.png,44,521,S,,,,,,,,0,16,16,16,,,,,,,,,,,,,3,0.03152919063,,,,,,,3,12,008,G,119.865086478,visual,2017_Nov_01_1228,
3,3,C.png,44,522,S,,,,,,,,0,17,17,17,,,,,,,,,,,,,None,,,,,,,,3,12,008,G,119.865086478,visual,2017_Nov_01_1228,
1,1,M.png,44,523,S,,,,,,,,0,18,18,18,,,,,,,,,,,,,None,,,,,,,,3,12,008,G,119.865086478,visual,2017_Nov_01_1228,
1,2,K.png,44,524,S,,,,,,,,0,19,19,19,,,,,,,,,,,,,None,,,,,,,,3,12,008,G,119.865086478,visual,2017_Nov_01_1228,
1,3,B.png,44,525,S,,,,,,,,0,20,20,20,,,,,,,,,,,,,None,,,,,,,,3,12,008,G,119.865086478,visual,2017_Nov_01_1228,
2,1,A.png,44,526,S,,,,,,,,0,21,21,21,,,,,,,,,,,,,None,,,,,,,,3,12,008,G,119.865086478,visual,2017_Nov_01_1228,
2,2,J.png,44,527,S,,,,,,,,0,22,22,22,,,,,,,,,,,,,None,,,,,,,,3,12,008,G,119.865086478,visual,2017_Nov_01_1228,
2,3,F.png,44,528,S,,,,,,,,0,23,23,23,,,,,,,,,,,,,None,,,,,,,,3,12,008,G,119.865086478,visual,2017_Nov_01_1228,
0,1,Alien3.bmp,1,529,R,,,,,,,,,,,,0,0,0,0,,,,,,,,,,,None,,,,,,3,12,008,G,119.865086478,visual,2017_Nov_01_1228,
0,2,Alien4.bmp,1,530,R,,,,,,,,,,,,0,1,1,1,,,,,,,,,,,None,,,,,,3,12,008,G,119.865086478,visual,2017_Nov_01_1228,
0,3,Alien10.bmp,1,531,R,,,,,,,,,,,,0,2,2,2,,,,,,,,,,,None,,,,,,3,12,008,G,119.865086478,visual,2017_Nov_01_1228,
0,1,Alien7.bmp,1,532,R,,,,,,,,,,,,0,3,3,3,,,,,,,,,,,None,,,,,,3,12,008,G,119.865086478,visual,2017_Nov_01_1228,
0,2,Alien7.bmp,1,533,R,,,,,,,,,,,,0,4,4,4,,,,,,,,,,,None,,,,,,3,12,008,G,119.865086478,visual,2017_Nov_01_1228,
0,3,Alien12.bmp,1,534,R,,,,,,,,,,,,0,5,5,5,,,,,,,,,,,3,0.433635953261,,,,,3,12,008,G,119.865086478,visual,2017_Nov_01_1228,
0,1,Alien8.bmp,1,535,R,,,,,,,,,,,,0,6,6,6,,,,,,,,,,,None,,,,,,3,12,008,G,119.865086478,visual,2017_Nov_01_1228,
0,2,Alien5.bmp,1,536,R,,,,,,,,,,,,0,7,7,7,,,,,,,,,,,None,,,,,,3,12,008,G,119.865086478,visual,2017_Nov_01_1228,
0,3,Alien11.bmp,1,537,R,,,,,,,,,,,,0,8,8,8,,,,,,,,,,,None,,,,,,3,12,008,G,119.865086478,visual,2017_Nov_01_1228,
0,1,Alien6.bmp,1,538,R,,,,,,,,,,,,0,9,9,9,,,,,,,,,,,None,,,,,,3,12,008,G,119.865086478,visual,2017_Nov_01_1228,
0,2,Alien9.bmp,1,539,R,,,,,,,,,,,,0,10,10,10,,,,,,,,,,,None,,,,,,3,12,008,G,119.865086478,visual,2017_Nov_01_1228,
0,3,Alien4.bmp,1,540,R,,,,,,,,,,,,0,11,11,11,,,,,,,,,,,None,,,,,,3,12,008,G,119.865086478,visual,2017_Nov_01_1228,
0,1,Alien1.bmp,1,541,R,,,,,,,,,,,,0,12,12,12,,,,,,,,,,,None,,,,,,3,12,008,G,119.865086478,visual,2017_Nov_01_1228,
0,2,Alien5.bmp,1,542,R,,,,,,,,,,,,0,13,13,13,,,,,,,,,,,None,,,,,,3,12,008,G,119.865086478,visual,2017_Nov_01_1228,
0,3,Alien12.bmp,1,543,R,,,,,,,,,,,,0,14,14,14,,,,,,,,,,,3,0.383614207516,,,,,3,12,008,G,119.865086478,visual,2017_Nov_01_1228,
0,1,Alien9.bmp,1,544,R,,,,,,,,,,,,0,15,15,15,,,,,,,,,,,None,,,,,,3,12,008,G,119.865086478,visual,2017_Nov_01_1228,
0,2,Alien9.bmp,1,545,R,,,,,,,,,,,,0,16,16,16,,,,,,,,,,,None,,,,,,3,12,008,G,119.865086478,visual,2017_Nov_01_1228,
0,3,Alien2.bmp,1,546,R,,,,,,,,,,,,0,17,17,17,,,,,,,,,,,None,,,,,,3,12,008,G,119.865086478,visual,2017_Nov_01_1228,
0,1,Alien8.bmp,1,547,R,,,,,,,,,,,,0,18,18,18,,,,,,,,,,,None,,,,,,3,12,008,G,119.865086478,visual,2017_Nov_01_1228,
0,2,Alien11.bmp,1,548,R,,,,,,,,,,,,0,19,19,19,,,,,,,,,,,None,,,,,,3,12,008,G,119.865086478,visual,2017_Nov_01_1228,
0,3,Alien6.bmp,1,549,R,,,,,,,,,,,,0,20,20,20,,,,,,,,,,,None,,,,,,3,12,008,G,119.865086478,visual,2017_Nov_01_1228,
0,1,Alien8.bmp,1,550,R,,,,,,,,,,,,0,21,21,21,,,,,,,,,,,None,,,,,,3,12,008,G,119.865086478,visual,2017_Nov_01_1228,
0,2,Alien7.bmp,1,551,R,,,,,,,,,,,,0,22,22,22,,,,,,,,,,,None,,,,,,3,12,008,G,119.865086478,visual,2017_Nov_01_1228,
0,3,Alien10.bmp,1,552,R,,,,,,,,,,,,0,23,23,23,,,,,,,,,,,None,,,,,,3,12,008,G,119.865086478,visual,2017_Nov_01_1228,
4,1,E.png,45,529,S,,,,,,,,0,0,0,0,,,,,,,,,,,,,None,,,,,,,,3,12,008,G,119.865086478,visual,2017_Nov_01_1228,
4,2,L.png,45,530,S,,,,,,,,0,1,1,1,,,,,,,,,,,,,None,,,,,,,,3,12,008,G,119.865086478,visual,2017_Nov_01_1228,
4,3,H.png,45,531,S,,,,,,,,0,2,2,2,,,,,,,,,,,,,None,,,,,,,,3,12,008,G,119.865086478,visual,2017_Nov_01_1228,
1,1,M.png,45,532,S,,,,,,,,0,3,3,3,,,,,,,,,,,,,None,,,,,,,,3,12,008,G,119.865086478,visual,2017_Nov_01_1228,
1,2,K.png,45,533,S,,,,,,,,0,4,4,4,,,,,,,,,,,,,None,,,,,,,,3,12,008,G,119.865086478,visual,2017_Nov_01_1228,
1,3,B.png,45,534,S,,,,,,,,0,5,5,5,,,,,,,,,,,,,None,,,,,,,,3,12,008,G,119.865086478,visual,2017_Nov_01_1228,
3,1,D.png,45,535,S,,,,,,,,0,6,6,6,,,,,,,,,,,,,None,,,,,,,,3,12,008,G,119.865086478,visual,2017_Nov_01_1228,
3,2,G.png,45,536,S,,,,,,,,0,7,7,7,,,,,,,,,,,,,3,0.0897969667421,,,,,,,3,12,008,G,119.865086478,visual,2017_Nov_01_1228,
3,3,C.png,45,537,S,,,,,,,,0,8,8,8,,,,,,,,,,,,,None,,,,,,,,3,12,008,G,119.865086478,visual,2017_Nov_01_1228,
4,1,E.png,46,538,S,,,,,,,,0,9,9,9,,,,,,,,,,,,,None,,,,,,,,3,12,008,G,119.865086478,visual,2017_Nov_01_1228,
4,2,L.png,46,539,S,,,,,,,,0,10,10,10,,,,,,,,,,,,,None,,,,,,,,3,12,008,G,119.865086478,visual,2017_Nov_01_1228,
4,3,H.png,46,540,S,,,,,,,,0,11,11,11,,,,,,,,,,,,,None,,,,,,,,3,12,008,G,119.865086478,visual,2017_Nov_01_1228,
1,1,M.png,46,541,S,,,,,,,,0,12,12,12,,,,,,,,,,,,,None,,,,,,,,3,12,008,G,119.865086478,visual,2017_Nov_01_1228,
1,2,K.png,46,542,S,,,,,,,,0,13,13,13,,,,,,,,,,,,,None,,,,,,,,3,12,008,G,119.865086478,visual,2017_Nov_01_1228,
1,3,B.png,46,543,S,,,,,,,,0,14,14,14,,,,,,,,,,,,,None,,,,,,,,3,12,008,G,119.865086478,visual,2017_Nov_01_1228,
3,1,D.png,46,544,S,,,,,,,,0,15,15,15,,,,,,,,,,,,,None,,,,,,,,3,12,008,G,119.865086478,visual,2017_Nov_01_1228,
3,2,G.png,46,545,S,,,,,,,,0,16,16,16,,,,,,,,,,,,,3,0.0147535392607,,,,,,,3,12,008,G,119.865086478,visual,2017_Nov_01_1228,
3,3,C.png,46,546,S,,,,,,,,0,17,17,17,,,,,,,,,,,,,None,,,,,,,,3,12,008,G,119.865086478,visual,2017_Nov_01_1228,
2,1,A.png,45,547,S,,,,,,,,0,18,18,18,,,,,,,,,,,,,None,,,,,,,,3,12,008,G,119.865086478,visual,2017_Nov_01_1228,
2,2,J.png,45,548,S,,,,,,,,0,19,19,19,,,,,,,,,,,,,None,,,,,,,,3,12,008,G,119.865086478,visual,2017_Nov_01_1228,
2,3,F.png,45,549,S,,,,,,,,0,20,20,20,,,,,,,,,,,,,None,,,,,,,,3,12,008,G,119.865086478,visual,2017_Nov_01_1228,
4,1,E.png,47,550,S,,,,,,,,0,21,21,21,,,,,,,,,,,,,None,,,,,,,,3,12,008,G,119.865086478,visual,2017_Nov_01_1228,
4,2,L.png,47,551,S,,,,,,,,0,22,22,22,,,,,,,,,,,,,None,,,,,,,,3,12,008,G,119.865086478,visual,2017_Nov_01_1228,
4,3,H.png,47,552,S,,,,,,,,0,23,23,23,,,,,,,,,,,,,None,,,,,,,,3,12,008,G,119.865086478,visual,2017_Nov_01_1228,
0,1,Alien10.bmp,1,553,R,,,,,,,,,,,,0,0,0,0,,,,,,,,,,,None,,,,,,3,12,008,G,119.865086478,visual,2017_Nov_01_1228,
0,2,Alien2.bmp,1,554,R,,,,,,,,,,,,0,1,1,1,,,,,,,,,,,None,,,,,,3,12,008,G,119.865086478,visual,2017_Nov_01_1228,
0,3,Alien10.bmp,1,555,R,,,,,,,,,,,,0,2,2,2,,,,,,,,,,,None,,,,,,3,12,008,G,119.865086478,visual,2017_Nov_01_1228,
0,1,Alien5.bmp,1,556,R,,,,,,,,,,,,0,3,3,3,,,,,,,,,,,None,,,,,,3,12,008,G,119.865086478,visual,2017_Nov_01_1228,
0,2,Alien2.bmp,1,557,R,,,,,,,,,,,,0,4,4,4,,,,,,,,,,,None,,,,,,3,12,008,G,119.865086478,visual,2017_Nov_01_1228,
0,3,Alien6.bmp,1,558,R,,,,,,,,,,,,0,5,5,5,,,,,,,,,,,None,,,,,,3,12,008,G,119.865086478,visual,2017_Nov_01_1228,
0,1,Alien3.bmp,1,559,R,,,,,,,,,,,,0,6,6,6,,,,,,,,,,,None,,,,,,3,12,008,G,119.865086478,visual,2017_Nov_01_1228,
0,2,Alien3.bmp,1,560,R,,,,,,,,,,,,0,7,7,7,,,,,,,,,,,None,,,,,,3,12,008,G,119.865086478,visual,2017_Nov_01_1228,
0,3,Alien3.bmp,1,561,R,,,,,,,,,,,,0,8,8,8,,,,,,,,,,,None,,,,,,3,12,008,G,119.865086478,visual,2017_Nov_01_1228,
0,1,Alien12.bmp,1,562,R,,,,,,,,,,,,0,9,9,9,,,,,,,,,,,3,0.650354943398,,,,,3,12,008,G,119.865086478,visual,2017_Nov_01_1228,
0,2,Alien1.bmp,1,563,R,,,,,,,,,,,,0,10,10,10,,,,,,,,,,,None,,,,,,3,12,008,G,119.865086478,visual,2017_Nov_01_1228,
0,3,Alien7.bmp,1,564,R,,,,,,,,,,,,0,11,11,11,,,,,,,,,,,None,,,,,,3,12,008,G,119.865086478,visual,2017_Nov_01_1228,
0,1,Alien4.bmp,1,565,R,,,,,,,,,,,,0,12,12,12,,,,,,,,,,,None,,,,,,3,12,008,G,119.865086478,visual,2017_Nov_01_1228,
0,2,Alien2.bmp,1,566,R,,,,,,,,,,,,0,13,13,13,,,,,,,,,,,None,,,,,,3,12,008,G,119.865086478,visual,2017_Nov_01_1228,
0,3,Alien4.bmp,1,567,R,,,,,,,,,,,,0,14,14,14,,,,,,,,,,,None,,,,,,3,12,008,G,119.865086478,visual,2017_Nov_01_1228,
0,1,Alien11.bmp,1,568,R,,,,,,,,,,,,0,15,15,15,,,,,,,,,,,None,,,,,,3,12,008,G,119.865086478,visual,2017_Nov_01_1228,
0,2,Alien9.bmp,1,569,R,,,,,,,,,,,,0,16,16,16,,,,,,,,,,,None,,,,,,3,12,008,G,119.865086478,visual,2017_Nov_01_1228,
0,3,Alien6.bmp,1,570,R,,,,,,,,,,,,0,17,17,17,,,,,,,,,,,None,,,,,,3,12,008,G,119.865086478,visual,2017_Nov_01_1228,
0,1,Alien1.bmp,1,571,R,,,,,,,,,,,,0,18,18,18,,,,,,,,,,,None,,,,,,3,12,008,G,119.865086478,visual,2017_Nov_01_1228,
0,2,Alien12.bmp,1,572,R,,,,,,,,,,,,0,19,19,19,,,,,,,,,,,3,0.725325837673,,,,,3,12,008,G,119.865086478,visual,2017_Nov_01_1228,
0,3,Alien11.bmp,1,573,R,,,,,,,,,,,,0,20,20,20,,,,,,,,,,,None,,,,,,3,12,008,G,119.865086478,visual,2017_Nov_01_1228,
0,1,Alien8.bmp,1,574,R,,,,,,,,,,,,0,21,21,21,,,,,,,,,,,None,,,,,,3,12,008,G,119.865086478,visual,2017_Nov_01_1228,
0,2,Alien5.bmp,1,575,R,,,,,,,,,,,,0,22,22,22,,,,,,,,,,,None,,,,,,3,12,008,G,119.865086478,visual,2017_Nov_01_1228,
0,3,Alien1.bmp,1,576,R,,,,,,,,,,,,0,23,23,23,,,,,,,,,,,None,,,,,,3,12,008,G,119.865086478,visual,2017_Nov_01_1228,
2,1,A.png,46,553,S,,,,,,,,0,0,0,0,,,,,,,,,,,,,None,,,,,,,,3,12,008,G,119.865086478,visual,2017_Nov_01_1228,
2,2,J.png,46,554,S,,,,,,,,0,1,1,1,,,,,,,,,,,,,None,,,,,,,,3,12,008,G,119.865086478,visual,2017_Nov_01_1228,
2,3,F.png,46,555,S,,,,,,,,0,2,2,2,,,,,,,,,,,,,None,,,,,,,,3,12,008,G,119.865086478,visual,2017_Nov_01_1228,
3,1,D.png,47,556,S,,,,,,,,0,3,3,3,,,,,,,,,,,,,3,0.51485608131,,,,,,,3,12,008,G,119.865086478,visual,2017_Nov_01_1228,
3,2,G.png,47,557,S,,,,,,,,0,4,4,4,,,,,,,,,,,,,3,0.24815772759,,,,,,,3,12,008,G,119.865086478,visual,2017_Nov_01_1228,
3,3,C.png,47,558,S,,,,,,,,0,5,5,5,,,,,,,,,,,,,None,,,,,,,,3,12,008,G,119.865086478,visual,2017_Nov_01_1228,
1,1,M.png,47,559,S,,,,,,,,0,6,6,6,,,,,,,,,,,,,None,,,,,,,,3,12,008,G,119.865086478,visual,2017_Nov_01_1228,
1,2,K.png,47,560,S,,,,,,,,0,7,7,7,,,,,,,,,,,,,None,,,,,,,,3,12,008,G,119.865086478,visual,2017_Nov_01_1228,
1,3,B.png,47,561,S,,,,,,,,0,8,8,8,,,,,,,,,,,,,None,,,,,,,,3,12,008,G,119.865086478,visual,2017_Nov_01_1228,
2,1,A.png,47,562,S,,,,,,,,0,9,9,9,,,,,,,,,,,,,None,,,,,,,,3,12,008,G,119.865086478,visual,2017_Nov_01_1228,
2,2,J.png,47,563,S,,,,,,,,0,10,10,10,,,,,,,,,,,,,None,,,,,,,,3,12,008,G,119.865086478,visual,2017_Nov_01_1228,
2,3,F.png,47,564,S,,,,,,,,0,11,11,11,,,,,,,,,,,,,None,,,,,,,,3,12,008,G,119.865086478,visual,2017_Nov_01_1228,
3,1,D.png,48,565,S,,,,,,,,0,12,12,12,,,,,,,,,,,,,None,,,,,,,,3,12,008,G,119.865086478,visual,2017_Nov_01_1228,
3,2,G.png,48,566,S,,,,,,,,0,13,13,13,,,,,,,,,,,,,3,0.0648111249466,,,,,,,3,12,008,G,119.865086478,visual,2017_Nov_01_1228,
3,3,C.png,48,567,S,,,,,,,,0,14,14,14,,,,,,,,,,,,,None,,,,,,,,3,12,008,G,119.865086478,visual,2017_Nov_01_1228,
4,1,E.png,48,568,S,,,,,,,,0,15,15,15,,,,,,,,,,,,,None,,,,,,,,3,12,008,G,119.865086478,visual,2017_Nov_01_1228,
4,2,L.png,48,569,S,,,,,,,,0,16,16,16,,,,,,,,,,,,,None,,,,,,,,3,12,008,G,119.865086478,visual,2017_Nov_01_1228,
4,3,H.png,48,570,S,,,,,,,,0,17,17,17,,,,,,,,,,,,,None,,,,,,,,3,12,008,G,119.865086478,visual,2017_Nov_01_1228,
1,1,M.png,48,571,S,,,,,,,,0,18,18,18,,,,,,,,,,,,,None,,,,,,,,3,12,008,G,119.865086478,visual,2017_Nov_01_1228,
1,2,K.png,48,572,S,,,,,,,,0,19,19,19,,,,,,,,,,,,,None,,,,,,,,3,12,008,G,119.865086478,visual,2017_Nov_01_1228,
1,3,B.png,48,573,S,,,,,,,,0,20,20,20,,,,,,,,,,,,,None,,,,,,,,3,12,008,G,119.865086478,visual,2017_Nov_01_1228,
2,1,A.png,48,574,S,,,,,,,,0,21,21,21,,,,,,,,,,,,,None,,,,,,,,3,12,008,G,119.865086478,visual,2017_Nov_01_1228,
2,2,J.png,48,575,S,,,,,,,,0,22,22,22,,,,,,,,,,,,,None,,,,,,,,3,12,008,G,119.865086478,visual,2017_Nov_01_1228,
2,3,F.png,48,576,S,,,,,,,,0,23,23,23,,,,,,,,,,,,,None,,,,,,,,3,12,008,G,119.865086478,visual,2017_Nov_01_1228,
,,,,,,G.png,C.png,D.png,B.png,J.png,E.png,4,,,,,,,,,,,,,0,0,0,25,,,,,,3,0,6.80976018246,3,12,008,G,119.865086478,visual,2017_Nov_01_1228,
,,,,,,H.png,L.png,E.png,F.png,L.png,D.png,4,,,,,,,,,,,,,0,1,1,30,,,,,,3,0,2.72565664598,3,12,008,G,119.865086478,visual,2017_Nov_01_1228,
,,,,,,B.png,J.png,E.png,B.png,K.png,M.png,3,,,,,,,,,,,,,0,2,2,16,,,,,,3,1,0.875360354941,3,12,008,G,119.865086478,visual,2017_Nov_01_1228,
,,,,,,F.png,L.png,D.png,F.png,J.png,A.png,3,,,,,,,,,,,,,0,3,3,19,,,,,,3,1,0.727019416998,3,12,008,G,119.865086478,visual,2017_Nov_01_1228,
,,,,,,H.png,C.png,M.png,F.png,J.png,A.png,3,,,,,,,,,,,,,0,4,4,5,,,,,,3,1,0.858696490046,3,12,008,G,119.865086478,visual,2017_Nov_01_1228,
,,,,,,G.png,K.png,A.png,G.png,C.png,D.png,3,,,,,,,,,,,,,0,5,5,21,,,,,,4,0,14.0110810833,3,12,008,G,119.865086478,visual,2017_Nov_01_1228,
,,,,,,F.png,L.png,D.png,H.png,L.png,E.png,3,,,,,,,,,,,,,0,6,6,10,,,,,,3,1,0.758802331649,3,12,008,G,119.865086478,visual,2017_Nov_01_1228,
,,,,,,G.png,C.png,D.png,H.png,C.png,M.png,4,,,,,,,,,,,,,0,7,7,7,,,,,,4,1,0.533664938092,3,12,008,G,119.865086478,visual,2017_Nov_01_1228,
,,,,,,B.png,K.png,M.png,B.png,J.png,E.png,4,,,,,,,,,,,,,0,8,8,8,,,,,,4,1,1.87555292351,3,12,008,G,119.865086478,visual,2017_Nov_01_1228,
,,,,,,B.png,K.png,M.png,G.png,K.png,A.png,4,,,,,,,,,,,,,0,9,9,14,,,,,,4,1,0.423709427982,3,12,008,G,119.865086478,visual,2017_Nov_01_1228,
,,,,,,H.png,C.png,M.png,G.png,C.png,D.png,3,,,,,,,,,,,,,0,10,10,17,,,,,,3,1,0.341932643089,3,12,008,G,119.865086478,visual,2017_Nov_01_1228,
,,,,,,G.png,C.png,D.png,G.png,K.png,A.png,4,,,,,,,,,,,,,0,11,11,27,,,,,,4,1,0.266929891106,3,12,008,G,119.865086478,visual,2017_Nov_01_1228,
,,,,,,F.png,L.png,D.png,G.png,C.png,D.png,3,,,,,,,,,,,,,0,12,12,6,,,,,,3,1,0.250201172996,3,12,008,G,119.865086478,visual,2017_Nov_01_1228,
,,,,,,B.png,K.png,M.png,F.png,L.png,D.png,4,,,,,,,,,,,,,0,13,13,26,,,,,,4,1,0.416826737506,3,12,008,G,119.865086478,visual,2017_Nov_01_1228,
,,,,,,H.png,L.png,E.png,H.png,C.png,M.png,4,,,,,,,,,,,,,0,14,14,4,,,,,,4,1,0.441961343502,3,12,008,G,119.865086478,visual,2017_Nov_01_1228,
,,,,,,G.png,K.png,A.png,B.png,K.png,M.png,3,,,,,,,,,,,,,0,15,15,2,,,,,,3,1,2.17560944252,3,12,008,G,119.865086478,visual,2017_Nov_01_1228,
,,,,,,H.png,L.png,E.png,B.png,J.png,E.png,4,,,,,,,,,,,,,0,16,16,3,,,,,,4,1,0.541965012817,3,12,008,G,119.865086478,visual,2017_Nov_01_1228,
,,,,,,H.png,C.png,M.png,B.png,K.png,M.png,3,,,,,,,,,,,,,0,17,17,28,,,,,,3,1,1.18373572198,3,12,008,G,119.865086478,visual,2017_Nov_01_1228,
,,,,,,B.png,J.png,E.png,H.png,L.png,E.png,3,,,,,,,,,,,,,0,18,18,12,,,,,,4,0,2.00889626925,3,12,008,G,119.865086478,visual,2017_Nov_01_1228,
,,,,,,G.png,K.png,A.png,H.png,L.png,E.png,3,,,,,,,,,,,,,0,19,19,18,,,,,,3,1,0.975399579766,3,12,008,G,119.865086478,visual,2017_Nov_01_1228,
,,,,,,F.png,L.png,D.png,B.png,K.png,M.png,3,,,,,,,,,,,,,0,20,20,31,,,,,,3,1,0.325268778208,3,12,008,G,119.865086478,visual,2017_Nov_01_1228,
,,,,,,G.png,C.png,D.png,F.png,L.png,D.png,4,,,,,,,,,,,,,0,21,21,29,,,,,,4,1,2.81738100501,3,12,008,G,119.865086478,visual,2017_Nov_01_1228,
,,,,,,F.png,J.png,A.png,G.png,K.png,A.png,4,,,,,,,,,,,,,0,22,22,11,,,,,,4,1,0.341987540785,3,12,008,G,119.865086478,visual,2017_Nov_01_1228,
,,,,,,B.png,J.png,E.png,F.png,J.png,A.png,3,,,,,,,,,,,,,0,23,23,24,,,,,,4,0,0.475293624389,3,12,008,G,119.865086478,visual,2017_Nov_01_1228,
,,,,,,F.png,J.png,A.png,F.png,L.png,D.png,4,,,,,,,,,,,,,0,24,24,23,,,,,,4,1,0.450287302621,3,12,008,G,119.865086478,visual,2017_Nov_01_1228,
,,,,,,G.png,K.png,A.png,F.png,J.png,A.png,3,,,,,,,,,,,,,0,25,25,0,,,,,,3,1,0.833693581604,3,12,008,G,119.865086478,visual,2017_Nov_01_1228,
,,,,,,B.png,J.png,E.png,G.png,C.png,D.png,3,,,,,,,,,,,,,0,26,26,13,,,,,,4,0,1.75052871021,3,12,008,G,119.865086478,visual,2017_Nov_01_1228,
,,,,,,B.png,K.png,M.png,H.png,C.png,M.png,4,,,,,,,,,,,,,0,27,27,9,,,,,,4,1,0.300280091964,3,12,008,G,119.865086478,visual,2017_Nov_01_1228,
,,,,,,H.png,L.png,E.png,G.png,K.png,A.png,4,,,,,,,,,,,,,0,28,28,15,,,,,,4,1,0.366952902623,3,12,008,G,119.865086478,visual,2017_Nov_01_1228,
,,,,,,F.png,J.png,A.png,B.png,J.png,E.png,4,,,,,,,,,,,,,0,29,29,20,,,,,,4,1,1.49215233341,3,12,008,G,119.865086478,visual,2017_Nov_01_1228,
,,,,,,F.png,J.png,A.png,H.png,C.png,M.png,4,,,,,,,,,,,,,0,30,30,22,,,,,,4,1,0.233606712427,3,12,008,G,119.865086478,visual,2017_Nov_01_1228,
,,,,,,H.png,C.png,M.png,H.png,L.png,E.png,3,,,,,,,,,,,,,0,31,31,1,,,,,,3,1,0.383575807587,3,12,008,G,119.865086478,visual,2017_Nov_01_1228,
