"","soundFile","trialnum","condition","random_block_key_resp.rt","random_block_key_resp.keys","structured_block_key_resp.rt","structured_block_key_resp.keys","starget","Run","PartID","ttarget","expName"
"1","bi.wav",193,"R",NA,"None",NA,"","du",5,7,"2C","auditory"
"2","ba.wav",194,"R",NA,"None",NA,"","du",5,7,"2C","auditory"
"3","bi.wav",195,"R",NA,"None",NA,"","du",5,7,"2C","auditory"
"4","ta.wav",196,"R",NA,"None",NA,"","du",5,7,"2C","auditory"
"5","pa.wav",197,"R",NA,"None",NA,"","du",5,7,"2C","auditory"
"6","du.wav",198,"R",NA,"None",NA,"","du",5,7,"2C","auditory"
"7","da.wav",199,"R",NA,"None",NA,"","du",5,7,"2C","auditory"
"8","tu.wav",200,"R",NA,"None",NA,"","du",5,7,"2C","auditory"
"9","bu.wav",201,"R",NA,"None",NA,"","du",5,7,"2C","auditory"
"10","pu.wav",202,"R",NA,"None",NA,"","du",5,7,"2C","auditory"
"11","ti.wav",203,"R",NA,"None",NA,"","du",5,7,"2C","auditory"
"12","pi.wav",204,"R",NA,"None",NA,"","du",5,7,"2C","auditory"
"13","bu.wav",205,"R",NA,"None",NA,"","du",5,7,"2C","auditory"
"14","tu.wav",206,"R",NA,"None",NA,"","du",5,7,"2C","auditory"
"15","ba.wav",207,"R",NA,"None",NA,"","du",5,7,"2C","auditory"
"16","pi.wav",208,"R",NA,"None",NA,"","du",5,7,"2C","auditory"
"17","di.wav",209,"R",NA,"None",NA,"","du",5,7,"2C","auditory"
"18","da.wav",210,"R",NA,"None",NA,"","du",5,7,"2C","auditory"
"19","du.wav",211,"R",NA,"None",NA,"","du",5,7,"2C","auditory"
"20","di.wav",212,"R",0.251425127732,"2",NA,"","du",5,7,"2C","auditory"
"21","pu.wav",213,"R",NA,"None",NA,"","du",5,7,"2C","auditory"
"22","ti.wav",214,"R",NA,"None",NA,"","du",5,7,"2C","auditory"
"23","pa.wav",215,"R",NA,"None",NA,"","du",5,7,"2C","auditory"
"24","ta.wav",216,"R",NA,"None",NA,"","du",5,7,"2C","auditory"
"25","3A.wav",193,"S",NA,"",NA,"None","du",5,7,"2C","auditory"
"26","3B.wav",194,"S",NA,"",NA,"None","du",5,7,"2C","auditory"
"27","3C.wav",195,"S",NA,"",NA,"None","du",5,7,"2C","auditory"
"28","2A.wav",196,"S",NA,"",NA,"None","du",5,7,"2C","auditory"
"29","2B.wav",197,"S",NA,"",NA,"None","du",5,7,"2C","auditory"
"30","2C.wav",198,"S",NA,"",NA,"None","du",5,7,"2C","auditory"
"31","1A.wav",199,"S",NA,"",NA,"None","du",5,7,"2C","auditory"
"32","1B.wav",200,"S",NA,"",0.0665964854416,"2","du",5,7,"2C","auditory"
"33","1C.wav",201,"S",NA,"",NA,"None","du",5,7,"2C","auditory"
"34","4A.wav",202,"S",NA,"",NA,"None","du",5,7,"2C","auditory"
"35","4B.wav",203,"S",NA,"",NA,"None","du",5,7,"2C","auditory"
"36","4C.wav",204,"S",NA,"",NA,"None","du",5,7,"2C","auditory"
"37","2A.wav",205,"S",NA,"",NA,"None","du",5,7,"2C","auditory"
"38","2B.wav",206,"S",NA,"",NA,"None","du",5,7,"2C","auditory"
"39","2C.wav",207,"S",NA,"",NA,"None","du",5,7,"2C","auditory"
"40","3A.wav",208,"S",NA,"",0.237546569319,"2","du",5,7,"2C","auditory"
"41","3B.wav",209,"S",NA,"",NA,"None","du",5,7,"2C","auditory"
"42","3C.wav",210,"S",NA,"",NA,"None","du",5,7,"2C","auditory"
"43","1A.wav",211,"S",NA,"",NA,"None","du",5,7,"2C","auditory"
"44","1B.wav",212,"S",NA,"",NA,"None","du",5,7,"2C","auditory"
"45","1C.wav",213,"S",NA,"",NA,"None","du",5,7,"2C","auditory"
"46","4A.wav",214,"S",NA,"",NA,"None","du",5,7,"2C","auditory"
"47","4B.wav",215,"S",NA,"",NA,"None","du",5,7,"2C","auditory"
"48","4C.wav",216,"S",NA,"",NA,"None","du",5,7,"2C","auditory"
"49","bi.wav",217,"R",NA,"None",NA,"","du",5,7,"2C","auditory"
"50","du.wav",218,"R",NA,"None",NA,"","du",5,7,"2C","auditory"
"51","ti.wav",219,"R",0.434835513937,"2",NA,"","du",5,7,"2C","auditory"
"52","du.wav",220,"R",NA,"None",NA,"","du",5,7,"2C","auditory"
"53","pi.wav",221,"R",0.285262241843,"2",NA,"","du",5,7,"2C","auditory"
"54","ba.wav",222,"R",NA,"None",NA,"","du",5,7,"2C","auditory"
"55","bu.wav",223,"R",NA,"None",NA,"","du",5,7,"2C","auditory"
"56","pa.wav",224,"R",NA,"None",NA,"","du",5,7,"2C","auditory"
"57","pi.wav",225,"R",NA,"None",NA,"","du",5,7,"2C","auditory"
"58","pa.wav",226,"R",NA,"None",NA,"","du",5,7,"2C","auditory"
"59","ti.wav",227,"R",NA,"None",NA,"","du",5,7,"2C","auditory"
"60","da.wav",228,"R",NA,"None",NA,"","du",5,7,"2C","auditory"
"61","pu.wav",229,"R",NA,"None",NA,"","du",5,7,"2C","auditory"
"62","bu.wav",230,"R",NA,"None",NA,"","du",5,7,"2C","auditory"
"63","bi.wav",231,"R",0.0344968064455,"2",NA,"","du",5,7,"2C","auditory"
"64","di.wav",232,"R",NA,"None",NA,"","du",5,7,"2C","auditory"
"65","da.wav",233,"R",NA,"None",NA,"","du",5,7,"2C","auditory"
"66","pa.wav",234,"R",NA,"None",NA,"","du",5,7,"2C","auditory"
"67","ta.wav",235,"R",NA,"None",NA,"","du",5,7,"2C","auditory"
"68","da.wav",236,"R",NA,"None",NA,"","du",5,7,"2C","auditory"
"69","ta.wav",237,"R",NA,"None",NA,"","du",5,7,"2C","auditory"
"70","tu.wav",238,"R",NA,"None",NA,"","du",5,7,"2C","auditory"
"71","bu.wav",239,"R",NA,"None",NA,"","du",5,7,"2C","auditory"
"72","tu.wav",240,"R",NA,"None",NA,"","du",5,7,"2C","auditory"
"73","3A.wav",217,"S",NA,"",NA,"None","du",5,7,"2C","auditory"
"74","3B.wav",218,"S",NA,"",NA,"None","du",5,7,"2C","auditory"
"75","3C.wav",219,"S",NA,"",NA,"None","du",5,7,"2C","auditory"
"76","4A.wav",220,"S",NA,"",NA,"None","du",5,7,"2C","auditory"
"77","4B.wav",221,"S",NA,"",NA,"None","du",5,7,"2C","auditory"
"78","4C.wav",222,"S",NA,"",NA,"None","du",5,7,"2C","auditory"
"79","2A.wav",223,"S",NA,"",NA,"None","du",5,7,"2C","auditory"
"80","2B.wav",224,"S",NA,"",NA,"None","du",5,7,"2C","auditory"
"81","2C.wav",225,"S",NA,"",NA,"None","du",5,7,"2C","auditory"
"82","1A.wav",226,"S",NA,"",NA,"None","du",5,7,"2C","auditory"
"83","1B.wav",227,"S",NA,"",NA,"None","du",5,7,"2C","auditory"
"84","1C.wav",228,"S",NA,"",NA,"None","du",5,7,"2C","auditory"
"85","2A.wav",229,"S",NA,"",NA,"None","du",5,7,"2C","auditory"
"86","2B.wav",230,"S",NA,"",NA,"None","du",5,7,"2C","auditory"
"87","2C.wav",231,"S",NA,"",NA,"None","du",5,7,"2C","auditory"
"88","4A.wav",232,"S",NA,"",NA,"None","du",5,7,"2C","auditory"
"89","4B.wav",233,"S",NA,"",NA,"None","du",5,7,"2C","auditory"
"90","4C.wav",234,"S",NA,"",NA,"None","du",5,7,"2C","auditory"
"91","3A.wav",235,"S",NA,"",NA,"None","du",5,7,"2C","auditory"
"92","3B.wav",236,"S",NA,"",NA,"None","du",5,7,"2C","auditory"
"93","3C.wav",237,"S",NA,"",0.384727637051,"2","du",5,7,"2C","auditory"
"94","1A.wav",238,"S",NA,"",NA,"None","du",5,7,"2C","auditory"
"95","1B.wav",239,"S",NA,"",NA,"None","du",5,7,"2C","auditory"
"96","1C.wav",240,"S",NA,"",NA,"None","du",5,7,"2C","auditory"
"97","silence.wav",0,"B",NA,"",NA,"None","du",5,7,"2C","auditory"
"98","silence.wav",0,"B",NA,"",NA,"None","du",5,7,"2C","auditory"
"99","silence.wav",0,"B",NA,"",NA,"None","du",5,7,"2C","auditory"
"100","silence.wav",0,"B",NA,"",NA,"None","du",5,7,"2C","auditory"
"101","silence.wav",0,"B",NA,"",NA,"None","du",5,7,"2C","auditory"
"102","silence.wav",0,"B",NA,"",NA,"None","du",5,7,"2C","auditory"
"103","silence.wav",0,"B",NA,"",NA,"None","du",5,7,"2C","auditory"
"104","silence.wav",0,"B",NA,"",NA,"None","du",5,7,"2C","auditory"
"105","silence.wav",0,"B",NA,"",NA,"None","du",5,7,"2C","auditory"
"106","silence.wav",0,"B",NA,"",NA,"None","du",5,7,"2C","auditory"
"107","silence.wav",0,"B",NA,"",NA,"None","du",5,7,"2C","auditory"
"108","silence.wav",0,"B",NA,"",NA,"None","du",5,7,"2C","auditory"
"109","ti.wav",241,"R",NA,"None",NA,"","du",5,7,"2C","auditory"
"110","ba.wav",242,"R",NA,"None",NA,"","du",5,7,"2C","auditory"
"111","di.wav",243,"R",NA,"None",NA,"","du",5,7,"2C","auditory"
"112","pu.wav",244,"R",NA,"None",NA,"","du",5,7,"2C","auditory"
"113","pu.wav",245,"R",NA,"None",NA,"","du",5,7,"2C","auditory"
"114","ba.wav",246,"R",NA,"None",NA,"","du",5,7,"2C","auditory"
"115","du.wav",247,"R",NA,"None",NA,"","du",5,7,"2C","auditory"
"116","bi.wav",248,"R",NA,"None",NA,"","du",5,7,"2C","auditory"
"117","bi.wav",249,"R",0.335008683032,"2",NA,"","du",5,7,"2C","auditory"
"118","ta.wav",250,"R",NA,"None",NA,"","du",5,7,"2C","auditory"
"119","ta.wav",251,"R",NA,"None",NA,"","du",5,7,"2C","auditory"
"120","ba.wav",252,"R",NA,"None",NA,"","du",5,7,"2C","auditory"
"121","da.wav",253,"R",NA,"None",NA,"","du",5,7,"2C","auditory"
"122","tu.wav",254,"R",NA,"None",NA,"","du",5,7,"2C","auditory"
"123","di.wav",255,"R",NA,"None",NA,"","du",5,7,"2C","auditory"
"124","ti.wav",256,"R",NA,"None",NA,"","du",5,7,"2C","auditory"
"125","pi.wav",257,"R",NA,"None",NA,"","du",5,7,"2C","auditory"
"126","pu.wav",258,"R",NA,"None",NA,"","du",5,7,"2C","auditory"
"127","pi.wav",259,"R",NA,"None",NA,"","du",5,7,"2C","auditory"
"128","du.wav",260,"R",NA,"None",NA,"","du",5,7,"2C","auditory"
"129","di.wav",261,"R",0.334069606499,"2",NA,"","du",5,7,"2C","auditory"
"130","bu.wav",262,"R",NA,"None",NA,"","du",5,7,"2C","auditory"
"131","pa.wav",263,"R",NA,"None",NA,"","du",5,7,"2C","auditory"
"132","tu.wav",264,"R",NA,"None",NA,"","du",5,7,"2C","auditory"
"133","2A.wav",241,"S",NA,"",NA,"None","du",5,7,"2C","auditory"
"134","2B.wav",242,"S",NA,"",NA,"None","du",5,7,"2C","auditory"
"135","2C.wav",243,"S",NA,"",NA,"None","du",5,7,"2C","auditory"
"136","3A.wav",244,"S",NA,"",NA,"None","du",5,7,"2C","auditory"
"137","3B.wav",245,"S",NA,"",NA,"None","du",5,7,"2C","auditory"
"138","3C.wav",246,"S",NA,"",NA,"None","du",5,7,"2C","auditory"
"139","4A.wav",247,"S",NA,"",NA,"None","du",5,7,"2C","auditory"
"140","4B.wav",248,"S",NA,"",NA,"None","du",5,7,"2C","auditory"
"141","4C.wav",249,"S",NA,"",NA,"None","du",5,7,"2C","auditory"
"142","2A.wav",250,"S",NA,"",NA,"None","du",5,7,"2C","auditory"
"143","2B.wav",251,"S",NA,"",NA,"None","du",5,7,"2C","auditory"
"144","2C.wav",252,"S",NA,"",NA,"None","du",5,7,"2C","auditory"
"145","3A.wav",253,"S",NA,"",NA,"None","du",5,7,"2C","auditory"
"146","3B.wav",254,"S",NA,"",NA,"None","du",5,7,"2C","auditory"
"147","3C.wav",255,"S",NA,"",NA,"None","du",5,7,"2C","auditory"
"148","4A.wav",256,"S",NA,"",NA,"None","du",5,7,"2C","auditory"
"149","4B.wav",257,"S",NA,"",NA,"None","du",5,7,"2C","auditory"
"150","4C.wav",258,"S",NA,"",NA,"None","du",5,7,"2C","auditory"
"151","1A.wav",259,"S",NA,"",NA,"None","du",5,7,"2C","auditory"
"152","1B.wav",260,"S",NA,"",NA,"None","du",5,7,"2C","auditory"
"153","1C.wav",261,"S",NA,"",NA,"None","du",5,7,"2C","auditory"
"154","2A.wav",262,"S",NA,"",NA,"None","du",5,7,"2C","auditory"
"155","2B.wav",263,"S",NA,"",NA,"None","du",5,7,"2C","auditory"
"156","2C.wav",264,"S",NA,"",NA,"None","du",5,7,"2C","auditory"
"157","silence.wav",0,"B",NA,"",NA,"None","du",5,7,"2C","auditory"
"158","silence.wav",0,"B",NA,"",NA,"None","du",5,7,"2C","auditory"
"159","silence.wav",0,"B",NA,"",NA,"None","du",5,7,"2C","auditory"
"160","silence.wav",0,"B",NA,"",NA,"None","du",5,7,"2C","auditory"
"161","silence.wav",0,"B",NA,"",NA,"None","du",5,7,"2C","auditory"
"162","silence.wav",0,"B",NA,"",NA,"None","du",5,7,"2C","auditory"
"163","silence.wav",0,"B",NA,"",NA,"None","du",5,7,"2C","auditory"
"164","silence.wav",0,"B",NA,"",NA,"None","du",5,7,"2C","auditory"
"165","silence.wav",0,"B",NA,"",NA,"None","du",5,7,"2C","auditory"
"166","silence.wav",0,"B",NA,"",NA,"None","du",5,7,"2C","auditory"
"167","silence.wav",0,"B",NA,"",NA,"None","du",5,7,"2C","auditory"
"168","silence.wav",0,"B",NA,"",NA,"None","du",5,7,"2C","auditory"
"169","1A.wav",265,"S",NA,"",NA,"None","du",5,7,"2C","auditory"
"170","1B.wav",266,"S",NA,"",NA,"None","du",5,7,"2C","auditory"
"171","1C.wav",267,"S",NA,"",NA,"None","du",5,7,"2C","auditory"
"172","4A.wav",268,"S",NA,"",NA,"None","du",5,7,"2C","auditory"
"173","4B.wav",269,"S",NA,"",NA,"None","du",5,7,"2C","auditory"
"174","4C.wav",270,"S",NA,"",NA,"None","du",5,7,"2C","auditory"
"175","3A.wav",271,"S",NA,"",0.233654878568,"2","du",5,7,"2C","auditory"
"176","3B.wav",272,"S",NA,"",NA,"None","du",5,7,"2C","auditory"
"177","3C.wav",273,"S",NA,"",0.384380970499,"2","du",5,7,"2C","auditory"
"178","1A.wav",274,"S",NA,"",NA,"None","du",5,7,"2C","auditory"
"179","1B.wav",275,"S",NA,"",NA,"None","du",5,7,"2C","auditory"
"180","1C.wav",276,"S",NA,"",NA,"None","du",5,7,"2C","auditory"
"181","4A.wav",277,"S",NA,"",NA,"None","du",5,7,"2C","auditory"
"182","4B.wav",278,"S",NA,"",NA,"None","du",5,7,"2C","auditory"
"183","4C.wav",279,"S",NA,"",0.333741401555,"2","du",5,7,"2C","auditory"
"184","2A.wav",280,"S",NA,"",NA,"None","du",5,7,"2C","auditory"
"185","2B.wav",281,"S",NA,"",NA,"None","du",5,7,"2C","auditory"
"186","2C.wav",282,"S",NA,"",NA,"None","du",5,7,"2C","auditory"
"187","3A.wav",283,"S",NA,"",0.333735657972,"2","du",5,7,"2C","auditory"
"188","3B.wav",284,"S",NA,"",NA,"None","du",5,7,"2C","auditory"
"189","3C.wav",285,"S",NA,"",NA,"None","du",5,7,"2C","auditory"
"190","1A.wav",286,"S",NA,"",NA,"None","du",5,7,"2C","auditory"
"191","1B.wav",287,"S",NA,"",NA,"None","du",5,7,"2C","auditory"
"192","1C.wav",288,"S",NA,"",NA,"None","du",5,7,"2C","auditory"
"193","silence.wav",0,"B",NA,"",NA,"None","du",5,7,"2C","auditory"
"194","silence.wav",0,"B",NA,"",NA,"None","du",5,7,"2C","auditory"
"195","silence.wav",0,"B",NA,"",NA,"None","du",5,7,"2C","auditory"
"196","silence.wav",0,"B",NA,"",NA,"None","du",5,7,"2C","auditory"
"197","silence.wav",0,"B",NA,"",NA,"None","du",5,7,"2C","auditory"
"198","silence.wav",0,"B",NA,"",NA,"None","du",5,7,"2C","auditory"
"199","silence.wav",0,"B",NA,"",NA,"None","du",5,7,"2C","auditory"
"200","silence.wav",0,"B",NA,"",NA,"None","du",5,7,"2C","auditory"
"201","silence.wav",0,"B",NA,"",NA,"None","du",5,7,"2C","auditory"
"202","silence.wav",0,"B",NA,"",NA,"None","du",5,7,"2C","auditory"
"203","silence.wav",0,"B",NA,"",NA,"None","du",5,7,"2C","auditory"
"204","silence.wav",0,"B",NA,"",NA,"None","du",5,7,"2C","auditory"
"205","3A.wav",289,"S",NA,"",NA,"None","du",5,7,"2C","auditory"
"206","3B.wav",290,"S",NA,"",NA,"None","du",5,7,"2C","auditory"
"207","3C.wav",291,"S",NA,"",NA,"None","du",5,7,"2C","auditory"
"208","1A.wav",292,"S",NA,"",NA,"None","du",5,7,"2C","auditory"
"209","1B.wav",293,"S",NA,"",NA,"None","du",5,7,"2C","auditory"
"210","1C.wav",294,"S",NA,"",NA,"None","du",5,7,"2C","auditory"
"211","4A.wav",295,"S",NA,"",NA,"None","du",5,7,"2C","auditory"
"212","4B.wav",296,"S",NA,"",NA,"None","du",5,7,"2C","auditory"
"213","4C.wav",297,"S",NA,"",NA,"None","du",5,7,"2C","auditory"
"214","3A.wav",298,"S",NA,"",0.268575479509,"2","du",5,7,"2C","auditory"
"215","3B.wav",299,"S",NA,"",NA,"None","du",5,7,"2C","auditory"
"216","3C.wav",300,"S",NA,"",NA,"None","du",5,7,"2C","auditory"
"217","2A.wav",301,"S",NA,"",NA,"None","du",5,7,"2C","auditory"
"218","2B.wav",302,"S",NA,"",NA,"None","du",5,7,"2C","auditory"
"219","2C.wav",303,"S",NA,"",0.21765529539,"2","du",5,7,"2C","auditory"
"220","1A.wav",304,"S",NA,"",NA,"None","du",5,7,"2C","auditory"
"221","1B.wav",305,"S",NA,"",NA,"None","du",5,7,"2C","auditory"
"222","1C.wav",306,"S",NA,"",NA,"None","du",5,7,"2C","auditory"
"223","4A.wav",307,"S",NA,"",0.25185917865,"2","du",5,7,"2C","auditory"
"224","4B.wav",308,"S",NA,"",NA,"None","du",5,7,"2C","auditory"
"225","4C.wav",309,"S",NA,"",NA,"None","du",5,7,"2C","auditory"
"226","3A.wav",310,"S",NA,"",NA,"None","du",5,7,"2C","auditory"
"227","3B.wav",311,"S",NA,"",NA,"None","du",5,7,"2C","auditory"
"228","3C.wav",312,"S",NA,"",NA,"None","du",5,7,"2C","auditory"
"229","pi.wav",265,"R",NA,"None",NA,"","du",5,7,"2C","auditory"
"230","ta.wav",266,"R",NA,"None",NA,"","du",5,7,"2C","auditory"
"231","da.wav",267,"R",NA,"None",NA,"","du",5,7,"2C","auditory"
"232","ta.wav",268,"R",NA,"None",NA,"","du",5,7,"2C","auditory"
"233","tu.wav",269,"R",NA,"None",NA,"","du",5,7,"2C","auditory"
"234","tu.wav",270,"R",NA,"None",NA,"","du",5,7,"2C","auditory"
"235","ba.wav",271,"R",NA,"None",NA,"","du",5,7,"2C","auditory"
"236","pu.wav",272,"R",NA,"None",NA,"","du",5,7,"2C","auditory"
"237","pa.wav",273,"R",NA,"None",NA,"","du",5,7,"2C","auditory"
"238","bi.wav",274,"R",NA,"None",NA,"","du",5,7,"2C","auditory"
"239","pu.wav",275,"R",NA,"None",NA,"","du",5,7,"2C","auditory"
"240","bu.wav",276,"R",NA,"None",NA,"","du",5,7,"2C","auditory"
"241","ti.wav",277,"R",NA,"None",NA,"","du",5,7,"2C","auditory"
"242","du.wav",278,"R",NA,"None",NA,"","du",5,7,"2C","auditory"
"243","tu.wav",279,"R",0.302259568241,"2",NA,"","du",5,7,"2C","auditory"
"244","du.wav",280,"R",NA,"None",NA,"","du",5,7,"2C","auditory"
"245","di.wav",281,"R",NA,"None",NA,"","du",5,7,"2C","auditory"
"246","bi.wav",282,"R",0.150379835744,"2",NA,"","du",5,7,"2C","auditory"
"247","ti.wav",283,"R",NA,"None",NA,"","du",5,7,"2C","auditory"
"248","di.wav",284,"R",NA,"None",NA,"","du",5,7,"2C","auditory"
"249","bi.wav",285,"R",NA,"None",NA,"","du",5,7,"2C","auditory"
"250","ba.wav",286,"R",NA,"None",NA,"","du",5,7,"2C","auditory"
"251","pi.wav",287,"R",NA,"None",NA,"","du",5,7,"2C","auditory"
"252","pi.wav",288,"R",NA,"None",NA,"","du",5,7,"2C","auditory"
"253","silence.wav",0,"B",NA,"None",NA,"","du",5,7,"2C","auditory"
"254","silence.wav",0,"B",NA,"None",NA,"","du",5,7,"2C","auditory"
"255","silence.wav",0,"B",NA,"None",NA,"","du",5,7,"2C","auditory"
"256","silence.wav",0,"B",NA,"None",NA,"","du",5,7,"2C","auditory"
"257","silence.wav",0,"B",NA,"None",NA,"","du",5,7,"2C","auditory"
"258","silence.wav",0,"B",NA,"None",NA,"","du",5,7,"2C","auditory"
"259","silence.wav",0,"B",NA,"None",NA,"","du",5,7,"2C","auditory"
"260","silence.wav",0,"B",NA,"None",NA,"","du",5,7,"2C","auditory"
"261","silence.wav",0,"B",NA,"None",NA,"","du",5,7,"2C","auditory"
"262","silence.wav",0,"B",NA,"None",NA,"","du",5,7,"2C","auditory"
"263","silence.wav",0,"B",NA,"None",NA,"","du",5,7,"2C","auditory"
"264","silence.wav",0,"B",NA,"None",NA,"","du",5,7,"2C","auditory"
"265","ba.wav",289,"R",NA,"None",NA,"","du",5,7,"2C","auditory"
"266","tu.wav",290,"R",NA,"None",NA,"","du",5,7,"2C","auditory"
"267","pi.wav",291,"R",NA,"None",NA,"","du",5,7,"2C","auditory"
"268","du.wav",292,"R",NA,"None",NA,"","du",5,7,"2C","auditory"
"269","ti.wav",293,"R",0.366717388039,"2",NA,"","du",5,7,"2C","auditory"
"270","bi.wav",294,"R",NA,"None",NA,"","du",5,7,"2C","auditory"
"271","pu.wav",295,"R",NA,"None",NA,"","du",5,7,"2C","auditory"
"272","di.wav",296,"R",NA,"None",NA,"","du",5,7,"2C","auditory"
"273","tu.wav",297,"R",NA,"None",NA,"","du",5,7,"2C","auditory"
"274","da.wav",298,"R",NA,"None",NA,"","du",5,7,"2C","auditory"
"275","da.wav",299,"R",NA,"None",NA,"","du",5,7,"2C","auditory"
"276","bi.wav",300,"R",NA,"None",NA,"","du",5,7,"2C","auditory"
"277","du.wav",301,"R",NA,"None",NA,"","du",5,7,"2C","auditory"
"278","bu.wav",302,"R",0.433126796735,"2",NA,"","du",5,7,"2C","auditory"
"279","pa.wav",303,"R",NA,"None",NA,"","du",5,7,"2C","auditory"
"280","ti.wav",304,"R",NA,"None",NA,"","du",5,7,"2C","auditory"
"281","pi.wav",305,"R",NA,"None",NA,"","du",5,7,"2C","auditory"
"282","pa.wav",306,"R",NA,"None",NA,"","du",5,7,"2C","auditory"
"283","ta.wav",307,"R",NA,"None",NA,"","du",5,7,"2C","auditory"
"284","pa.wav",308,"R",NA,"None",NA,"","du",5,7,"2C","auditory"
"285","bu.wav",309,"R",NA,"None",NA,"","du",5,7,"2C","auditory"
"286","ta.wav",310,"R",NA,"None",NA,"","du",5,7,"2C","auditory"
"287","bu.wav",311,"R",NA,"None",NA,"","du",5,7,"2C","auditory"
"288","da.wav",312,"R",NA,"None",NA,"","du",5,7,"2C","auditory"
"289","silence.wav",0,"B",NA,"None",NA,"","du",5,7,"2C","auditory"
"290","silence.wav",0,"B",NA,"None",NA,"","du",5,7,"2C","auditory"
"291","silence.wav",0,"B",NA,"None",NA,"","du",5,7,"2C","auditory"
"292","silence.wav",0,"B",NA,"None",NA,"","du",5,7,"2C","auditory"
"293","silence.wav",0,"B",NA,"None",NA,"","du",5,7,"2C","auditory"
"294","silence.wav",0,"B",NA,"None",NA,"","du",5,7,"2C","auditory"
"295","silence.wav",0,"B",NA,"None",NA,"","du",5,7,"2C","auditory"
"296","silence.wav",0,"B",NA,"None",NA,"","du",5,7,"2C","auditory"
"297","silence.wav",0,"B",NA,"None",NA,"","du",5,7,"2C","auditory"
"298","silence.wav",0,"B",NA,"None",NA,"","du",5,7,"2C","auditory"
"299","silence.wav",0,"B",NA,"None",NA,"","du",5,7,"2C","auditory"
"300","silence.wav",0,"B",NA,"None",NA,"","du",5,7,"2C","auditory"
"301","2A.wav",313,"S",NA,"",NA,"None","du",5,7,"2C","auditory"
"302","2B.wav",314,"S",NA,"",NA,"None","du",5,7,"2C","auditory"
"303","2C.wav",315,"S",NA,"",NA,"None","du",5,7,"2C","auditory"
"304","1A.wav",316,"S",NA,"",NA,"None","du",5,7,"2C","auditory"
"305","1B.wav",317,"S",NA,"",NA,"None","du",5,7,"2C","auditory"
"306","1C.wav",318,"S",NA,"",NA,"None","du",5,7,"2C","auditory"
"307","2A.wav",319,"S",NA,"",NA,"None","du",5,7,"2C","auditory"
"308","2B.wav",320,"S",NA,"",NA,"None","du",5,7,"2C","auditory"
"309","2C.wav",321,"S",NA,"",NA,"None","du",5,7,"2C","auditory"
"310","4A.wav",322,"S",NA,"",0.184066796326,"2","du",5,7,"2C","auditory"
"311","4B.wav",323,"S",NA,"",NA,"None","du",5,7,"2C","auditory"
"312","4C.wav",324,"S",NA,"",NA,"None","du",5,7,"2C","auditory"
"313","3A.wav",325,"S",NA,"",NA,"None","du",5,7,"2C","auditory"
"314","3B.wav",326,"S",NA,"",NA,"None","du",5,7,"2C","auditory"
"315","3C.wav",327,"S",NA,"",NA,"None","du",5,7,"2C","auditory"
"316","4A.wav",328,"S",NA,"",NA,"None","du",5,7,"2C","auditory"
"317","4B.wav",329,"S",NA,"",NA,"None","du",5,7,"2C","auditory"
"318","4C.wav",330,"S",NA,"",NA,"None","du",5,7,"2C","auditory"
"319","3A.wav",331,"S",NA,"",NA,"None","du",5,7,"2C","auditory"
"320","3B.wav",332,"S",NA,"",NA,"None","du",5,7,"2C","auditory"
"321","3C.wav",333,"S",NA,"",NA,"None","du",5,7,"2C","auditory"
"322","2A.wav",334,"S",NA,"",NA,"None","du",5,7,"2C","auditory"
"323","2B.wav",335,"S",NA,"",NA,"None","du",5,7,"2C","auditory"
"324","2C.wav",336,"S",NA,"",NA,"None","du",5,7,"2C","auditory"
"325","silence.wav",0,"B",NA,"",NA,"None","du",5,7,"2C","auditory"
"326","silence.wav",0,"B",NA,"",NA,"None","du",5,7,"2C","auditory"
"327","silence.wav",0,"B",NA,"",NA,"None","du",5,7,"2C","auditory"
"328","silence.wav",0,"B",NA,"",NA,"None","du",5,7,"2C","auditory"
"329","silence.wav",0,"B",NA,"",NA,"None","du",5,7,"2C","auditory"
"330","silence.wav",0,"B",NA,"",NA,"None","du",5,7,"2C","auditory"
"331","silence.wav",0,"B",NA,"",NA,"None","du",5,7,"2C","auditory"
"332","silence.wav",0,"B",NA,"",NA,"None","du",5,7,"2C","auditory"
"333","silence.wav",0,"B",NA,"",NA,"None","du",5,7,"2C","auditory"
"334","silence.wav",0,"B",NA,"",NA,"None","du",5,7,"2C","auditory"
"335","silence.wav",0,"B",NA,"",NA,"None","du",5,7,"2C","auditory"
"336","silence.wav",0,"B",NA,"",NA,"None","du",5,7,"2C","auditory"
"337","du.wav",337,"R",NA,"None",NA,"","du",5,7,"2C","auditory"
"338","ba.wav",338,"R",NA,"None",NA,"","du",5,7,"2C","auditory"
"339","ti.wav",339,"R",NA,"None",NA,"","du",5,7,"2C","auditory"
"340","bu.wav",340,"R",NA,"None",NA,"","du",5,7,"2C","auditory"
"341","bi.wav",341,"R",0.300863055978,"2",NA,"","du",5,7,"2C","auditory"
"342","ti.wav",342,"R",NA,"None",NA,"","du",5,7,"2C","auditory"
"343","pu.wav",343,"R",NA,"None",NA,"","du",5,7,"2C","auditory"
"344","ba.wav",344,"R",NA,"None",NA,"","du",5,7,"2C","auditory"
"345","ta.wav",345,"R",0.01757742872,"2",NA,"","du",5,7,"2C","auditory"
"346","pa.wav",346,"R",NA,"None",NA,"","du",5,7,"2C","auditory"
"347","tu.wav",347,"R",NA,"None",NA,"","du",5,7,"2C","auditory"
"348","bu.wav",348,"R",NA,"None",NA,"","du",5,7,"2C","auditory"
"349","pu.wav",349,"R",NA,"None",NA,"","du",5,7,"2C","auditory"
"350","di.wav",350,"R",NA,"None",NA,"","du",5,7,"2C","auditory"
"351","pi.wav",351,"R",NA,"None",NA,"","du",5,7,"2C","auditory"
"352","du.wav",352,"R",NA,"None",NA,"","du",5,7,"2C","auditory"
"353","da.wav",353,"R",0.386140559567,"2",NA,"","du",5,7,"2C","auditory"
"354","pi.wav",354,"R",NA,"None",NA,"","du",5,7,"2C","auditory"
"355","di.wav",355,"R",NA,"None",NA,"","du",5,7,"2C","auditory"
"356","tu.wav",356,"R",NA,"None",NA,"","du",5,7,"2C","auditory"
"357","pa.wav",357,"R",NA,"None",NA,"","du",5,7,"2C","auditory"
"358","ta.wav",358,"R",NA,"None",NA,"","du",5,7,"2C","auditory"
"359","da.wav",359,"R",NA,"None",NA,"","du",5,7,"2C","auditory"
"360","bi.wav",360,"R",NA,"None",NA,"","du",5,7,"2C","auditory"
"361","1A.wav",337,"S",NA,"",NA,"None","du",5,7,"2C","auditory"
"362","1B.wav",338,"S",NA,"",NA,"None","du",5,7,"2C","auditory"
"363","1C.wav",339,"S",NA,"",NA,"None","du",5,7,"2C","auditory"
"364","4A.wav",340,"S",NA,"",NA,"None","du",5,7,"2C","auditory"
"365","4B.wav",341,"S",NA,"",NA,"None","du",5,7,"2C","auditory"
"366","4C.wav",342,"S",NA,"",NA,"None","du",5,7,"2C","auditory"
"367","3A.wav",343,"S",NA,"",NA,"None","du",5,7,"2C","auditory"
"368","3B.wav",344,"S",NA,"",NA,"None","du",5,7,"2C","auditory"
"369","3C.wav",345,"S",NA,"",NA,"None","du",5,7,"2C","auditory"
"370","2A.wav",346,"S",NA,"",NA,"None","du",5,7,"2C","auditory"
"371","2B.wav",347,"S",NA,"",NA,"None","du",5,7,"2C","auditory"
"372","2C.wav",348,"S",NA,"",NA,"None","du",5,7,"2C","auditory"
"373","1A.wav",349,"S",NA,"",NA,"None","du",5,7,"2C","auditory"
"374","1B.wav",350,"S",NA,"",NA,"None","du",5,7,"2C","auditory"
"375","1C.wav",351,"S",NA,"",NA,"None","du",5,7,"2C","auditory"
"376","2A.wav",352,"S",NA,"",NA,"None","du",5,7,"2C","auditory"
"377","2B.wav",353,"S",NA,"",NA,"None","du",5,7,"2C","auditory"
"378","2C.wav",354,"S",NA,"",NA,"None","du",5,7,"2C","auditory"
"379","3A.wav",355,"S",NA,"",NA,"None","du",5,7,"2C","auditory"
"380","3B.wav",356,"S",NA,"",NA,"None","du",5,7,"2C","auditory"
"381","3C.wav",357,"S",NA,"",NA,"None","du",5,7,"2C","auditory"
"382","4A.wav",358,"S",NA,"",NA,"None","du",5,7,"2C","auditory"
"383","4B.wav",359,"S",NA,"",NA,"None","du",5,7,"2C","auditory"
"384","4C.wav",360,"S",NA,"",0.0345993704395,"2","du",5,7,"2C","auditory"
"385","silence.wav",0,"B",NA,"",0.383384047891,"2","du",5,7,"2C","auditory"
"386","silence.wav",0,"B",NA,"",NA,"None","du",5,7,"2C","auditory"
"387","silence.wav",0,"B",NA,"",NA,"None","du",5,7,"2C","auditory"
"388","silence.wav",0,"B",NA,"",NA,"None","du",5,7,"2C","auditory"
"389","silence.wav",0,"B",NA,"",NA,"None","du",5,7,"2C","auditory"
"390","silence.wav",0,"B",NA,"",NA,"None","du",5,7,"2C","auditory"
"391","silence.wav",0,"B",NA,"",NA,"None","du",5,7,"2C","auditory"
"392","silence.wav",0,"B",NA,"",NA,"None","du",5,7,"2C","auditory"
"393","silence.wav",0,"B",NA,"",NA,"None","du",5,7,"2C","auditory"
"394","silence.wav",0,"B",NA,"",NA,"None","du",5,7,"2C","auditory"
"395","silence.wav",0,"B",NA,"",NA,"None","du",5,7,"2C","auditory"
"396","silence.wav",0,"B",NA,"",NA,"None","du",5,7,"2C","auditory"
"397","ba.wav",313,"R",NA,"None",NA,"","du",5,7,"2C","auditory"
"398","di.wav",314,"R",NA,"None",NA,"","du",5,7,"2C","auditory"
"399","pu.wav",315,"R",NA,"None",NA,"","du",5,7,"2C","auditory"
"400","bu.wav",316,"R",NA,"None",NA,"","du",5,7,"2C","auditory"
"401","pu.wav",317,"R",NA,"None",NA,"","du",5,7,"2C","auditory"
"402","du.wav",318,"R",NA,"None",NA,"","du",5,7,"2C","auditory"
"403","da.wav",319,"R",0.40202321962,"2",NA,"","du",5,7,"2C","auditory"
"404","pa.wav",320,"R",NA,"None",NA,"","du",5,7,"2C","auditory"
"405","da.wav",321,"R",NA,"None",NA,"","du",5,7,"2C","auditory"
"406","ti.wav",322,"R",NA,"None",NA,"","du",5,7,"2C","auditory"
"407","ti.wav",323,"R",NA,"None",NA,"","du",5,7,"2C","auditory"
"408","bu.wav",324,"R",NA,"None",NA,"","du",5,7,"2C","auditory"
"409","di.wav",325,"R",NA,"None",NA,"","du",5,7,"2C","auditory"
"410","ta.wav",326,"R",NA,"None",NA,"","du",5,7,"2C","auditory"
"411","pa.wav",327,"R",NA,"None",NA,"","du",5,7,"2C","auditory"
"412","ta.wav",328,"R",NA,"None",NA,"","du",5,7,"2C","auditory"
"413","ba.wav",329,"R",NA,"None",NA,"","du",5,7,"2C","auditory"
"414","di.wav",330,"R",NA,"None",NA,"","du",5,7,"2C","auditory"
"415","tu.wav",331,"R",NA,"None",NA,"","du",5,7,"2C","auditory"
"416","pu.wav",332,"R",NA,"None",NA,"","du",5,7,"2C","auditory"
"417","bi.wav",333,"R",NA,"None",NA,"","du",5,7,"2C","auditory"
"418","ba.wav",334,"R",NA,"None",NA,"","du",5,7,"2C","auditory"
"419","du.wav",335,"R",NA,"None",NA,"","du",5,7,"2C","auditory"
"420","pi.wav",336,"R",0.417629777454,"2",NA,"","du",5,7,"2C","auditory"
"421","silence.wav",0,"B",NA,"None",NA,"","du",5,7,"2C","auditory"
"422","silence.wav",0,"B",NA,"None",NA,"","du",5,7,"2C","auditory"
"423","silence.wav",0,"B",NA,"None",NA,"","du",5,7,"2C","auditory"
"424","silence.wav",0,"B",NA,"None",NA,"","du",5,7,"2C","auditory"
"425","silence.wav",0,"B",NA,"None",NA,"","du",5,7,"2C","auditory"
"426","silence.wav",0,"B",NA,"None",NA,"","du",5,7,"2C","auditory"
"427","silence.wav",0,"B",NA,"None",NA,"","du",5,7,"2C","auditory"
"428","silence.wav",0,"B",NA,"None",NA,"","du",5,7,"2C","auditory"
"429","silence.wav",0,"B",NA,"None",NA,"","du",5,7,"2C","auditory"
"430","silence.wav",0,"B",NA,"None",NA,"","du",5,7,"2C","auditory"
"431","silence.wav",0,"B",NA,"None",NA,"","du",5,7,"2C","auditory"
"432","silence.wav",0,"B",NA,"None",NA,"","du",5,7,"2C","auditory"
"433","1A.wav",361,"S",NA,"",NA,"None","du",5,7,"2C","auditory"
"434","1B.wav",362,"S",NA,"",NA,"None","du",5,7,"2C","auditory"
"435","1C.wav",363,"S",NA,"",NA,"None","du",5,7,"2C","auditory"
"436","3A.wav",364,"S",NA,"",NA,"None","du",5,7,"2C","auditory"
"437","3B.wav",365,"S",NA,"",NA,"None","du",5,7,"2C","auditory"
"438","3C.wav",366,"S",NA,"",NA,"None","du",5,7,"2C","auditory"
"439","2A.wav",367,"S",NA,"",NA,"None","du",5,7,"2C","auditory"
"440","2B.wav",368,"S",NA,"",0.400410092087,"2","du",5,7,"2C","auditory"
"441","2C.wav",369,"S",NA,"",NA,"None","du",5,7,"2C","auditory"
"442","4A.wav",370,"S",NA,"",0.200750686927,"2","du",5,7,"2C","auditory"
"443","4B.wav",371,"S",NA,"",NA,"None","du",5,7,"2C","auditory"
"444","4C.wav",372,"S",NA,"",NA,"None","du",5,7,"2C","auditory"
"445","1A.wav",373,"S",NA,"",NA,"None","du",5,7,"2C","auditory"
"446","1B.wav",374,"S",NA,"",0.100175958942,"2","du",5,7,"2C","auditory"
"447","1C.wav",375,"S",NA,"",0.251496922458,"2","du",5,7,"2C","auditory"
"448","2A.wav",376,"S",NA,"",NA,"None","du",5,7,"2C","auditory"
"449","2B.wav",377,"S",NA,"",NA,"None","du",5,7,"2C","auditory"
"450","2C.wav",378,"S",NA,"",NA,"None","du",5,7,"2C","auditory"
"451","4A.wav",382,"S",NA,"",0.368218105286,"2","du",5,7,"2C","auditory"
"452","4B.wav",383,"S",NA,"",NA,"None","du",5,7,"2C","auditory"
"453","4C.wav",384,"S",NA,"",NA,"None","du",5,7,"2C","auditory"
"454","1A.wav",388,"S",NA,"",NA,"None","du",5,7,"2C","auditory"
"455","1B.wav",389,"S",NA,"",NA,"None","du",5,7,"2C","auditory"
"456","1C.wav",390,"S",NA,"",NA,"None","du",5,7,"2C","auditory"
"457","di.wav",361,"R",NA,"None",NA,"","du",5,7,"2C","auditory"
"458","pu.wav",362,"R",NA,"None",NA,"","du",5,7,"2C","auditory"
"459","ta.wav",363,"R",NA,"None",NA,"","du",5,7,"2C","auditory"
"460","pi.wav",364,"R",NA,"None",NA,"","du",5,7,"2C","auditory"
"461","ti.wav",365,"R",NA,"None",NA,"","du",5,7,"2C","auditory"
"462","pa.wav",366,"R",NA,"None",NA,"","du",5,7,"2C","auditory"
"463","pu.wav",367,"R",NA,"None",NA,"","du",5,7,"2C","auditory"
"464","di.wav",368,"R",NA,"None",NA,"","du",5,7,"2C","auditory"
"465","bu.wav",369,"R",NA,"None",NA,"","du",5,7,"2C","auditory"
"466","ta.wav",370,"R",NA,"None",NA,"","du",5,7,"2C","auditory"
"467","bi.wav",371,"R",NA,"None",NA,"","du",5,7,"2C","auditory"
"468","bu.wav",372,"R",0.151044861064,"2",NA,"","du",5,7,"2C","auditory"
"469","du.wav",373,"R",NA,"None",NA,"","du",5,7,"2C","auditory"
"470","da.wav",374,"R",0.117506413371,"2",NA,"","du",5,7,"2C","auditory"
"471","pi.wav",375,"R",NA,"None",NA,"","du",5,7,"2C","auditory"
"472","ba.wav",376,"R",NA,"None",NA,"","du",5,7,"2C","auditory"
"473","ba.wav",377,"R",NA,"None",NA,"","du",5,7,"2C","auditory"
"474","tu.wav",378,"R",NA,"None",NA,"","du",5,7,"2C","auditory"
"475","ti.wav",379,"R",NA,"None",NA,"","du",5,7,"2C","auditory"
"476","bi.wav",380,"R",NA,"None",NA,"","du",5,7,"2C","auditory"
"477","du.wav",381,"R",NA,"None",NA,"","du",5,7,"2C","auditory"
"478","pa.wav",382,"R",0.284138139803,"2",NA,"","du",5,7,"2C","auditory"
"479","da.wav",383,"R",NA,"None",NA,"","du",5,7,"2C","auditory"
"480","tu.wav",384,"R",NA,"None",NA,"","du",5,7,"2C","auditory"
