"","soundFile","trialnum","condition","random_block_key_resp.rt","random_block_key_resp.keys","structured_block_key_resp.rt","structured_block_key_resp.keys","starget","Run","PartID","ttarget","expName"
"1","3A.wav",379,"S",NA,"",NA,"None","da",6,5,"1C","auditory"
"2","3B.wav",380,"S",NA,"",NA,"None","da",6,5,"1C","auditory"
"3","3C.wav",381,"S",NA,"",NA,"None","da",6,5,"1C","auditory"
"4","3A.wav",385,"S",NA,"",NA,"None","da",6,5,"1C","auditory"
"5","3B.wav",386,"S",NA,"",NA,"None","da",6,5,"1C","auditory"
"6","3C.wav",387,"S",NA,"",NA,"None","da",6,5,"1C","auditory"
"7","2A.wav",391,"S",NA,"",NA,"None","da",6,5,"1C","auditory"
"8","2B.wav",392,"S",NA,"",NA,"None","da",6,5,"1C","auditory"
"9","2C.wav",393,"S",NA,"",0.150234438712,"4","da",6,5,"1C","auditory"
"10","4A.wav",394,"S",NA,"",NA,"None","da",6,5,"1C","auditory"
"11","4B.wav",395,"S",NA,"",NA,"None","da",6,5,"1C","auditory"
"12","4C.wav",396,"S",NA,"",NA,"None","da",6,5,"1C","auditory"
"13","1A.wav",397,"S",NA,"",NA,"None","da",6,5,"1C","auditory"
"14","1B.wav",398,"S",NA,"",NA,"None","da",6,5,"1C","auditory"
"15","1C.wav",399,"S",NA,"",NA,"None","da",6,5,"1C","auditory"
"16","3A.wav",400,"S",NA,"",0.148925427813,"4","da",6,5,"1C","auditory"
"17","3B.wav",401,"S",NA,"",NA,"None","da",6,5,"1C","auditory"
"18","3C.wav",402,"S",NA,"",NA,"None","da",6,5,"1C","auditory"
"19","4A.wav",403,"S",NA,"",NA,"None","da",6,5,"1C","auditory"
"20","4B.wav",404,"S",NA,"",NA,"None","da",6,5,"1C","auditory"
"21","4C.wav",405,"S",NA,"",NA,"None","da",6,5,"1C","auditory"
"22","2A.wav",406,"S",NA,"",NA,"None","da",6,5,"1C","auditory"
"23","2B.wav",407,"S",NA,"",NA,"None","da",6,5,"1C","auditory"
"24","2C.wav",408,"S",NA,"",0.116897900356,"4","da",6,5,"1C","auditory"
"25","pa.wav",385,"R",NA,"None",NA,"","da",6,5,"1C","auditory"
"26","pi.wav",386,"R",NA,"None",NA,"","da",6,5,"1C","auditory"
"27","da.wav",387,"R",NA,"None",NA,"","da",6,5,"1C","auditory"
"28","ta.wav",388,"R",0.233578201616,"4",NA,"","da",6,5,"1C","auditory"
"29","bi.wav",389,"R",NA,"None",NA,"","da",6,5,"1C","auditory"
"30","ta.wav",390,"R",NA,"None",NA,"","da",6,5,"1C","auditory"
"31","du.wav",391,"R",NA,"None",NA,"","da",6,5,"1C","auditory"
"32","tu.wav",392,"R",NA,"None",NA,"","da",6,5,"1C","auditory"
"33","tu.wav",393,"R",NA,"None",NA,"","da",6,5,"1C","auditory"
"34","bu.wav",394,"R",NA,"None",NA,"","da",6,5,"1C","auditory"
"35","ti.wav",395,"R",NA,"None",NA,"","da",6,5,"1C","auditory"
"36","ba.wav",396,"R",NA,"None",NA,"","da",6,5,"1C","auditory"
"37","bi.wav",397,"R",NA,"None",NA,"","da",6,5,"1C","auditory"
"38","bu.wav",398,"R",NA,"None",NA,"","da",6,5,"1C","auditory"
"39","pu.wav",399,"R",NA,"None",NA,"","da",6,5,"1C","auditory"
"40","bi.wav",400,"R",NA,"None",NA,"","da",6,5,"1C","auditory"
"41","ti.wav",401,"R",NA,"None",NA,"","da",6,5,"1C","auditory"
"42","da.wav",402,"R",NA,"None",NA,"","da",6,5,"1C","auditory"
"43","pa.wav",403,"R",0.282381659839,"4",NA,"","da",6,5,"1C","auditory"
"44","du.wav",404,"R",NA,"None",NA,"","da",6,5,"1C","auditory"
"45","pi.wav",405,"R",NA,"None",NA,"","da",6,5,"1C","auditory"
"46","pi.wav",406,"R",NA,"None",NA,"","da",6,5,"1C","auditory"
"47","tu.wav",407,"R",NA,"None",NA,"","da",6,5,"1C","auditory"
"48","di.wav",408,"R",NA,"None",NA,"","da",6,5,"1C","auditory"
"49","silence.wav",0,"B",NA,"None",NA,"","da",6,5,"1C","auditory"
"50","silence.wav",0,"B",NA,"None",NA,"","da",6,5,"1C","auditory"
"51","silence.wav",0,"B",NA,"None",NA,"","da",6,5,"1C","auditory"
"52","silence.wav",0,"B",NA,"None",NA,"","da",6,5,"1C","auditory"
"53","silence.wav",0,"B",NA,"None",NA,"","da",6,5,"1C","auditory"
"54","silence.wav",0,"B",NA,"None",NA,"","da",6,5,"1C","auditory"
"55","silence.wav",0,"B",NA,"None",NA,"","da",6,5,"1C","auditory"
"56","silence.wav",0,"B",NA,"None",NA,"","da",6,5,"1C","auditory"
"57","silence.wav",0,"B",NA,"None",NA,"","da",6,5,"1C","auditory"
"58","silence.wav",0,"B",NA,"None",NA,"","da",6,5,"1C","auditory"
"59","silence.wav",0,"B",NA,"None",NA,"","da",6,5,"1C","auditory"
"60","silence.wav",0,"B",NA,"None",NA,"","da",6,5,"1C","auditory"
"61","1A.wav",409,"S",NA,"",NA,"None","da",6,5,"1C","auditory"
"62","1B.wav",410,"S",NA,"",NA,"None","da",6,5,"1C","auditory"
"63","1C.wav",411,"S",NA,"",NA,"None","da",6,5,"1C","auditory"
"64","3A.wav",412,"S",NA,"",NA,"None","da",6,5,"1C","auditory"
"65","3B.wav",413,"S",NA,"",NA,"None","da",6,5,"1C","auditory"
"66","3C.wav",414,"S",NA,"",NA,"None","da",6,5,"1C","auditory"
"67","1A.wav",415,"S",NA,"",NA,"None","da",6,5,"1C","auditory"
"68","1B.wav",416,"S",NA,"",NA,"None","da",6,5,"1C","auditory"
"69","1C.wav",417,"S",NA,"",NA,"None","da",6,5,"1C","auditory"
"70","2A.wav",418,"S",NA,"",NA,"None","da",6,5,"1C","auditory"
"71","2B.wav",419,"S",NA,"",NA,"None","da",6,5,"1C","auditory"
"72","2C.wav",420,"S",NA,"",0.308569270186,"4","da",6,5,"1C","auditory"
"73","4A.wav",421,"S",NA,"",NA,"None","da",6,5,"1C","auditory"
"74","4B.wav",422,"S",NA,"",NA,"None","da",6,5,"1C","auditory"
"75","4C.wav",423,"S",NA,"",NA,"None","da",6,5,"1C","auditory"
"76","2A.wav",424,"S",NA,"",NA,"None","da",6,5,"1C","auditory"
"77","2B.wav",425,"S",NA,"",NA,"None","da",6,5,"1C","auditory"
"78","2C.wav",426,"S",NA,"",0.241160622099,"4","da",6,5,"1C","auditory"
"79","4A.wav",427,"S",NA,"",NA,"None","da",6,5,"1C","auditory"
"80","4B.wav",428,"S",NA,"",NA,"None","da",6,5,"1C","auditory"
"81","4C.wav",429,"S",NA,"",NA,"None","da",6,5,"1C","auditory"
"82","1A.wav",430,"S",NA,"",NA,"None","da",6,5,"1C","auditory"
"83","1B.wav",431,"S",NA,"",0.241930042626,"4","da",6,5,"1C","auditory"
"84","1C.wav",432,"S",NA,"",NA,"None","da",6,5,"1C","auditory"
"85","silence.wav",0,"B",NA,"",NA,"None","da",6,5,"1C","auditory"
"86","silence.wav",0,"B",NA,"",NA,"None","da",6,5,"1C","auditory"
"87","silence.wav",0,"B",NA,"",NA,"None","da",6,5,"1C","auditory"
"88","silence.wav",0,"B",NA,"",NA,"None","da",6,5,"1C","auditory"
"89","silence.wav",0,"B",NA,"",NA,"None","da",6,5,"1C","auditory"
"90","silence.wav",0,"B",NA,"",NA,"None","da",6,5,"1C","auditory"
"91","silence.wav",0,"B",NA,"",NA,"None","da",6,5,"1C","auditory"
"92","silence.wav",0,"B",NA,"",NA,"None","da",6,5,"1C","auditory"
"93","silence.wav",0,"B",NA,"",NA,"None","da",6,5,"1C","auditory"
"94","silence.wav",0,"B",NA,"",NA,"None","da",6,5,"1C","auditory"
"95","silence.wav",0,"B",NA,"",NA,"None","da",6,5,"1C","auditory"
"96","silence.wav",0,"B",NA,"",NA,"None","da",6,5,"1C","auditory"
"97","ba.wav",409,"R",NA,"None",NA,"","da",6,5,"1C","auditory"
"98","ti.wav",410,"R",NA,"None",NA,"","da",6,5,"1C","auditory"
"99","pa.wav",411,"R",NA,"None",NA,"","da",6,5,"1C","auditory"
"100","tu.wav",412,"R",NA,"None",NA,"","da",6,5,"1C","auditory"
"101","bi.wav",413,"R",NA,"None",NA,"","da",6,5,"1C","auditory"
"102","du.wav",414,"R",NA,"None",NA,"","da",6,5,"1C","auditory"
"103","ti.wav",415,"R",NA,"None",NA,"","da",6,5,"1C","auditory"
"104","pa.wav",416,"R",NA,"None",NA,"","da",6,5,"1C","auditory"
"105","pu.wav",417,"R",NA,"None",NA,"","da",6,5,"1C","auditory"
"106","ta.wav",418,"R",NA,"None",NA,"","da",6,5,"1C","auditory"
"107","bu.wav",419,"R",NA,"None",NA,"","da",6,5,"1C","auditory"
"108","pi.wav",420,"R",NA,"None",NA,"","da",6,5,"1C","auditory"
"109","da.wav",421,"R",NA,"None",NA,"","da",6,5,"1C","auditory"
"110","da.wav",422,"R",0.300291668857,"4",NA,"","da",6,5,"1C","auditory"
"111","ba.wav",423,"R",0.359321453376,"4",NA,"","da",6,5,"1C","auditory"
"112","pu.wav",424,"R",NA,"None",NA,"","da",6,5,"1C","auditory"
"113","pu.wav",425,"R",NA,"None",NA,"","da",6,5,"1C","auditory"
"114","di.wav",426,"R",NA,"None",NA,"","da",6,5,"1C","auditory"
"115","di.wav",427,"R",NA,"None",NA,"","da",6,5,"1C","auditory"
"116","ta.wav",428,"R",NA,"None",NA,"","da",6,5,"1C","auditory"
"117","di.wav",429,"R",NA,"None",NA,"","da",6,5,"1C","auditory"
"118","du.wav",430,"R",NA,"None",NA,"","da",6,5,"1C","auditory"
"119","bu.wav",431,"R",NA,"None",NA,"","da",6,5,"1C","auditory"
"120","ba.wav",432,"R",NA,"None",NA,"","da",6,5,"1C","auditory"
"121","silence.wav",0,"B",NA,"None",NA,"","da",6,5,"1C","auditory"
"122","silence.wav",0,"B",NA,"None",NA,"","da",6,5,"1C","auditory"
"123","silence.wav",0,"B",NA,"None",NA,"","da",6,5,"1C","auditory"
"124","silence.wav",0,"B",NA,"None",NA,"","da",6,5,"1C","auditory"
"125","silence.wav",0,"B",NA,"None",NA,"","da",6,5,"1C","auditory"
"126","silence.wav",0,"B",NA,"None",NA,"","da",6,5,"1C","auditory"
"127","silence.wav",0,"B",NA,"None",NA,"","da",6,5,"1C","auditory"
"128","silence.wav",0,"B",NA,"None",NA,"","da",6,5,"1C","auditory"
"129","silence.wav",0,"B",NA,"None",NA,"","da",6,5,"1C","auditory"
"130","silence.wav",0,"B",NA,"None",NA,"","da",6,5,"1C","auditory"
"131","silence.wav",0,"B",NA,"None",NA,"","da",6,5,"1C","auditory"
"132","silence.wav",0,"B",NA,"None",NA,"","da",6,5,"1C","auditory"
"133","tu.wav",433,"R",NA,"None",NA,"","da",6,5,"1C","auditory"
"134","ba.wav",434,"R",NA,"None",NA,"","da",6,5,"1C","auditory"
"135","di.wav",435,"R",NA,"None",NA,"","da",6,5,"1C","auditory"
"136","pi.wav",436,"R",NA,"None",NA,"","da",6,5,"1C","auditory"
"137","bi.wav",437,"R",NA,"None",NA,"","da",6,5,"1C","auditory"
"138","bi.wav",438,"R",NA,"None",NA,"","da",6,5,"1C","auditory"
"139","pu.wav",439,"R",NA,"None",NA,"","da",6,5,"1C","auditory"
"140","da.wav",440,"R",NA,"None",NA,"","da",6,5,"1C","auditory"
"141","ti.wav",441,"R",0.300280575408,"4",NA,"","da",6,5,"1C","auditory"
"142","di.wav",442,"R",NA,"None",NA,"","da",6,5,"1C","auditory"
"143","pi.wav",443,"R",NA,"None",NA,"","da",6,5,"1C","auditory"
"144","tu.wav",444,"R",NA,"None",NA,"","da",6,5,"1C","auditory"
"145","da.wav",445,"R",NA,"None",NA,"","da",6,5,"1C","auditory"
"146","tu.wav",446,"R",0.391927539604,"4",NA,"","da",6,5,"1C","auditory"
"147","pu.wav",447,"R",0.133592480561,"4",NA,"","da",6,5,"1C","auditory"
"148","bu.wav",448,"R",NA,"None",NA,"","da",6,5,"1C","auditory"
"149","ba.wav",449,"R",NA,"None",NA,"","da",6,5,"1C","auditory"
"150","pa.wav",450,"R",NA,"None",NA,"","da",6,5,"1C","auditory"
"151","bu.wav",451,"R",NA,"None",NA,"","da",6,5,"1C","auditory"
"152","du.wav",452,"R",NA,"None",NA,"","da",6,5,"1C","auditory"
"153","pi.wav",453,"R",NA,"None",NA,"","da",6,5,"1C","auditory"
"154","bi.wav",454,"R",NA,"None",NA,"","da",6,5,"1C","auditory"
"155","pa.wav",455,"R",NA,"None",NA,"","da",6,5,"1C","auditory"
"156","ta.wav",456,"R",NA,"None",NA,"","da",6,5,"1C","auditory"
"157","silence.wav",0,"B",NA,"None",NA,"","da",6,5,"1C","auditory"
"158","silence.wav",0,"B",NA,"None",NA,"","da",6,5,"1C","auditory"
"159","silence.wav",0,"B",NA,"None",NA,"","da",6,5,"1C","auditory"
"160","silence.wav",0,"B",NA,"None",NA,"","da",6,5,"1C","auditory"
"161","silence.wav",0,"B",NA,"None",NA,"","da",6,5,"1C","auditory"
"162","silence.wav",0,"B",NA,"None",NA,"","da",6,5,"1C","auditory"
"163","silence.wav",0,"B",NA,"None",NA,"","da",6,5,"1C","auditory"
"164","silence.wav",0,"B",NA,"None",NA,"","da",6,5,"1C","auditory"
"165","silence.wav",0,"B",NA,"None",NA,"","da",6,5,"1C","auditory"
"166","silence.wav",0,"B",NA,"None",NA,"","da",6,5,"1C","auditory"
"167","silence.wav",0,"B",NA,"None",NA,"","da",6,5,"1C","auditory"
"168","silence.wav",0,"B",NA,"None",NA,"","da",6,5,"1C","auditory"
"169","3A.wav",433,"S",NA,"",NA,"None","da",6,5,"1C","auditory"
"170","3B.wav",434,"S",NA,"",NA,"None","da",6,5,"1C","auditory"
"171","3C.wav",435,"S",NA,"",NA,"None","da",6,5,"1C","auditory"
"172","4A.wav",436,"S",NA,"",NA,"None","da",6,5,"1C","auditory"
"173","4B.wav",437,"S",NA,"",NA,"None","da",6,5,"1C","auditory"
"174","4C.wav",438,"S",NA,"",NA,"None","da",6,5,"1C","auditory"
"175","3A.wav",439,"S",NA,"",NA,"None","da",6,5,"1C","auditory"
"176","3B.wav",440,"S",NA,"",0.190681220498,"4","da",6,5,"1C","auditory"
"177","3C.wav",441,"S",NA,"",NA,"None","da",6,5,"1C","auditory"
"178","2A.wav",442,"S",NA,"",NA,"None","da",6,5,"1C","auditory"
"179","2B.wav",443,"S",NA,"",NA,"None","da",6,5,"1C","auditory"
"180","2C.wav",444,"S",NA,"",0.158587417565,"4","da",6,5,"1C","auditory"
"181","1A.wav",445,"S",NA,"",NA,"None","da",6,5,"1C","auditory"
"182","1B.wav",446,"S",NA,"",NA,"None","da",6,5,"1C","auditory"
"183","1C.wav",447,"S",NA,"",NA,"None","da",6,5,"1C","auditory"
"184","3A.wav",448,"S",NA,"",0.241924069356,"4","da",6,5,"1C","auditory"
"185","3B.wav",449,"S",NA,"",NA,"None","da",6,5,"1C","auditory"
"186","3C.wav",450,"S",NA,"",NA,"None","da",6,5,"1C","auditory"
"187","2A.wav",451,"S",NA,"",NA,"None","da",6,5,"1C","auditory"
"188","2B.wav",452,"S",NA,"",NA,"None","da",6,5,"1C","auditory"
"189","2C.wav",453,"S",NA,"",0.214331022231,"4","da",6,5,"1C","auditory"
"190","1A.wav",454,"S",NA,"",NA,"None","da",6,5,"1C","auditory"
"191","1B.wav",455,"S",NA,"",NA,"None","da",6,5,"1C","auditory"
"192","1C.wav",456,"S",NA,"",NA,"None","da",6,5,"1C","auditory"
"193","silence.wav",0,"B",NA,"",NA,"None","da",6,5,"1C","auditory"
"194","silence.wav",0,"B",NA,"",NA,"None","da",6,5,"1C","auditory"
"195","silence.wav",0,"B",NA,"",NA,"None","da",6,5,"1C","auditory"
"196","silence.wav",0,"B",NA,"",NA,"None","da",6,5,"1C","auditory"
"197","silence.wav",0,"B",NA,"",NA,"None","da",6,5,"1C","auditory"
"198","silence.wav",0,"B",NA,"",NA,"None","da",6,5,"1C","auditory"
"199","silence.wav",0,"B",NA,"",NA,"None","da",6,5,"1C","auditory"
"200","silence.wav",0,"B",NA,"",NA,"None","da",6,5,"1C","auditory"
"201","silence.wav",0,"B",NA,"",NA,"None","da",6,5,"1C","auditory"
"202","silence.wav",0,"B",NA,"",NA,"None","da",6,5,"1C","auditory"
"203","silence.wav",0,"B",NA,"",NA,"None","da",6,5,"1C","auditory"
"204","silence.wav",0,"B",NA,"",NA,"None","da",6,5,"1C","auditory"
"205","4A.wav",457,"S",NA,"",NA,"None","da",6,5,"1C","auditory"
"206","4B.wav",458,"S",NA,"",NA,"None","da",6,5,"1C","auditory"
"207","4C.wav",459,"S",NA,"",NA,"None","da",6,5,"1C","auditory"
"208","1A.wav",460,"S",NA,"",NA,"None","da",6,5,"1C","auditory"
"209","1B.wav",461,"S",NA,"",NA,"None","da",6,5,"1C","auditory"
"210","1C.wav",462,"S",NA,"",0.0252512209117,"4","da",6,5,"1C","auditory"
"211","3A.wav",463,"S",NA,"",NA,"None","da",6,5,"1C","auditory"
"212","3B.wav",464,"S",NA,"",NA,"None","da",6,5,"1C","auditory"
"213","3C.wav",465,"S",NA,"",NA,"None","da",6,5,"1C","auditory"
"214","4A.wav",466,"S",NA,"",NA,"None","da",6,5,"1C","auditory"
"215","4B.wav",467,"S",NA,"",NA,"None","da",6,5,"1C","auditory"
"216","4C.wav",468,"S",NA,"",NA,"None","da",6,5,"1C","auditory"
"217","2A.wav",469,"S",NA,"",NA,"None","da",6,5,"1C","auditory"
"218","2B.wav",470,"S",NA,"",NA,"None","da",6,5,"1C","auditory"
"219","2C.wav",471,"S",NA,"",0.191907173488,"4","da",6,5,"1C","auditory"
"220","4A.wav",472,"S",NA,"",NA,"None","da",6,5,"1C","auditory"
"221","4B.wav",473,"S",NA,"",0.344573891722,"4","da",6,5,"1C","auditory"
"222","4C.wav",474,"S",NA,"",NA,"None","da",6,5,"1C","auditory"
"223","1A.wav",475,"S",NA,"",NA,"None","da",6,5,"1C","auditory"
"224","1B.wav",476,"S",NA,"",NA,"None","da",6,5,"1C","auditory"
"225","1C.wav",477,"S",NA,"",NA,"None","da",6,5,"1C","auditory"
"226","2A.wav",478,"S",NA,"",0.125294683734,"4","da",6,5,"1C","auditory"
"227","2B.wav",479,"S",NA,"",NA,"None","da",6,5,"1C","auditory"
"228","2C.wav",480,"S",NA,"",NA,"None","da",6,5,"1C","auditory"
"229","bu.wav",457,"R",NA,"None",NA,"","da",6,5,"1C","auditory"
"230","ba.wav",458,"R",NA,"None",NA,"","da",6,5,"1C","auditory"
"231","pu.wav",459,"R",NA,"None",NA,"","da",6,5,"1C","auditory"
"232","da.wav",460,"R",NA,"None",NA,"","da",6,5,"1C","auditory"
"233","ti.wav",461,"R",NA,"None",NA,"","da",6,5,"1C","auditory"
"234","pa.wav",462,"R",0.164434161503,"4",NA,"","da",6,5,"1C","auditory"
"235","du.wav",463,"R",NA,"None",NA,"","da",6,5,"1C","auditory"
"236","ba.wav",464,"R",NA,"None",NA,"","da",6,5,"1C","auditory"
"237","ta.wav",465,"R",NA,"None",NA,"","da",6,5,"1C","auditory"
"238","du.wav",466,"R",NA,"None",NA,"","da",6,5,"1C","auditory"
"239","da.wav",467,"R",NA,"None",NA,"","da",6,5,"1C","auditory"
"240","pa.wav",468,"R",0.275265727425,"4",NA,"","da",6,5,"1C","auditory"
"241","ta.wav",469,"R",NA,"None",NA,"","da",6,5,"1C","auditory"
"242","di.wav",470,"R",NA,"None",NA,"","da",6,5,"1C","auditory"
"243","pu.wav",471,"R",NA,"None",NA,"","da",6,5,"1C","auditory"
"244","di.wav",472,"R",NA,"None",NA,"","da",6,5,"1C","auditory"
"245","bu.wav",473,"R",NA,"None",NA,"","da",6,5,"1C","auditory"
"246","ti.wav",474,"R",NA,"None",NA,"","da",6,5,"1C","auditory"
"247","pi.wav",475,"R",NA,"None",NA,"","da",6,5,"1C","auditory"
"248","bi.wav",476,"R",NA,"None",NA,"","da",6,5,"1C","auditory"
"249","tu.wav",477,"R",NA,"None",NA,"","da",6,5,"1C","auditory"
"250","ta.wav",478,"R",NA,"None",NA,"","da",6,5,"1C","auditory"
"251","ti.wav",479,"R",NA,"None",NA,"","da",6,5,"1C","auditory"
"252","du.wav",480,"R",NA,"None",NA,"","da",6,5,"1C","auditory"
"253","silence.wav",0,"B",NA,"None",NA,"","da",6,5,"1C","auditory"
"254","silence.wav",0,"B",NA,"None",NA,"","da",6,5,"1C","auditory"
"255","silence.wav",0,"B",NA,"None",NA,"","da",6,5,"1C","auditory"
"256","silence.wav",0,"B",NA,"None",NA,"","da",6,5,"1C","auditory"
"257","silence.wav",0,"B",NA,"None",NA,"","da",6,5,"1C","auditory"
"258","silence.wav",0,"B",NA,"None",NA,"","da",6,5,"1C","auditory"
"259","silence.wav",0,"B",NA,"None",NA,"","da",6,5,"1C","auditory"
"260","silence.wav",0,"B",NA,"None",NA,"","da",6,5,"1C","auditory"
"261","silence.wav",0,"B",NA,"None",NA,"","da",6,5,"1C","auditory"
"262","silence.wav",0,"B",NA,"None",NA,"","da",6,5,"1C","auditory"
"263","silence.wav",0,"B",NA,"None",NA,"","da",6,5,"1C","auditory"
"264","silence.wav",0,"B",NA,"None",NA,"","da",6,5,"1C","auditory"
"265","tu.wav",481,"R",NA,"None",NA,"","da",6,5,"1C","auditory"
"266","bi.wav",482,"R",NA,"None",NA,"","da",6,5,"1C","auditory"
"267","ta.wav",483,"R",NA,"None",NA,"","da",6,5,"1C","auditory"
"268","ti.wav",484,"R",NA,"None",NA,"","da",6,5,"1C","auditory"
"269","pa.wav",485,"R",NA,"None",NA,"","da",6,5,"1C","auditory"
"270","du.wav",486,"R",NA,"None",NA,"","da",6,5,"1C","auditory"
"271","du.wav",487,"R",NA,"None",NA,"","da",6,5,"1C","auditory"
"272","pi.wav",488,"R",NA,"None",NA,"","da",6,5,"1C","auditory"
"273","bu.wav",489,"R",NA,"None",NA,"","da",6,5,"1C","auditory"
"274","ba.wav",490,"R",NA,"None",NA,"","da",6,5,"1C","auditory"
"275","ti.wav",491,"R",NA,"None",NA,"","da",6,5,"1C","auditory"
"276","da.wav",492,"R",NA,"None",NA,"","da",6,5,"1C","auditory"
"277","pu.wav",493,"R",0.200274659088,"4",NA,"","da",6,5,"1C","auditory"
"278","pa.wav",494,"R",NA,"None",NA,"","da",6,5,"1C","auditory"
"279","ba.wav",495,"R",NA,"None",NA,"","da",6,5,"1C","auditory"
"280","pi.wav",496,"R",NA,"None",NA,"","da",6,5,"1C","auditory"
"281","tu.wav",497,"R",NA,"None",NA,"","da",6,5,"1C","auditory"
"282","ta.wav",498,"R",NA,"None",NA,"","da",6,5,"1C","auditory"
"283","di.wav",499,"R",NA,"None",NA,"","da",6,5,"1C","auditory"
"284","bi.wav",500,"R",NA,"None",NA,"","da",6,5,"1C","auditory"
"285","da.wav",501,"R",NA,"None",NA,"","da",6,5,"1C","auditory"
"286","di.wav",502,"R",0.150234438712,"4",NA,"","da",6,5,"1C","auditory"
"287","pu.wav",503,"R",NA,"None",NA,"","da",6,5,"1C","auditory"
"288","bu.wav",504,"R",NA,"None",NA,"","da",6,5,"1C","auditory"
"289","silence.wav",0,"B",NA,"None",NA,"","da",6,5,"1C","auditory"
"290","silence.wav",0,"B",NA,"None",NA,"","da",6,5,"1C","auditory"
"291","silence.wav",0,"B",NA,"None",NA,"","da",6,5,"1C","auditory"
"292","silence.wav",0,"B",NA,"None",NA,"","da",6,5,"1C","auditory"
"293","silence.wav",0,"B",NA,"None",NA,"","da",6,5,"1C","auditory"
"294","silence.wav",0,"B",NA,"None",NA,"","da",6,5,"1C","auditory"
"295","silence.wav",0,"B",NA,"None",NA,"","da",6,5,"1C","auditory"
"296","silence.wav",0,"B",NA,"None",NA,"","da",6,5,"1C","auditory"
"297","silence.wav",0,"B",NA,"None",NA,"","da",6,5,"1C","auditory"
"298","silence.wav",0,"B",NA,"None",NA,"","da",6,5,"1C","auditory"
"299","silence.wav",0,"B",NA,"None",NA,"","da",6,5,"1C","auditory"
"300","silence.wav",0,"B",NA,"None",NA,"","da",6,5,"1C","auditory"
"301","ta.wav",505,"R",NA,"None",NA,"","da",6,5,"1C","auditory"
"302","di.wav",506,"R",NA,"None",NA,"","da",6,5,"1C","auditory"
"303","bi.wav",507,"R",NA,"None",NA,"","da",6,5,"1C","auditory"
"304","bu.wav",508,"R",NA,"None",NA,"","da",6,5,"1C","auditory"
"305","du.wav",509,"R",NA,"None",NA,"","da",6,5,"1C","auditory"
"306","da.wav",510,"R",NA,"None",NA,"","da",6,5,"1C","auditory"
"307","ti.wav",511,"R",0.258561476367,"4",NA,"","da",6,5,"1C","auditory"
"308","pu.wav",512,"R",NA,"None",NA,"","da",6,5,"1C","auditory"
"309","di.wav",513,"R",NA,"None",NA,"","da",6,5,"1C","auditory"
"310","ba.wav",514,"R",NA,"None",NA,"","da",6,5,"1C","auditory"
"311","ta.wav",515,"R",NA,"None",NA,"","da",6,5,"1C","auditory"
"312","bi.wav",516,"R",NA,"None",NA,"","da",6,5,"1C","auditory"
"313","pi.wav",517,"R",NA,"None",NA,"","da",6,5,"1C","auditory"
"314","da.wav",518,"R",NA,"None",NA,"","da",6,5,"1C","auditory"
"315","pa.wav",519,"R",0.293651326559,"4",NA,"","da",6,5,"1C","auditory"
"316","pi.wav",520,"R",NA,"None",NA,"","da",6,5,"1C","auditory"
"317","du.wav",521,"R",NA,"None",NA,"","da",6,5,"1C","auditory"
"318","tu.wav",522,"R",NA,"None",NA,"","da",6,5,"1C","auditory"
"319","pa.wav",523,"R",NA,"None",NA,"","da",6,5,"1C","auditory"
"320","tu.wav",524,"R",NA,"None",NA,"","da",6,5,"1C","auditory"
"321","ti.wav",525,"R",NA,"None",NA,"","da",6,5,"1C","auditory"
"322","ba.wav",526,"R",NA,"None",NA,"","da",6,5,"1C","auditory"
"323","bu.wav",527,"R",NA,"None",NA,"","da",6,5,"1C","auditory"
"324","pu.wav",528,"R",NA,"None",NA,"","da",6,5,"1C","auditory"
"325","3A.wav",481,"S",NA,"",NA,"None","da",6,5,"1C","auditory"
"326","3B.wav",482,"S",NA,"",NA,"None","da",6,5,"1C","auditory"
"327","3C.wav",483,"S",NA,"",NA,"None","da",6,5,"1C","auditory"
"328","2A.wav",484,"S",NA,"",NA,"None","da",6,5,"1C","auditory"
"329","2B.wav",485,"S",NA,"",NA,"None","da",6,5,"1C","auditory"
"330","2C.wav",486,"S",NA,"",0.183575812262,"4","da",6,5,"1C","auditory"
"331","1A.wav",487,"S",NA,"",NA,"None","da",6,5,"1C","auditory"
"332","1B.wav",488,"S",NA,"",NA,"None","da",6,5,"1C","auditory"
"333","1C.wav",489,"S",NA,"",NA,"None","da",6,5,"1C","auditory"
"334","4A.wav",490,"S",NA,"",0.141937495209,"4","da",6,5,"1C","auditory"
"335","4B.wav",491,"S",NA,"",NA,"None","da",6,5,"1C","auditory"
"336","4C.wav",492,"S",NA,"",NA,"None","da",6,5,"1C","auditory"
"337","2A.wav",493,"S",NA,"",NA,"None","da",6,5,"1C","auditory"
"338","2B.wav",494,"S",NA,"",NA,"None","da",6,5,"1C","auditory"
"339","2C.wav",495,"S",NA,"",0.250260550529,"4","da",6,5,"1C","auditory"
"340","3A.wav",496,"S",NA,"",NA,"None","da",6,5,"1C","auditory"
"341","3B.wav",497,"S",NA,"",0.250267946161,"4","da",6,5,"1C","auditory"
"342","3C.wav",498,"S",NA,"",NA,"None","da",6,5,"1C","auditory"
"343","1A.wav",499,"S",NA,"",NA,"None","da",6,5,"1C","auditory"
"344","1B.wav",500,"S",NA,"",NA,"None","da",6,5,"1C","auditory"
"345","1C.wav",501,"S",NA,"",NA,"None","da",6,5,"1C","auditory"
"346","4A.wav",502,"S",NA,"",0.0252276118845,"4","da",6,5,"1C","auditory"
"347","4B.wav",503,"S",NA,"",NA,"None","da",6,5,"1C","auditory"
"348","4C.wav",504,"S",NA,"",NA,"None","da",6,5,"1C","auditory"
"349","silence.wav",0,"B",NA,"",NA,"None","da",6,5,"1C","auditory"
"350","silence.wav",0,"B",NA,"",NA,"None","da",6,5,"1C","auditory"
"351","silence.wav",0,"B",NA,"",NA,"None","da",6,5,"1C","auditory"
"352","silence.wav",0,"B",NA,"",NA,"None","da",6,5,"1C","auditory"
"353","silence.wav",0,"B",NA,"",NA,"None","da",6,5,"1C","auditory"
"354","silence.wav",0,"B",NA,"",NA,"None","da",6,5,"1C","auditory"
"355","silence.wav",0,"B",NA,"",NA,"None","da",6,5,"1C","auditory"
"356","silence.wav",0,"B",NA,"",NA,"None","da",6,5,"1C","auditory"
"357","silence.wav",0,"B",NA,"",NA,"None","da",6,5,"1C","auditory"
"358","silence.wav",0,"B",NA,"",NA,"None","da",6,5,"1C","auditory"
"359","silence.wav",0,"B",NA,"",NA,"None","da",6,5,"1C","auditory"
"360","silence.wav",0,"B",NA,"",NA,"None","da",6,5,"1C","auditory"
"361","3A.wav",505,"S",NA,"",NA,"None","da",6,5,"1C","auditory"
"362","3B.wav",506,"S",NA,"",0.391961104004,"4","da",6,5,"1C","auditory"
"363","3C.wav",507,"S",NA,"",NA,"None","da",6,5,"1C","auditory"
"364","4A.wav",508,"S",NA,"",NA,"None","da",6,5,"1C","auditory"
"365","4B.wav",509,"S",NA,"",NA,"None","da",6,5,"1C","auditory"
"366","4C.wav",510,"S",NA,"",NA,"None","da",6,5,"1C","auditory"
"367","2A.wav",511,"S",NA,"",NA,"None","da",6,5,"1C","auditory"
"368","2B.wav",512,"S",NA,"",NA,"None","da",6,5,"1C","auditory"
"369","2C.wav",513,"S",NA,"",0.158613301814,"4","da",6,5,"1C","auditory"
"370","1A.wav",514,"S",NA,"",NA,"None","da",6,5,"1C","auditory"
"371","1B.wav",515,"S",NA,"",0.183585483348,"4","da",6,5,"1C","auditory"
"372","1C.wav",516,"S",NA,"",NA,"None","da",6,5,"1C","auditory"
"373","2A.wav",517,"S",NA,"",0.341962127946,"4","da",6,5,"1C","auditory"
"374","2B.wav",518,"S",NA,"",NA,"None","da",6,5,"1C","auditory"
"375","2C.wav",519,"S",NA,"",0.325284045655,"4","da",6,5,"1C","auditory"
"376","4A.wav",520,"S",NA,"",NA,"None","da",6,5,"1C","auditory"
"377","4B.wav",521,"S",NA,"",NA,"None","da",6,5,"1C","auditory"
"378","4C.wav",522,"S",NA,"",0.0919072302058,"4","da",6,5,"1C","auditory"
"379","3A.wav",523,"S",NA,"",NA,"None","da",6,5,"1C","auditory"
"380","3B.wav",524,"S",NA,"",0.350280973827,"4","da",6,5,"1C","auditory"
"381","3C.wav",525,"S",NA,"",NA,"None","da",6,5,"1C","auditory"
"382","1A.wav",526,"S",NA,"",NA,"None","da",6,5,"1C","auditory"
"383","1B.wav",527,"S",NA,"",NA,"None","da",6,5,"1C","auditory"
"384","1C.wav",528,"S",NA,"",NA,"None","da",6,5,"1C","auditory"
"385","pa.wav",529,"R",NA,"None",NA,"","da",6,5,"1C","auditory"
"386","da.wav",530,"R",NA,"None",NA,"","da",6,5,"1C","auditory"
"387","pi.wav",531,"R",0.216926572612,"4",NA,"","da",6,5,"1C","auditory"
"388","tu.wav",532,"R",NA,"None",NA,"","da",6,5,"1C","auditory"
"389","du.wav",533,"R",NA,"None",NA,"","da",6,5,"1C","auditory"
"390","bi.wav",534,"R",NA,"None",NA,"","da",6,5,"1C","auditory"
"391","ta.wav",535,"R",NA,"None",NA,"","da",6,5,"1C","auditory"
"392","bu.wav",536,"R",NA,"None",NA,"","da",6,5,"1C","auditory"
"393","du.wav",537,"R",NA,"None",NA,"","da",6,5,"1C","auditory"
"394","ti.wav",538,"R",NA,"None",NA,"","da",6,5,"1C","auditory"
"395","bu.wav",539,"R",NA,"None",NA,"","da",6,5,"1C","auditory"
"396","da.wav",540,"R",NA,"None",NA,"","da",6,5,"1C","auditory"
"397","ta.wav",541,"R",NA,"None",NA,"","da",6,5,"1C","auditory"
"398","tu.wav",542,"R",0.175285979873,"4",NA,"","da",6,5,"1C","auditory"
"399","pu.wav",543,"R",NA,"None",NA,"","da",6,5,"1C","auditory"
"400","pi.wav",544,"R",NA,"None",NA,"","da",6,5,"1C","auditory"
"401","ti.wav",545,"R",NA,"None",NA,"","da",6,5,"1C","auditory"
"402","di.wav",546,"R",NA,"None",NA,"","da",6,5,"1C","auditory"
"403","bu.wav",547,"R",NA,"None",NA,"","da",6,5,"1C","auditory"
"404","pa.wav",548,"R",NA,"None",NA,"","da",6,5,"1C","auditory"
"405","bi.wav",549,"R",NA,"None",NA,"","da",6,5,"1C","auditory"
"406","da.wav",550,"R",NA,"None",NA,"","da",6,5,"1C","auditory"
"407","ba.wav",551,"R",0.291941534262,"4",NA,"","da",6,5,"1C","auditory"
"408","pa.wav",552,"R",NA,"None",NA,"","da",6,5,"1C","auditory"
"409","2A.wav",529,"S",NA,"",NA,"None","da",6,5,"1C","auditory"
"410","2B.wav",530,"S",NA,"",NA,"None","da",6,5,"1C","auditory"
"411","2C.wav",531,"S",NA,"",NA,"None","da",6,5,"1C","auditory"
"412","3A.wav",532,"S",NA,"",NA,"None","da",6,5,"1C","auditory"
"413","3B.wav",533,"S",NA,"",0.241925491719,"4","da",6,5,"1C","auditory"
"414","3C.wav",534,"S",NA,"",NA,"None","da",6,5,"1C","auditory"
"415","4A.wav",535,"S",NA,"",0.150214242982,"4","da",6,5,"1C","auditory"
"416","4B.wav",536,"S",NA,"",NA,"None","da",6,5,"1C","auditory"
"417","4C.wav",537,"S",NA,"",NA,"None","da",6,5,"1C","auditory"
"418","2A.wav",538,"S",NA,"",NA,"None","da",6,5,"1C","auditory"
"419","2B.wav",539,"S",NA,"",NA,"None","da",6,5,"1C","auditory"
"420","2C.wav",540,"S",NA,"",NA,"None","da",6,5,"1C","auditory"
"421","3A.wav",541,"S",NA,"",NA,"None","da",6,5,"1C","auditory"
"422","3B.wav",542,"S",NA,"",0.358596405946,"4","da",6,5,"1C","auditory"
"423","3C.wav",543,"S",NA,"",NA,"None","da",6,5,"1C","auditory"
"424","4A.wav",544,"S",NA,"",NA,"None","da",6,5,"1C","auditory"
"425","4B.wav",545,"S",NA,"",NA,"None","da",6,5,"1C","auditory"
"426","4C.wav",546,"S",NA,"",NA,"None","da",6,5,"1C","auditory"
"427","1A.wav",547,"S",NA,"",NA,"None","da",6,5,"1C","auditory"
"428","1B.wav",548,"S",NA,"",NA,"None","da",6,5,"1C","auditory"
"429","1C.wav",549,"S",NA,"",NA,"None","da",6,5,"1C","auditory"
"430","2A.wav",550,"S",NA,"",NA,"None","da",6,5,"1C","auditory"
"431","2B.wav",551,"S",NA,"",NA,"None","da",6,5,"1C","auditory"
"432","2C.wav",552,"S",NA,"",0.24198607821,"4","da",6,5,"1C","auditory"
"433","tu.wav",553,"R",NA,"None",NA,"","da",6,5,"1C","auditory"
"434","du.wav",554,"R",NA,"None",NA,"","da",6,5,"1C","auditory"
"435","ti.wav",555,"R",NA,"None",NA,"","da",6,5,"1C","auditory"
"436","di.wav",556,"R",NA,"None",NA,"","da",6,5,"1C","auditory"
"437","bi.wav",557,"R",NA,"None",NA,"","da",6,5,"1C","auditory"
"438","bu.wav",558,"R",NA,"None",NA,"","da",6,5,"1C","auditory"
"439","di.wav",559,"R",NA,"None",NA,"","da",6,5,"1C","auditory"
"440","da.wav",560,"R",NA,"None",NA,"","da",6,5,"1C","auditory"
"441","ta.wav",561,"R",0.175277446397,"4",NA,"","da",6,5,"1C","auditory"
"442","pu.wav",562,"R",NA,"None",NA,"","da",6,5,"1C","auditory"
"443","ti.wav",563,"R",NA,"None",NA,"","da",6,5,"1C","auditory"
"444","ba.wav",564,"R",NA,"None",NA,"","da",6,5,"1C","auditory"
"445","pa.wav",565,"R",NA,"None",NA,"","da",6,5,"1C","auditory"
"446","pu.wav",566,"R",NA,"None",NA,"","da",6,5,"1C","auditory"
"447","du.wav",567,"R",NA,"None",NA,"","da",6,5,"1C","auditory"
"448","pi.wav",568,"R",NA,"None",NA,"","da",6,5,"1C","auditory"
"449","tu.wav",569,"R",NA,"None",NA,"","da",6,5,"1C","auditory"
"450","ba.wav",570,"R",NA,"None",NA,"","da",6,5,"1C","auditory"
"451","ba.wav",571,"R",NA,"None",NA,"","da",6,5,"1C","auditory"
"452","pu.wav",572,"R",NA,"None",NA,"","da",6,5,"1C","auditory"
"453","di.wav",573,"R",NA,"None",NA,"","da",6,5,"1C","auditory"
"454","pi.wav",574,"R",NA,"None",NA,"","da",6,5,"1C","auditory"
"455","bi.wav",575,"R",NA,"None",NA,"","da",6,5,"1C","auditory"
"456","ta.wav",576,"R",NA,"None",NA,"","da",6,5,"1C","auditory"
"457","1A.wav",553,"S",NA,"",NA,"None","da",6,5,"1C","auditory"
"458","1B.wav",554,"S",NA,"",NA,"None","da",6,5,"1C","auditory"
"459","1C.wav",555,"S",NA,"",NA,"None","da",6,5,"1C","auditory"
"460","4A.wav",556,"S",NA,"",NA,"None","da",6,5,"1C","auditory"
"461","4B.wav",557,"S",NA,"",NA,"None","da",6,5,"1C","auditory"
"462","4C.wav",558,"S",NA,"",NA,"None","da",6,5,"1C","auditory"
"463","3A.wav",559,"S",NA,"",NA,"None","da",6,5,"1C","auditory"
"464","3B.wav",560,"S",NA,"",0.133593049599,"4","da",6,5,"1C","auditory"
"465","3C.wav",561,"S",NA,"",NA,"None","da",6,5,"1C","auditory"
"466","1A.wav",562,"S",NA,"",NA,"None","da",6,5,"1C","auditory"
"467","1B.wav",563,"S",NA,"",NA,"None","da",6,5,"1C","auditory"
"468","1C.wav",564,"S",NA,"",NA,"None","da",6,5,"1C","auditory"
"469","4A.wav",565,"S",NA,"",0.333640437806,"4","da",6,5,"1C","auditory"
"470","4B.wav",566,"S",NA,"",NA,"None","da",6,5,"1C","auditory"
"471","4C.wav",567,"S",NA,"",NA,"None","da",6,5,"1C","auditory"
"472","2A.wav",568,"S",NA,"",NA,"None","da",6,5,"1C","auditory"
"473","2B.wav",569,"S",NA,"",NA,"None","da",6,5,"1C","auditory"
"474","2C.wav",570,"S",NA,"",0.408640039619,"4","da",6,5,"1C","auditory"
"475","3A.wav",571,"S",NA,"",NA,"None","da",6,5,"1C","auditory"
"476","3B.wav",572,"S",NA,"",NA,"None","da",6,5,"1C","auditory"
"477","3C.wav",573,"S",NA,"",0.0502117399592,"4","da",6,5,"1C","auditory"
"478","1A.wav",574,"S",NA,"",NA,"None","da",6,5,"1C","auditory"
"479","1B.wav",575,"S",NA,"",NA,"None","da",6,5,"1C","auditory"
"480","1C.wav",576,"S",NA,"",NA,"None","da",6,5,"1C","auditory"
"481","",NA,"",NA,"",NA,"","da",6,5,"1C","auditory"
"482","",NA,"",NA,"",NA,"","da",6,5,"1C","auditory"
"483","",NA,"",NA,"",NA,"","da",6,5,"1C","auditory"
"484","",NA,"",NA,"",NA,"","da",6,5,"1C","auditory"
"485","",NA,"",NA,"",NA,"","da",6,5,"1C","auditory"
"486","",NA,"",NA,"",NA,"","da",6,5,"1C","auditory"
"487","",NA,"",NA,"",NA,"","da",6,5,"1C","auditory"
"488","",NA,"",NA,"",NA,"","da",6,5,"1C","auditory"
"489","",NA,"",NA,"",NA,"","da",6,5,"1C","auditory"
"490","",NA,"",NA,"",NA,"","da",6,5,"1C","auditory"
"491","",NA,"",NA,"",NA,"","da",6,5,"1C","auditory"
"492","",NA,"",NA,"",NA,"","da",6,5,"1C","auditory"
"493","",NA,"",NA,"",NA,"","da",6,5,"1C","auditory"
"494","",NA,"",NA,"",NA,"","da",6,5,"1C","auditory"
"495","",NA,"",NA,"",NA,"","da",6,5,"1C","auditory"
"496","",NA,"",NA,"",NA,"","da",6,5,"1C","auditory"
"497","",NA,"",NA,"",NA,"","da",6,5,"1C","auditory"
"498","",NA,"",NA,"",NA,"","da",6,5,"1C","auditory"
"499","",NA,"",NA,"",NA,"","da",6,5,"1C","auditory"
"500","",NA,"",NA,"",NA,"","da",6,5,"1C","auditory"
"501","",NA,"",NA,"",NA,"","da",6,5,"1C","auditory"
"502","",NA,"",NA,"",NA,"","da",6,5,"1C","auditory"
"503","",NA,"",NA,"",NA,"","da",6,5,"1C","auditory"
"504","",NA,"",NA,"",NA,"","da",6,5,"1C","auditory"
"505","",NA,"",NA,"",NA,"","da",6,5,"1C","auditory"
"506","",NA,"",NA,"",NA,"","da",6,5,"1C","auditory"
"507","",NA,"",NA,"",NA,"","da",6,5,"1C","auditory"
"508","",NA,"",NA,"",NA,"","da",6,5,"1C","auditory"
"509","",NA,"",NA,"",NA,"","da",6,5,"1C","auditory"
"510","",NA,"",NA,"",NA,"","da",6,5,"1C","auditory"
"511","",NA,"",NA,"",NA,"","da",6,5,"1C","auditory"
