"","soundFile","trialnum","condition","random_block_key_resp.rt","random_block_key_resp.keys","structured_block_key_resp.rt","structured_block_key_resp.keys","starget","Run","PartID","ttarget","expName"
"1","3A.wav",1,"S",NA,"",NA,"None","bi",4,2,"1C","auditory"
"2","3B.wav",2,"S",NA,"",NA,"None","bi",4,2,"1C","auditory"
"3","3C.wav",3,"S",NA,"",NA,"None","bi",4,2,"1C","auditory"
"4","1A.wav",4,"S",NA,"",NA,"None","bi",4,2,"1C","auditory"
"5","1B.wav",5,"S",NA,"",NA,"None","bi",4,2,"1C","auditory"
"6","1C.wav",6,"S",NA,"",NA,"None","bi",4,2,"1C","auditory"
"7","4A.wav",7,"S",NA,"",NA,"None","bi",4,2,"1C","auditory"
"8","4B.wav",8,"S",NA,"",NA,"None","bi",4,2,"1C","auditory"
"9","4C.wav",9,"S",NA,"",NA,"None","bi",4,2,"1C","auditory"
"10","3A.wav",10,"S",NA,"",NA,"None","bi",4,2,"1C","auditory"
"11","3B.wav",11,"S",NA,"",NA,"None","bi",4,2,"1C","auditory"
"12","3C.wav",12,"S",NA,"",NA,"None","bi",4,2,"1C","auditory"
"13","2A.wav",13,"S",NA,"",0.200244507985,"3","bi",4,2,"1C","auditory"
"14","2B.wav",14,"S",NA,"",NA,"None","bi",4,2,"1C","auditory"
"15","2C.wav",15,"S",NA,"",NA,"None","bi",4,2,"1C","auditory"
"16","1A.wav",16,"S",NA,"",NA,"None","bi",4,2,"1C","auditory"
"17","1B.wav",17,"S",NA,"",NA,"None","bi",4,2,"1C","auditory"
"18","1C.wav",18,"S",NA,"",NA,"None","bi",4,2,"1C","auditory"
"19","4A.wav",19,"S",NA,"",0.300248717656,"3","bi",4,2,"1C","auditory"
"20","4B.wav",20,"S",NA,"",NA,"None","bi",4,2,"1C","auditory"
"21","4C.wav",21,"S",NA,"",NA,"None","bi",4,2,"1C","auditory"
"22","3A.wav",22,"S",NA,"",NA,"None","bi",4,2,"1C","auditory"
"23","3B.wav",23,"S",NA,"",NA,"None","bi",4,2,"1C","auditory"
"24","3C.wav",24,"S",NA,"",NA,"None","bi",4,2,"1C","auditory"
"25","silence.wav",0,"B",NA,"",NA,"None","bi",4,2,"1C","auditory"
"26","silence.wav",0,"B",NA,"",NA,"None","bi",4,2,"1C","auditory"
"27","silence.wav",0,"B",NA,"",NA,"None","bi",4,2,"1C","auditory"
"28","silence.wav",0,"B",NA,"",NA,"None","bi",4,2,"1C","auditory"
"29","silence.wav",0,"B",NA,"",NA,"None","bi",4,2,"1C","auditory"
"30","silence.wav",0,"B",NA,"",NA,"None","bi",4,2,"1C","auditory"
"31","silence.wav",0,"B",NA,"",NA,"None","bi",4,2,"1C","auditory"
"32","silence.wav",0,"B",NA,"",NA,"None","bi",4,2,"1C","auditory"
"33","silence.wav",0,"B",NA,"",NA,"None","bi",4,2,"1C","auditory"
"34","silence.wav",0,"B",NA,"",NA,"None","bi",4,2,"1C","auditory"
"35","silence.wav",0,"B",NA,"",NA,"None","bi",4,2,"1C","auditory"
"36","silence.wav",0,"B",NA,"",NA,"None","bi",4,2,"1C","auditory"
"37","bi.wav",1,"R",NA,"None",NA,"","bi",4,2,"1C","auditory"
"38","da.wav",2,"R",NA,"None",NA,"","bi",4,2,"1C","auditory"
"39","pi.wav",3,"R",NA,"None",NA,"","bi",4,2,"1C","auditory"
"40","du.wav",4,"R",0.110113914125,"3",NA,"","bi",4,2,"1C","auditory"
"41","ba.wav",5,"R",NA,"None",NA,"","bi",4,2,"1C","auditory"
"42","ta.wav",6,"R",NA,"None",NA,"","bi",4,2,"1C","auditory"
"43","ti.wav",7,"R",NA,"None",NA,"","bi",4,2,"1C","auditory"
"44","pi.wav",8,"R",NA,"None",NA,"","bi",4,2,"1C","auditory"
"45","bu.wav",9,"R",NA,"None",NA,"","bi",4,2,"1C","auditory"
"46","ta.wav",10,"R",NA,"None",NA,"","bi",4,2,"1C","auditory"
"47","di.wav",11,"R",NA,"None",NA,"","bi",4,2,"1C","auditory"
"48","pi.wav",12,"R",NA,"None",NA,"","bi",4,2,"1C","auditory"
"49","du.wav",13,"R",NA,"None",NA,"","bi",4,2,"1C","auditory"
"50","tu.wav",14,"R",NA,"None",NA,"","bi",4,2,"1C","auditory"
"51","ti.wav",15,"R",NA,"None",NA,"","bi",4,2,"1C","auditory"
"52","tu.wav",16,"R",NA,"None",NA,"","bi",4,2,"1C","auditory"
"53","bi.wav",17,"R",NA,"None",NA,"","bi",4,2,"1C","auditory"
"54","pu.wav",18,"R",0.383734133793,"3",NA,"","bi",4,2,"1C","auditory"
"55","tu.wav",19,"R",NA,"None",NA,"","bi",4,2,"1C","auditory"
"56","ba.wav",20,"R",NA,"None",NA,"","bi",4,2,"1C","auditory"
"57","di.wav",21,"R",NA,"None",NA,"","bi",4,2,"1C","auditory"
"58","pa.wav",22,"R",NA,"None",NA,"","bi",4,2,"1C","auditory"
"59","pu.wav",23,"R",NA,"None",NA,"","bi",4,2,"1C","auditory"
"60","bi.wav",24,"R",NA,"None",NA,"","bi",4,2,"1C","auditory"
"61","2A.wav",25,"S",NA,"",NA,"None","bi",4,2,"1C","auditory"
"62","2B.wav",26,"S",NA,"",NA,"None","bi",4,2,"1C","auditory"
"63","2C.wav",27,"S",NA,"",NA,"None","bi",4,2,"1C","auditory"
"64","1A.wav",28,"S",NA,"",NA,"None","bi",4,2,"1C","auditory"
"65","1B.wav",29,"S",NA,"",NA,"None","bi",4,2,"1C","auditory"
"66","1C.wav",30,"S",NA,"",NA,"None","bi",4,2,"1C","auditory"
"67","2A.wav",31,"S",NA,"",0.225255942671,"3","bi",4,2,"1C","auditory"
"68","2B.wav",32,"S",NA,"",NA,"None","bi",4,2,"1C","auditory"
"69","2C.wav",33,"S",NA,"",NA,"None","bi",4,2,"1C","auditory"
"70","4A.wav",34,"S",NA,"",0.15520367329,"3","bi",4,2,"1C","auditory"
"71","4B.wav",35,"S",NA,"",NA,"None","bi",4,2,"1C","auditory"
"72","4C.wav",36,"S",NA,"",NA,"None","bi",4,2,"1C","auditory"
"73","3A.wav",37,"S",NA,"",NA,"None","bi",4,2,"1C","auditory"
"74","3B.wav",38,"S",NA,"",0.233600103762,"3","bi",4,2,"1C","auditory"
"75","3C.wav",39,"S",NA,"",NA,"None","bi",4,2,"1C","auditory"
"76","4A.wav",40,"S",NA,"",NA,"None","bi",4,2,"1C","auditory"
"77","4B.wav",41,"S",NA,"",NA,"None","bi",4,2,"1C","auditory"
"78","4C.wav",42,"S",NA,"",NA,"None","bi",4,2,"1C","auditory"
"79","3A.wav",43,"S",NA,"",NA,"None","bi",4,2,"1C","auditory"
"80","3B.wav",44,"S",NA,"",NA,"None","bi",4,2,"1C","auditory"
"81","3C.wav",45,"S",NA,"",0.183580932207,"3","bi",4,2,"1C","auditory"
"82","2A.wav",46,"S",NA,"",NA,"None","bi",4,2,"1C","auditory"
"83","2B.wav",47,"S",NA,"",NA,"None","bi",4,2,"1C","auditory"
"84","2C.wav",48,"S",NA,"",NA,"None","bi",4,2,"1C","auditory"
"85","silence.wav",0,"B",NA,"",NA,"None","bi",4,2,"1C","auditory"
"86","silence.wav",0,"B",NA,"",NA,"None","bi",4,2,"1C","auditory"
"87","silence.wav",0,"B",NA,"",NA,"None","bi",4,2,"1C","auditory"
"88","silence.wav",0,"B",NA,"",NA,"None","bi",4,2,"1C","auditory"
"89","silence.wav",0,"B",NA,"",NA,"None","bi",4,2,"1C","auditory"
"90","silence.wav",0,"B",NA,"",NA,"None","bi",4,2,"1C","auditory"
"91","silence.wav",0,"B",NA,"",NA,"None","bi",4,2,"1C","auditory"
"92","silence.wav",0,"B",NA,"",NA,"None","bi",4,2,"1C","auditory"
"93","silence.wav",0,"B",NA,"",NA,"None","bi",4,2,"1C","auditory"
"94","silence.wav",0,"B",NA,"",NA,"None","bi",4,2,"1C","auditory"
"95","silence.wav",0,"B",NA,"",NA,"None","bi",4,2,"1C","auditory"
"96","silence.wav",0,"B",NA,"",NA,"None","bi",4,2,"1C","auditory"
"97","1A.wav",49,"S",NA,"",NA,"None","bi",4,2,"1C","auditory"
"98","1B.wav",50,"S",NA,"",NA,"None","bi",4,2,"1C","auditory"
"99","1C.wav",51,"S",NA,"",NA,"None","bi",4,2,"1C","auditory"
"100","4A.wav",52,"S",NA,"",NA,"None","bi",4,2,"1C","auditory"
"101","4B.wav",53,"S",NA,"",NA,"None","bi",4,2,"1C","auditory"
"102","4C.wav",54,"S",NA,"",NA,"None","bi",4,2,"1C","auditory"
"103","3A.wav",55,"S",NA,"",NA,"None","bi",4,2,"1C","auditory"
"104","3B.wav",56,"S",NA,"",0.150448909495,"3","bi",4,2,"1C","auditory"
"105","3C.wav",57,"S",NA,"",NA,"None","bi",4,2,"1C","auditory"
"106","2A.wav",58,"S",NA,"",NA,"None","bi",4,2,"1C","auditory"
"107","2B.wav",59,"S",NA,"",NA,"None","bi",4,2,"1C","auditory"
"108","2C.wav",60,"S",NA,"",NA,"None","bi",4,2,"1C","auditory"
"109","1A.wav",61,"S",NA,"",NA,"None","bi",4,2,"1C","auditory"
"110","1B.wav",62,"S",NA,"",NA,"None","bi",4,2,"1C","auditory"
"111","1C.wav",63,"S",NA,"",NA,"None","bi",4,2,"1C","auditory"
"112","2A.wav",64,"S",NA,"",0.21688532806,"3","bi",4,2,"1C","auditory"
"113","2B.wav",65,"S",NA,"",NA,"None","bi",4,2,"1C","auditory"
"114","2C.wav",66,"S",NA,"",0.300252984511,"3","bi",4,2,"1C","auditory"
"115","3A.wav",67,"S",NA,"",NA,"None","bi",4,2,"1C","auditory"
"116","3B.wav",68,"S",NA,"",NA,"None","bi",4,2,"1C","auditory"
"117","3C.wav",69,"S",NA,"",NA,"None","bi",4,2,"1C","auditory"
"118","4A.wav",70,"S",NA,"",NA,"None","bi",4,2,"1C","auditory"
"119","4B.wav",71,"S",NA,"",NA,"None","bi",4,2,"1C","auditory"
"120","4C.wav",72,"S",NA,"",NA,"None","bi",4,2,"1C","auditory"
"121","bi.wav",25,"R",NA,"None",NA,"","bi",4,2,"1C","auditory"
"122","bu.wav",26,"R",0.325287459185,"3",NA,"","bi",4,2,"1C","auditory"
"123","pu.wav",27,"R",NA,"None",NA,"","bi",4,2,"1C","auditory"
"124","pi.wav",28,"R",NA,"None",NA,"","bi",4,2,"1C","auditory"
"125","ti.wav",29,"R",NA,"None",NA,"","bi",4,2,"1C","auditory"
"126","ta.wav",30,"R",NA,"None",NA,"","bi",4,2,"1C","auditory"
"127","tu.wav",31,"R",NA,"None",NA,"","bi",4,2,"1C","auditory"
"128","pi.wav",32,"R",NA,"None",NA,"","bi",4,2,"1C","auditory"
"129","ta.wav",33,"R",NA,"None",NA,"","bi",4,2,"1C","auditory"
"130","du.wav",34,"R",NA,"None",NA,"","bi",4,2,"1C","auditory"
"131","tu.wav",35,"R",NA,"None",NA,"","bi",4,2,"1C","auditory"
"132","bu.wav",36,"R",NA,"None",NA,"","bi",4,2,"1C","auditory"
"133","di.wav",37,"R",NA,"None",NA,"","bi",4,2,"1C","auditory"
"134","da.wav",38,"R",NA,"None",NA,"","bi",4,2,"1C","auditory"
"135","pa.wav",39,"R",NA,"None",NA,"","bi",4,2,"1C","auditory"
"136","pa.wav",40,"R",NA,"None",NA,"","bi",4,2,"1C","auditory"
"137","da.wav",41,"R",NA,"None",NA,"","bi",4,2,"1C","auditory"
"138","ba.wav",42,"R",NA,"None",NA,"","bi",4,2,"1C","auditory"
"139","pa.wav",43,"R",NA,"None",NA,"","bi",4,2,"1C","auditory"
"140","ti.wav",44,"R",NA,"None",NA,"","bi",4,2,"1C","auditory"
"141","bu.wav",45,"R",NA,"None",NA,"","bi",4,2,"1C","auditory"
"142","bi.wav",46,"R",NA,"None",NA,"","bi",4,2,"1C","auditory"
"143","du.wav",47,"R",NA,"None",NA,"","bi",4,2,"1C","auditory"
"144","da.wav",48,"R",0.316983404569,"3",NA,"","bi",4,2,"1C","auditory"
"145","silence.wav",0,"B",NA,"None",NA,"","bi",4,2,"1C","auditory"
"146","silence.wav",0,"B",NA,"None",NA,"","bi",4,2,"1C","auditory"
"147","silence.wav",0,"B",NA,"None",NA,"","bi",4,2,"1C","auditory"
"148","silence.wav",0,"B",NA,"None",NA,"","bi",4,2,"1C","auditory"
"149","silence.wav",0,"B",NA,"None",NA,"","bi",4,2,"1C","auditory"
"150","silence.wav",0,"B",NA,"None",NA,"","bi",4,2,"1C","auditory"
"151","silence.wav",0,"B",NA,"None",NA,"","bi",4,2,"1C","auditory"
"152","silence.wav",0,"B",NA,"None",NA,"","bi",4,2,"1C","auditory"
"153","silence.wav",0,"B",NA,"None",NA,"","bi",4,2,"1C","auditory"
"154","silence.wav",0,"B",NA,"None",NA,"","bi",4,2,"1C","auditory"
"155","silence.wav",0,"B",NA,"None",NA,"","bi",4,2,"1C","auditory"
"156","silence.wav",0,"B",NA,"None",NA,"","bi",4,2,"1C","auditory"
"157","pu.wav",49,"R",NA,"None",NA,"","bi",4,2,"1C","auditory"
"158","ba.wav",50,"R",NA,"None",NA,"","bi",4,2,"1C","auditory"
"159","du.wav",51,"R",NA,"None",NA,"","bi",4,2,"1C","auditory"
"160","ta.wav",52,"R",NA,"None",NA,"","bi",4,2,"1C","auditory"
"161","ba.wav",53,"R",NA,"None",NA,"","bi",4,2,"1C","auditory"
"162","ta.wav",54,"R",NA,"None",NA,"","bi",4,2,"1C","auditory"
"163","bu.wav",55,"R",NA,"None",NA,"","bi",4,2,"1C","auditory"
"164","da.wav",56,"R",NA,"None",NA,"","bi",4,2,"1C","auditory"
"165","pa.wav",57,"R",NA,"None",NA,"","bi",4,2,"1C","auditory"
"166","bi.wav",58,"R",NA,"None",NA,"","bi",4,2,"1C","auditory"
"167","ti.wav",59,"R",0.3502909292,"3",NA,"","bi",4,2,"1C","auditory"
"168","pa.wav",60,"R",NA,"None",NA,"","bi",4,2,"1C","auditory"
"169","du.wav",61,"R",NA,"None",NA,"","bi",4,2,"1C","auditory"
"170","tu.wav",62,"R",NA,"None",NA,"","bi",4,2,"1C","auditory"
"171","di.wav",63,"R",NA,"None",NA,"","bi",4,2,"1C","auditory"
"172","bu.wav",64,"R",NA,"None",NA,"","bi",4,2,"1C","auditory"
"173","bi.wav",65,"R",NA,"None",NA,"","bi",4,2,"1C","auditory"
"174","tu.wav",66,"R",NA,"None",NA,"","bi",4,2,"1C","auditory"
"175","pu.wav",67,"R",0.141899948474,"3",NA,"","bi",4,2,"1C","auditory"
"176","ti.wav",68,"R",NA,"None",NA,"","bi",4,2,"1C","auditory"
"177","pi.wav",69,"R",NA,"None",NA,"","bi",4,2,"1C","auditory"
"178","di.wav",70,"R",NA,"None",NA,"","bi",4,2,"1C","auditory"
"179","da.wav",71,"R",NA,"None",NA,"","bi",4,2,"1C","auditory"
"180","pi.wav",72,"R",NA,"None",NA,"","bi",4,2,"1C","auditory"
"181","1A.wav",73,"S",NA,"",NA,"None","bi",4,2,"1C","auditory"
"182","1B.wav",74,"S",NA,"",NA,"None","bi",4,2,"1C","auditory"
"183","1C.wav",75,"S",NA,"",NA,"None","bi",4,2,"1C","auditory"
"184","3A.wav",76,"S",NA,"",0.350267889211,"3","bi",4,2,"1C","auditory"
"185","3B.wav",77,"S",NA,"",NA,"None","bi",4,2,"1C","auditory"
"186","3C.wav",78,"S",NA,"",NA,"None","bi",4,2,"1C","auditory"
"187","2A.wav",79,"S",NA,"",NA,"None","bi",4,2,"1C","auditory"
"188","2B.wav",80,"S",NA,"",NA,"None","bi",4,2,"1C","auditory"
"189","2C.wav",81,"S",NA,"",NA,"None","bi",4,2,"1C","auditory"
"190","4A.wav",82,"S",NA,"",NA,"None","bi",4,2,"1C","auditory"
"191","4B.wav",83,"S",NA,"",NA,"None","bi",4,2,"1C","auditory"
"192","4C.wav",84,"S",NA,"",NA,"None","bi",4,2,"1C","auditory"
"193","1A.wav",85,"S",NA,"",NA,"None","bi",4,2,"1C","auditory"
"194","1B.wav",86,"S",NA,"",NA,"None","bi",4,2,"1C","auditory"
"195","1C.wav",87,"S",NA,"",NA,"None","bi",4,2,"1C","auditory"
"196","2A.wav",88,"S",NA,"",0.124346063472,"3","bi",4,2,"1C","auditory"
"197","2B.wav",89,"S",NA,"",NA,"None","bi",4,2,"1C","auditory"
"198","2C.wav",90,"S",NA,"",NA,"None","bi",4,2,"1C","auditory"
"199","3A.wav",91,"S",NA,"",NA,"None","bi",4,2,"1C","auditory"
"200","3B.wav",92,"S",NA,"",NA,"None","bi",4,2,"1C","auditory"
"201","3C.wav",93,"S",NA,"",NA,"None","bi",4,2,"1C","auditory"
"202","4A.wav",94,"S",NA,"",NA,"None","bi",4,2,"1C","auditory"
"203","4B.wav",95,"S",NA,"",NA,"None","bi",4,2,"1C","auditory"
"204","4C.wav",96,"S",NA,"",NA,"None","bi",4,2,"1C","auditory"
"205","silence.wav",0,"B",NA,"",NA,"None","bi",4,2,"1C","auditory"
"206","silence.wav",0,"B",NA,"",NA,"None","bi",4,2,"1C","auditory"
"207","silence.wav",0,"B",NA,"",NA,"None","bi",4,2,"1C","auditory"
"208","silence.wav",0,"B",NA,"",NA,"None","bi",4,2,"1C","auditory"
"209","silence.wav",0,"B",NA,"",NA,"None","bi",4,2,"1C","auditory"
"210","silence.wav",0,"B",NA,"",NA,"None","bi",4,2,"1C","auditory"
"211","silence.wav",0,"B",NA,"",NA,"None","bi",4,2,"1C","auditory"
"212","silence.wav",0,"B",NA,"",NA,"None","bi",4,2,"1C","auditory"
"213","silence.wav",0,"B",NA,"",NA,"None","bi",4,2,"1C","auditory"
"214","silence.wav",0,"B",NA,"",NA,"None","bi",4,2,"1C","auditory"
"215","silence.wav",0,"B",NA,"",NA,"None","bi",4,2,"1C","auditory"
"216","silence.wav",0,"B",NA,"",NA,"None","bi",4,2,"1C","auditory"
"217","bu.wav",73,"R",NA,"None",NA,"","bi",4,2,"1C","auditory"
"218","pi.wav",74,"R",NA,"None",NA,"","bi",4,2,"1C","auditory"
"219","ba.wav",75,"R",NA,"None",NA,"","bi",4,2,"1C","auditory"
"220","ti.wav",76,"R",NA,"None",NA,"","bi",4,2,"1C","auditory"
"221","ba.wav",77,"R",NA,"None",NA,"","bi",4,2,"1C","auditory"
"222","di.wav",78,"R",NA,"None",NA,"","bi",4,2,"1C","auditory"
"223","tu.wav",79,"R",NA,"None",NA,"","bi",4,2,"1C","auditory"
"224","ta.wav",80,"R",NA,"None",NA,"","bi",4,2,"1C","auditory"
"225","bu.wav",81,"R",NA,"None",NA,"","bi",4,2,"1C","auditory"
"226","du.wav",82,"R",NA,"None",NA,"","bi",4,2,"1C","auditory"
"227","bi.wav",83,"R",NA,"None",NA,"","bi",4,2,"1C","auditory"
"228","pi.wav",84,"R",0.233498841757,"3",NA,"","bi",4,2,"1C","auditory"
"229","du.wav",85,"R",NA,"None",NA,"","bi",4,2,"1C","auditory"
"230","pu.wav",86,"R",NA,"None",NA,"","bi",4,2,"1C","auditory"
"231","ta.wav",87,"R",NA,"None",NA,"","bi",4,2,"1C","auditory"
"232","da.wav",88,"R",NA,"None",NA,"","bi",4,2,"1C","auditory"
"233","pu.wav",89,"R",NA,"None",NA,"","bi",4,2,"1C","auditory"
"234","ti.wav",90,"R",NA,"None",NA,"","bi",4,2,"1C","auditory"
"235","pa.wav",91,"R",NA,"None",NA,"","bi",4,2,"1C","auditory"
"236","pa.wav",92,"R",NA,"None",NA,"","bi",4,2,"1C","auditory"
"237","bi.wav",93,"R",NA,"None",NA,"","bi",4,2,"1C","auditory"
"238","tu.wav",94,"R",NA,"None",NA,"","bi",4,2,"1C","auditory"
"239","di.wav",95,"R",0.100230058189,"3",NA,"","bi",4,2,"1C","auditory"
"240","da.wav",96,"R",NA,"None",NA,"","bi",4,2,"1C","auditory"
"241","3A.wav",97,"S",NA,"",NA,"None","bi",4,2,"1C","auditory"
"242","3B.wav",98,"S",NA,"",NA,"None","bi",4,2,"1C","auditory"
"243","3C.wav",99,"S",NA,"",NA,"None","bi",4,2,"1C","auditory"
"244","1A.wav",100,"S",NA,"",NA,"None","bi",4,2,"1C","auditory"
"245","1B.wav",101,"S",NA,"",NA,"None","bi",4,2,"1C","auditory"
"246","1C.wav",102,"S",NA,"",NA,"None","bi",4,2,"1C","auditory"
"247","2A.wav",103,"S",NA,"",NA,"None","bi",4,2,"1C","auditory"
"248","2B.wav",104,"S",NA,"",NA,"None","bi",4,2,"1C","auditory"
"249","2C.wav",105,"S",NA,"",NA,"None","bi",4,2,"1C","auditory"
"250","4A.wav",106,"S",NA,"",NA,"None","bi",4,2,"1C","auditory"
"251","4B.wav",107,"S",NA,"",NA,"None","bi",4,2,"1C","auditory"
"252","4C.wav",108,"S",NA,"",NA,"None","bi",4,2,"1C","auditory"
"253","1A.wav",109,"S",NA,"",NA,"None","bi",4,2,"1C","auditory"
"254","1B.wav",110,"S",NA,"",NA,"None","bi",4,2,"1C","auditory"
"255","1C.wav",111,"S",NA,"",NA,"None","bi",4,2,"1C","auditory"
"256","3A.wav",112,"S",NA,"",0.216840954963,"3","bi",4,2,"1C","auditory"
"257","3B.wav",113,"S",NA,"",NA,"None","bi",4,2,"1C","auditory"
"258","3C.wav",114,"S",NA,"",NA,"None","bi",4,2,"1C","auditory"
"259","4A.wav",115,"S",NA,"",NA,"None","bi",4,2,"1C","auditory"
"260","4B.wav",116,"S",NA,"",NA,"None","bi",4,2,"1C","auditory"
"261","4C.wav",117,"S",NA,"",NA,"None","bi",4,2,"1C","auditory"
"262","2A.wav",118,"S",NA,"",NA,"None","bi",4,2,"1C","auditory"
"263","2B.wav",119,"S",NA,"",NA,"None","bi",4,2,"1C","auditory"
"264","2C.wav",120,"S",NA,"",NA,"None","bi",4,2,"1C","auditory"
"265","ba.wav",97,"R",NA,"None",NA,"","bi",4,2,"1C","auditory"
"266","bu.wav",98,"R",NA,"None",NA,"","bi",4,2,"1C","auditory"
"267","tu.wav",99,"R",NA,"None",NA,"","bi",4,2,"1C","auditory"
"268","du.wav",100,"R",NA,"None",NA,"","bi",4,2,"1C","auditory"
"269","bu.wav",101,"R",NA,"None",NA,"","bi",4,2,"1C","auditory"
"270","di.wav",102,"R",NA,"None",NA,"","bi",4,2,"1C","auditory"
"271","ti.wav",103,"R",NA,"None",NA,"","bi",4,2,"1C","auditory"
"272","di.wav",104,"R",NA,"None",NA,"","bi",4,2,"1C","auditory"
"273","da.wav",105,"R",NA,"None",NA,"","bi",4,2,"1C","auditory"
"274","da.wav",106,"R",NA,"None",NA,"","bi",4,2,"1C","auditory"
"275","pi.wav",107,"R",NA,"None",NA,"","bi",4,2,"1C","auditory"
"276","tu.wav",108,"R",NA,"None",NA,"","bi",4,2,"1C","auditory"
"277","pa.wav",109,"R",NA,"None",NA,"","bi",4,2,"1C","auditory"
"278","ta.wav",110,"R",NA,"None",NA,"","bi",4,2,"1C","auditory"
"279","ba.wav",111,"R",NA,"None",NA,"","bi",4,2,"1C","auditory"
"280","pu.wav",112,"R",NA,"None",NA,"","bi",4,2,"1C","auditory"
"281","bi.wav",113,"R",NA,"None",NA,"","bi",4,2,"1C","auditory"
"282","ti.wav",114,"R",NA,"None",NA,"","bi",4,2,"1C","auditory"
"283","pi.wav",115,"R",0.000281599350274,"3",NA,"","bi",4,2,"1C","auditory"
"284","du.wav",116,"R",NA,"None",NA,"","bi",4,2,"1C","auditory"
"285","ta.wav",117,"R",NA,"None",NA,"","bi",4,2,"1C","auditory"
"286","pa.wav",118,"R",NA,"None",NA,"","bi",4,2,"1C","auditory"
"287","pu.wav",119,"R",NA,"None",NA,"","bi",4,2,"1C","auditory"
"288","bi.wav",120,"R",NA,"None",NA,"","bi",4,2,"1C","auditory"
"289","silence.wav",0,"B",NA,"None",NA,"","bi",4,2,"1C","auditory"
"290","silence.wav",0,"B",0.325244223699,"3",NA,"","bi",4,2,"1C","auditory"
"291","silence.wav",0,"B",NA,"None",NA,"","bi",4,2,"1C","auditory"
"292","silence.wav",0,"B",NA,"None",NA,"","bi",4,2,"1C","auditory"
"293","silence.wav",0,"B",NA,"None",NA,"","bi",4,2,"1C","auditory"
"294","silence.wav",0,"B",NA,"None",NA,"","bi",4,2,"1C","auditory"
"295","silence.wav",0,"B",NA,"None",NA,"","bi",4,2,"1C","auditory"
"296","silence.wav",0,"B",NA,"None",NA,"","bi",4,2,"1C","auditory"
"297","silence.wav",0,"B",NA,"None",NA,"","bi",4,2,"1C","auditory"
"298","silence.wav",0,"B",NA,"None",NA,"","bi",4,2,"1C","auditory"
"299","silence.wav",0,"B",NA,"None",NA,"","bi",4,2,"1C","auditory"
"300","silence.wav",0,"B",NA,"None",NA,"","bi",4,2,"1C","auditory"
"301","1A.wav",121,"S",NA,"",NA,"None","bi",4,2,"1C","auditory"
"302","1B.wav",122,"S",NA,"",NA,"None","bi",4,2,"1C","auditory"
"303","1C.wav",123,"S",NA,"",NA,"None","bi",4,2,"1C","auditory"
"304","3A.wav",124,"S",NA,"",NA,"None","bi",4,2,"1C","auditory"
"305","3B.wav",125,"S",NA,"",NA,"None","bi",4,2,"1C","auditory"
"306","3C.wav",126,"S",NA,"",NA,"None","bi",4,2,"1C","auditory"
"307","1A.wav",127,"S",NA,"",NA,"None","bi",4,2,"1C","auditory"
"308","1B.wav",128,"S",NA,"",NA,"None","bi",4,2,"1C","auditory"
"309","1C.wav",129,"S",NA,"",NA,"None","bi",4,2,"1C","auditory"
"310","2A.wav",130,"S",NA,"",0.366901029367,"3","bi",4,2,"1C","auditory"
"311","2B.wav",131,"S",NA,"",NA,"None","bi",4,2,"1C","auditory"
"312","2C.wav",132,"S",NA,"",NA,"None","bi",4,2,"1C","auditory"
"313","4A.wav",133,"S",NA,"",NA,"None","bi",4,2,"1C","auditory"
"314","4B.wav",134,"S",NA,"",NA,"None","bi",4,2,"1C","auditory"
"315","4C.wav",135,"S",NA,"",NA,"None","bi",4,2,"1C","auditory"
"316","2A.wav",136,"S",NA,"",NA,"None","bi",4,2,"1C","auditory"
"317","2B.wav",137,"S",NA,"",NA,"None","bi",4,2,"1C","auditory"
"318","2C.wav",138,"S",NA,"",NA,"None","bi",4,2,"1C","auditory"
"319","4A.wav",139,"S",NA,"",0.225238307146,"3","bi",4,2,"1C","auditory"
"320","4B.wav",140,"S",NA,"",NA,"None","bi",4,2,"1C","auditory"
"321","4C.wav",141,"S",NA,"",NA,"None","bi",4,2,"1C","auditory"
"322","1A.wav",142,"S",NA,"",NA,"None","bi",4,2,"1C","auditory"
"323","1B.wav",143,"S",NA,"",NA,"None","bi",4,2,"1C","auditory"
"324","1C.wav",144,"S",NA,"",NA,"None","bi",4,2,"1C","auditory"
"325","pu.wav",121,"R",NA,"None",NA,"","bi",4,2,"1C","auditory"
"326","ti.wav",122,"R",NA,"None",NA,"","bi",4,2,"1C","auditory"
"327","tu.wav",123,"R",NA,"None",NA,"","bi",4,2,"1C","auditory"
"328","ba.wav",124,"R",NA,"None",NA,"","bi",4,2,"1C","auditory"
"329","ta.wav",125,"R",NA,"None",NA,"","bi",4,2,"1C","auditory"
"330","da.wav",126,"R",NA,"None",NA,"","bi",4,2,"1C","auditory"
"331","di.wav",127,"R",NA,"None",NA,"","bi",4,2,"1C","auditory"
"332","ti.wav",128,"R",NA,"None",NA,"","bi",4,2,"1C","auditory"
"333","du.wav",129,"R",NA,"None",NA,"","bi",4,2,"1C","auditory"
"334","da.wav",130,"R",NA,"None",NA,"","bi",4,2,"1C","auditory"
"335","ba.wav",131,"R",NA,"None",NA,"","bi",4,2,"1C","auditory"
"336","bu.wav",132,"R",NA,"None",NA,"","bi",4,2,"1C","auditory"
"337","du.wav",133,"R",NA,"None",NA,"","bi",4,2,"1C","auditory"
"338","di.wav",134,"R",NA,"None",NA,"","bi",4,2,"1C","auditory"
"339","di.wav",135,"R",NA,"None",NA,"","bi",4,2,"1C","auditory"
"340","pu.wav",136,"R",NA,"None",NA,"","bi",4,2,"1C","auditory"
"341","pi.wav",137,"R",NA,"None",NA,"","bi",4,2,"1C","auditory"
"342","pa.wav",138,"R",NA,"None",NA,"","bi",4,2,"1C","auditory"
"343","pa.wav",139,"R",NA,"None",NA,"","bi",4,2,"1C","auditory"
"344","bi.wav",140,"R",NA,"None",NA,"","bi",4,2,"1C","auditory"
"345","ba.wav",141,"R",0.381904590642,"3",NA,"","bi",4,2,"1C","auditory"
"346","pu.wav",142,"R",NA,"None",NA,"","bi",4,2,"1C","auditory"
"347","ta.wav",143,"R",NA,"None",NA,"","bi",4,2,"1C","auditory"
"348","bu.wav",144,"R",NA,"None",NA,"","bi",4,2,"1C","auditory"
"349","silence.wav",0,"B",NA,"None",NA,"","bi",4,2,"1C","auditory"
"350","silence.wav",0,"B",NA,"None",NA,"","bi",4,2,"1C","auditory"
"351","silence.wav",0,"B",NA,"None",NA,"","bi",4,2,"1C","auditory"
"352","silence.wav",0,"B",NA,"None",NA,"","bi",4,2,"1C","auditory"
"353","silence.wav",0,"B",NA,"None",NA,"","bi",4,2,"1C","auditory"
"354","silence.wav",0,"B",NA,"None",NA,"","bi",4,2,"1C","auditory"
"355","silence.wav",0,"B",NA,"None",NA,"","bi",4,2,"1C","auditory"
"356","silence.wav",0,"B",NA,"None",NA,"","bi",4,2,"1C","auditory"
"357","silence.wav",0,"B",NA,"None",NA,"","bi",4,2,"1C","auditory"
"358","silence.wav",0,"B",NA,"None",NA,"","bi",4,2,"1C","auditory"
"359","silence.wav",0,"B",NA,"None",NA,"","bi",4,2,"1C","auditory"
"360","silence.wav",0,"B",NA,"None",NA,"","bi",4,2,"1C","auditory"
"361","di.wav",145,"R",NA,"None",NA,"","bi",4,2,"1C","auditory"
"362","bu.wav",146,"R",NA,"None",NA,"","bi",4,2,"1C","auditory"
"363","bi.wav",147,"R",NA,"None",NA,"","bi",4,2,"1C","auditory"
"364","bi.wav",148,"R",NA,"None",NA,"","bi",4,2,"1C","auditory"
"365","ba.wav",149,"R",0.425263224402,"3",NA,"","bi",4,2,"1C","auditory"
"366","tu.wav",150,"R",0.175225108862,"3",NA,"","bi",4,2,"1C","auditory"
"367","tu.wav",151,"R",NA,"None",NA,"","bi",4,2,"1C","auditory"
"368","pu.wav",152,"R",NA,"None",NA,"","bi",4,2,"1C","auditory"
"369","du.wav",153,"R",NA,"None",NA,"","bi",4,2,"1C","auditory"
"370","ba.wav",154,"R",NA,"None",NA,"","bi",4,2,"1C","auditory"
"371","tu.wav",155,"R",NA,"None",NA,"","bi",4,2,"1C","auditory"
"372","ti.wav",156,"R",NA,"None",NA,"","bi",4,2,"1C","auditory"
"373","ta.wav",157,"R",NA,"None",NA,"","bi",4,2,"1C","auditory"
"374","pa.wav",158,"R",NA,"None",NA,"","bi",4,2,"1C","auditory"
"375","da.wav",159,"R",NA,"None",NA,"","bi",4,2,"1C","auditory"
"376","di.wav",160,"R",NA,"None",NA,"","bi",4,2,"1C","auditory"
"377","pi.wav",161,"R",NA,"None",NA,"","bi",4,2,"1C","auditory"
"378","pu.wav",162,"R",NA,"None",NA,"","bi",4,2,"1C","auditory"
"379","pi.wav",163,"R",NA,"None",NA,"","bi",4,2,"1C","auditory"
"380","bi.wav",164,"R",NA,"None",NA,"","bi",4,2,"1C","auditory"
"381","pa.wav",165,"R",NA,"None",NA,"","bi",4,2,"1C","auditory"
"382","da.wav",166,"R",NA,"None",NA,"","bi",4,2,"1C","auditory"
"383","bu.wav",167,"R",0.383495200891,"3",NA,"","bi",4,2,"1C","auditory"
"384","pi.wav",168,"R",NA,"None",NA,"","bi",4,2,"1C","auditory"
"385","3A.wav",145,"S",NA,"",NA,"None","bi",4,2,"1C","auditory"
"386","3B.wav",146,"S",NA,"",NA,"None","bi",4,2,"1C","auditory"
"387","3C.wav",147,"S",NA,"",NA,"None","bi",4,2,"1C","auditory"
"388","4A.wav",148,"S",NA,"",NA,"None","bi",4,2,"1C","auditory"
"389","4B.wav",149,"S",NA,"",NA,"None","bi",4,2,"1C","auditory"
"390","4C.wav",150,"S",NA,"",NA,"None","bi",4,2,"1C","auditory"
"391","3A.wav",151,"S",NA,"",NA,"None","bi",4,2,"1C","auditory"
"392","3B.wav",152,"S",NA,"",NA,"None","bi",4,2,"1C","auditory"
"393","3C.wav",153,"S",NA,"",NA,"None","bi",4,2,"1C","auditory"
"394","2A.wav",154,"S",NA,"",NA,"None","bi",4,2,"1C","auditory"
"395","2B.wav",155,"S",NA,"",NA,"None","bi",4,2,"1C","auditory"
"396","2C.wav",156,"S",NA,"",NA,"None","bi",4,2,"1C","auditory"
"397","1A.wav",157,"S",NA,"",NA,"None","bi",4,2,"1C","auditory"
"398","1B.wav",158,"S",NA,"",NA,"None","bi",4,2,"1C","auditory"
"399","1C.wav",159,"S",NA,"",NA,"None","bi",4,2,"1C","auditory"
"400","3A.wav",160,"S",NA,"",NA,"None","bi",4,2,"1C","auditory"
"401","3B.wav",161,"S",NA,"",0.141957121901,"3","bi",4,2,"1C","auditory"
"402","3C.wav",162,"S",NA,"",NA,"None","bi",4,2,"1C","auditory"
"403","2A.wav",163,"S",NA,"",NA,"None","bi",4,2,"1C","auditory"
"404","2B.wav",164,"S",NA,"",NA,"None","bi",4,2,"1C","auditory"
"405","2C.wav",165,"S",NA,"",NA,"None","bi",4,2,"1C","auditory"
"406","1A.wav",166,"S",NA,"",NA,"None","bi",4,2,"1C","auditory"
"407","1B.wav",167,"S",NA,"",NA,"None","bi",4,2,"1C","auditory"
"408","1C.wav",168,"S",NA,"",NA,"None","bi",4,2,"1C","auditory"
"409","silence.wav",0,"B",NA,"",0.225245133741,"3","bi",4,2,"1C","auditory"
"410","silence.wav",0,"B",NA,"",NA,"None","bi",4,2,"1C","auditory"
"411","silence.wav",0,"B",NA,"",NA,"None","bi",4,2,"1C","auditory"
"412","silence.wav",0,"B",NA,"",NA,"None","bi",4,2,"1C","auditory"
"413","silence.wav",0,"B",NA,"",NA,"None","bi",4,2,"1C","auditory"
"414","silence.wav",0,"B",NA,"",NA,"None","bi",4,2,"1C","auditory"
"415","silence.wav",0,"B",NA,"",NA,"None","bi",4,2,"1C","auditory"
"416","silence.wav",0,"B",NA,"",NA,"None","bi",4,2,"1C","auditory"
"417","silence.wav",0,"B",NA,"",NA,"None","bi",4,2,"1C","auditory"
"418","silence.wav",0,"B",NA,"",NA,"None","bi",4,2,"1C","auditory"
"419","silence.wav",0,"B",NA,"",NA,"None","bi",4,2,"1C","auditory"
"420","silence.wav",0,"B",NA,"",NA,"None","bi",4,2,"1C","auditory"
"421","4A.wav",169,"S",NA,"",NA,"None","bi",4,2,"1C","auditory"
"422","4B.wav",170,"S",NA,"",NA,"None","bi",4,2,"1C","auditory"
"423","4C.wav",171,"S",NA,"",NA,"None","bi",4,2,"1C","auditory"
"424","1A.wav",172,"S",NA,"",NA,"None","bi",4,2,"1C","auditory"
"425","1B.wav",173,"S",NA,"",NA,"None","bi",4,2,"1C","auditory"
"426","1C.wav",174,"S",NA,"",NA,"None","bi",4,2,"1C","auditory"
"427","3A.wav",175,"S",NA,"",0.425283704419,"3","bi",4,2,"1C","auditory"
"428","3B.wav",176,"S",NA,"",NA,"None","bi",4,2,"1C","auditory"
"429","3C.wav",177,"S",NA,"",NA,"None","bi",4,2,"1C","auditory"
"430","4A.wav",178,"S",NA,"",NA,"None","bi",4,2,"1C","auditory"
"431","4B.wav",179,"S",NA,"",0.083573593758,"3","bi",4,2,"1C","auditory"
"432","4C.wav",180,"S",NA,"",NA,"None","bi",4,2,"1C","auditory"
"433","2A.wav",181,"S",NA,"",NA,"None","bi",4,2,"1C","auditory"
"434","2B.wav",182,"S",NA,"",NA,"None","bi",4,2,"1C","auditory"
"435","2C.wav",183,"S",NA,"",0.341873666039,"3","bi",4,2,"1C","auditory"
"436","4A.wav",184,"S",NA,"",NA,"None","bi",4,2,"1C","auditory"
"437","4B.wav",185,"S",NA,"",NA,"None","bi",4,2,"1C","auditory"
"438","4C.wav",186,"S",NA,"",NA,"None","bi",4,2,"1C","auditory"
"439","1A.wav",187,"S",NA,"",NA,"None","bi",4,2,"1C","auditory"
"440","1B.wav",188,"S",NA,"",NA,"None","bi",4,2,"1C","auditory"
"441","1C.wav",189,"S",NA,"",NA,"None","bi",4,2,"1C","auditory"
"442","2A.wav",190,"S",NA,"",NA,"None","bi",4,2,"1C","auditory"
"443","2B.wav",191,"S",NA,"",NA,"None","bi",4,2,"1C","auditory"
"444","2C.wav",192,"S",NA,"",NA,"None","bi",4,2,"1C","auditory"
"445","silence.wav",0,"B",NA,"",NA,"None","bi",4,2,"1C","auditory"
"446","silence.wav",0,"B",NA,"",NA,"None","bi",4,2,"1C","auditory"
"447","silence.wav",0,"B",NA,"",NA,"None","bi",4,2,"1C","auditory"
"448","silence.wav",0,"B",NA,"",NA,"None","bi",4,2,"1C","auditory"
"449","silence.wav",0,"B",NA,"",NA,"None","bi",4,2,"1C","auditory"
"450","silence.wav",0,"B",NA,"",NA,"None","bi",4,2,"1C","auditory"
"451","silence.wav",0,"B",NA,"",NA,"None","bi",4,2,"1C","auditory"
"452","silence.wav",0,"B",NA,"",NA,"None","bi",4,2,"1C","auditory"
"453","silence.wav",0,"B",NA,"",NA,"None","bi",4,2,"1C","auditory"
"454","silence.wav",0,"B",NA,"",NA,"None","bi",4,2,"1C","auditory"
"455","silence.wav",0,"B",NA,"",NA,"None","bi",4,2,"1C","auditory"
"456","silence.wav",0,"B",NA,"",NA,"None","bi",4,2,"1C","auditory"
"457","pa.wav",169,"R",NA,"None",NA,"","bi",4,2,"1C","auditory"
"458","ba.wav",170,"R",NA,"None",NA,"","bi",4,2,"1C","auditory"
"459","ta.wav",171,"R",NA,"None",NA,"","bi",4,2,"1C","auditory"
"460","pi.wav",172,"R",NA,"None",NA,"","bi",4,2,"1C","auditory"
"461","di.wav",173,"R",NA,"None",NA,"","bi",4,2,"1C","auditory"
"462","pa.wav",174,"R",NA,"None",NA,"","bi",4,2,"1C","auditory"
"463","ti.wav",175,"R",NA,"None",NA,"","bi",4,2,"1C","auditory"
"464","bi.wav",176,"R",NA,"None",NA,"","bi",4,2,"1C","auditory"
"465","ti.wav",177,"R",0.333648117958,"3",NA,"","bi",4,2,"1C","auditory"
"466","tu.wav",178,"R",NA,"None",NA,"","bi",4,2,"1C","auditory"
"467","bu.wav",179,"R",NA,"None",NA,"","bi",4,2,"1C","auditory"
"468","du.wav",180,"R",NA,"None",NA,"","bi",4,2,"1C","auditory"
"469","du.wav",181,"R",NA,"None",NA,"","bi",4,2,"1C","auditory"
"470","pu.wav",182,"R",NA,"None",NA,"","bi",4,2,"1C","auditory"
"471","da.wav",183,"R",NA,"None",NA,"","bi",4,2,"1C","auditory"
"472","ba.wav",184,"R",NA,"None",NA,"","bi",4,2,"1C","auditory"
"473","ta.wav",185,"R",NA,"None",NA,"","bi",4,2,"1C","auditory"
"474","da.wav",186,"R",NA,"None",NA,"","bi",4,2,"1C","auditory"
"475","ti.wav",187,"R",NA,"None",NA,"","bi",4,2,"1C","auditory"
"476","pu.wav",188,"R",NA,"None",NA,"","bi",4,2,"1C","auditory"
"477","ta.wav",189,"R",NA,"None",NA,"","bi",4,2,"1C","auditory"
"478","du.wav",190,"R",NA,"None",NA,"","bi",4,2,"1C","auditory"
"479","bu.wav",191,"R",NA,"None",NA,"","bi",4,2,"1C","auditory"
"480","di.wav",192,"R",NA,"None",NA,"","bi",4,2,"1C","auditory"
