"","soundFile","trialnum","condition","random_block_key_resp.rt","random_block_key_resp.keys","structured_block_key_resp.rt","structured_block_key_resp.keys","starget","Run","PartID","ttarget","expName"
"1","4A.wav",193,"R",NA,"None",NA,"","du",2,3,"2c","auditory"
"2","2B.wav",194,"R",NA,"None",NA,"","du",2,3,"2c","auditory"
"3","2C.wav",195,"R",NA,"None",NA,"","du",2,3,"2c","auditory"
"4","1C.wav",196,"R",0.2336248504,"3",NA,"","du",2,3,"2c","auditory"
"5","3B.wav",197,"R",NA,"None",NA,"","du",2,3,"2c","auditory"
"6","4C.wav",198,"R",NA,"None",NA,"","du",2,3,"2c","auditory"
"7","2B.wav",199,"R",NA,"None",NA,"","du",2,3,"2c","auditory"
"8","3A.wav",200,"R",0.0752288636286,"3",NA,"","du",2,3,"2c","auditory"
"9","2A.wav",201,"R",NA,"None",NA,"","du",2,3,"2c","auditory"
"10","2C.wav",202,"R",NA,"None",NA,"","du",2,3,"2c","auditory"
"11","3A.wav",203,"R",0.175274886657,"3",NA,"","du",2,3,"2c","auditory"
"12","1B.wav",204,"R",NA,"None",NA,"","du",2,3,"2c","auditory"
"13","3C.wav",205,"R",NA,"None",NA,"","du",2,3,"2c","auditory"
"14","1C.wav",206,"R",NA,"None",NA,"","du",2,3,"2c","auditory"
"15","1A.wav",207,"R",NA,"None",NA,"","du",2,3,"2c","auditory"
"16","3B.wav",208,"R",NA,"None",NA,"","du",2,3,"2c","auditory"
"17","4B.wav",209,"R",NA,"None",NA,"","du",2,3,"2c","auditory"
"18","1B.wav",210,"R",NA,"None",NA,"","du",2,3,"2c","auditory"
"19","4A.wav",211,"R",NA,"None",NA,"","du",2,3,"2c","auditory"
"20","4C.wav",212,"R",NA,"None",NA,"","du",2,3,"2c","auditory"
"21","2A.wav",213,"R",NA,"None",NA,"","du",2,3,"2c","auditory"
"22","1A.wav",214,"R",NA,"None",NA,"","du",2,3,"2c","auditory"
"23","4B.wav",215,"R",NA,"None",NA,"","du",2,3,"2c","auditory"
"24","3C.wav",216,"R",NA,"None",NA,"","du",2,3,"2c","auditory"
"25","pi.wav",193,"S",NA,"",NA,"None","du",2,3,"2c","auditory"
"26","tu.wav",194,"S",NA,"",NA,"None","du",2,3,"2c","auditory"
"27","bi.wav",195,"S",NA,"",NA,"None","du",2,3,"2c","auditory"
"28","bu.wav",196,"S",NA,"",0.141895397566,"3","du",2,3,"2c","auditory"
"29","pa.wav",197,"S",NA,"",NA,"None","du",2,3,"2c","auditory"
"30","da.wav",198,"S",NA,"",NA,"None","du",2,3,"2c","auditory"
"31","di.wav",199,"S",NA,"",NA,"None","du",2,3,"2c","auditory"
"32","ba.wav",200,"S",NA,"",NA,"None","du",2,3,"2c","auditory"
"33","pu.wav",201,"S",NA,"",NA,"None","du",2,3,"2c","auditory"
"34","ta.wav",202,"S",NA,"",0.425287117716,"3","du",2,3,"2c","auditory"
"35","ti.wav",203,"S",NA,"",NA,"None","du",2,3,"2c","auditory"
"36","du.wav",204,"S",NA,"",NA,"None","du",2,3,"2c","auditory"
"37","bu.wav",205,"S",NA,"",0.375222150702,"3","du",2,3,"2c","auditory"
"38","pa.wav",206,"S",NA,"",NA,"None","du",2,3,"2c","auditory"
"39","da.wav",207,"S",NA,"",NA,"None","du",2,3,"2c","auditory"
"40","pi.wav",208,"S",NA,"",NA,"None","du",2,3,"2c","auditory"
"41","tu.wav",209,"S",NA,"",NA,"None","du",2,3,"2c","auditory"
"42","bi.wav",210,"S",NA,"",0.19193419558,"3","du",2,3,"2c","auditory"
"43","di.wav",211,"S",NA,"",NA,"None","du",2,3,"2c","auditory"
"44","ba.wav",212,"S",NA,"",NA,"None","du",2,3,"2c","auditory"
"45","pu.wav",213,"S",NA,"",NA,"None","du",2,3,"2c","auditory"
"46","ta.wav",214,"S",NA,"",NA,"None","du",2,3,"2c","auditory"
"47","ti.wav",215,"S",NA,"",NA,"None","du",2,3,"2c","auditory"
"48","du.wav",216,"S",NA,"",NA,"None","du",2,3,"2c","auditory"
"49","2C.wav",217,"R",NA,"None",NA,"","du",2,3,"2c","auditory"
"50","1C.wav",218,"R",NA,"None",NA,"","du",2,3,"2c","auditory"
"51","3A.wav",219,"R",NA,"None",NA,"","du",2,3,"2c","auditory"
"52","3B.wav",220,"R",NA,"None",NA,"","du",2,3,"2c","auditory"
"53","3C.wav",221,"R",NA,"None",NA,"","du",2,3,"2c","auditory"
"54","1A.wav",222,"R",NA,"None",NA,"","du",2,3,"2c","auditory"
"55","3B.wav",223,"R",NA,"None",NA,"","du",2,3,"2c","auditory"
"56","4A.wav",224,"R",NA,"None",NA,"","du",2,3,"2c","auditory"
"57","4C.wav",225,"R",NA,"None",NA,"","du",2,3,"2c","auditory"
"58","1B.wav",226,"R",0.0974592904095,"3",NA,"","du",2,3,"2c","auditory"
"59","3A.wav",227,"R",NA,"None",NA,"","du",2,3,"2c","auditory"
"60","4C.wav",228,"R",NA,"None",NA,"","du",2,3,"2c","auditory"
"61","2C.wav",229,"R",NA,"None",NA,"","du",2,3,"2c","auditory"
"62","4B.wav",230,"R",0.266911610961,"3",NA,"","du",2,3,"2c","auditory"
"63","3C.wav",231,"R",NA,"None",NA,"","du",2,3,"2c","auditory"
"64","1A.wav",232,"R",NA,"None",NA,"","du",2,3,"2c","auditory"
"65","2A.wav",233,"R",NA,"None",NA,"","du",2,3,"2c","auditory"
"66","2A.wav",234,"R",NA,"None",NA,"","du",2,3,"2c","auditory"
"67","4B.wav",235,"R",NA,"None",NA,"","du",2,3,"2c","auditory"
"68","4A.wav",236,"R",NA,"None",NA,"","du",2,3,"2c","auditory"
"69","1B.wav",237,"R",NA,"None",NA,"","du",2,3,"2c","auditory"
"70","1C.wav",238,"R",NA,"None",NA,"","du",2,3,"2c","auditory"
"71","2B.wav",239,"R",NA,"None",NA,"","du",2,3,"2c","auditory"
"72","2B.wav",240,"R",NA,"None",NA,"","du",2,3,"2c","auditory"
"73","pi.wav",217,"S",NA,"",NA,"None","du",2,3,"2c","auditory"
"74","tu.wav",218,"S",NA,"",NA,"None","du",2,3,"2c","auditory"
"75","bi.wav",219,"S",NA,"",NA,"None","du",2,3,"2c","auditory"
"76","ta.wav",220,"S",NA,"",NA,"None","du",2,3,"2c","auditory"
"77","ti.wav",221,"S",NA,"",NA,"None","du",2,3,"2c","auditory"
"78","du.wav",222,"S",NA,"",NA,"None","du",2,3,"2c","auditory"
"79","bu.wav",223,"S",NA,"",0.216907514958,"3","du",2,3,"2c","auditory"
"80","pa.wav",224,"S",NA,"",NA,"None","du",2,3,"2c","auditory"
"81","da.wav",225,"S",NA,"",0.0805078574922,"3","du",2,3,"2c","auditory"
"82","di.wav",226,"S",NA,"",NA,"None","du",2,3,"2c","auditory"
"83","ba.wav",227,"S",NA,"",NA,"None","du",2,3,"2c","auditory"
"84","pu.wav",228,"S",NA,"",NA,"None","du",2,3,"2c","auditory"
"85","bu.wav",229,"S",NA,"",NA,"None","du",2,3,"2c","auditory"
"86","pa.wav",230,"S",NA,"",NA,"None","du",2,3,"2c","auditory"
"87","da.wav",231,"S",NA,"",NA,"None","du",2,3,"2c","auditory"
"88","ta.wav",232,"S",NA,"",NA,"None","du",2,3,"2c","auditory"
"89","ti.wav",233,"S",NA,"",NA,"None","du",2,3,"2c","auditory"
"90","du.wav",234,"S",NA,"",NA,"None","du",2,3,"2c","auditory"
"91","pi.wav",235,"S",NA,"",0.266888001934,"3","du",2,3,"2c","auditory"
"92","tu.wav",236,"S",NA,"",NA,"None","du",2,3,"2c","auditory"
"93","bi.wav",237,"S",NA,"",0.425298779737,"3","du",2,3,"2c","auditory"
"94","di.wav",238,"S",NA,"",NA,"None","du",2,3,"2c","auditory"
"95","ba.wav",239,"S",NA,"",NA,"None","du",2,3,"2c","auditory"
"96","pu.wav",240,"S",NA,"",NA,"None","du",2,3,"2c","auditory"
"97","silence.wav",0,"B",NA,"",NA,"None","du",2,3,"2c","auditory"
"98","silence.wav",0,"B",NA,"",NA,"None","du",2,3,"2c","auditory"
"99","silence.wav",0,"B",NA,"",NA,"None","du",2,3,"2c","auditory"
"100","silence.wav",0,"B",NA,"",NA,"None","du",2,3,"2c","auditory"
"101","silence.wav",0,"B",NA,"",NA,"None","du",2,3,"2c","auditory"
"102","silence.wav",0,"B",NA,"",NA,"None","du",2,3,"2c","auditory"
"103","silence.wav",0,"B",NA,"",NA,"None","du",2,3,"2c","auditory"
"104","silence.wav",0,"B",NA,"",NA,"None","du",2,3,"2c","auditory"
"105","silence.wav",0,"B",NA,"",NA,"None","du",2,3,"2c","auditory"
"106","silence.wav",0,"B",NA,"",NA,"None","du",2,3,"2c","auditory"
"107","silence.wav",0,"B",NA,"",NA,"None","du",2,3,"2c","auditory"
"108","silence.wav",0,"B",NA,"",NA,"None","du",2,3,"2c","auditory"
"109","4C.wav",241,"R",NA,"None",NA,"","du",2,3,"2c","auditory"
"110","3C.wav",242,"R",NA,"None",NA,"","du",2,3,"2c","auditory"
"111","3B.wav",243,"R",NA,"None",NA,"","du",2,3,"2c","auditory"
"112","4B.wav",244,"R",NA,"None",NA,"","du",2,3,"2c","auditory"
"113","2C.wav",245,"R",NA,"None",NA,"","du",2,3,"2c","auditory"
"114","2B.wav",246,"R",0.0835300735198,"3",NA,"","du",2,3,"2c","auditory"
"115","1C.wav",247,"R",NA,"None",NA,"","du",2,3,"2c","auditory"
"116","1A.wav",248,"R",NA,"None",NA,"","du",2,3,"2c","auditory"
"117","4C.wav",249,"R",NA,"None",NA,"","du",2,3,"2c","auditory"
"118","3C.wav",250,"R",0.266884019831,"3",NA,"","du",2,3,"2c","auditory"
"119","4B.wav",251,"R",NA,"None",NA,"","du",2,3,"2c","auditory"
"120","3A.wav",252,"R",0.400269425241,"3",NA,"","du",2,3,"2c","auditory"
"121","2C.wav",253,"R",NA,"None",NA,"","du",2,3,"2c","auditory"
"122","2C.wav",254,"R",0.375273635145,"3",NA,"","du",2,3,"2c","auditory"
"123","3B.wav",255,"R",NA,"None",NA,"","du",2,3,"2c","auditory"
"124","2A.wav",256,"R",NA,"None",NA,"","du",2,3,"2c","auditory"
"125","1B.wav",257,"R",NA,"None",NA,"","du",2,3,"2c","auditory"
"126","3A.wav",258,"R",NA,"None",NA,"","du",2,3,"2c","auditory"
"127","2A.wav",259,"R",NA,"None",NA,"","du",2,3,"2c","auditory"
"128","4A.wav",260,"R",NA,"None",NA,"","du",2,3,"2c","auditory"
"129","2A.wav",261,"R",NA,"None",NA,"","du",2,3,"2c","auditory"
"130","2B.wav",262,"R",NA,"None",NA,"","du",2,3,"2c","auditory"
"131","4A.wav",263,"R",NA,"None",NA,"","du",2,3,"2c","auditory"
"132","2B.wav",264,"R",NA,"None",NA,"","du",2,3,"2c","auditory"
"133","bu.wav",241,"S",NA,"",NA,"None","du",2,3,"2c","auditory"
"134","pa.wav",242,"S",NA,"",NA,"None","du",2,3,"2c","auditory"
"135","da.wav",243,"S",NA,"",0.0918839059304,"3","du",2,3,"2c","auditory"
"136","pi.wav",244,"S",NA,"",NA,"None","du",2,3,"2c","auditory"
"137","tu.wav",245,"S",NA,"",NA,"None","du",2,3,"2c","auditory"
"138","bi.wav",246,"S",NA,"",NA,"None","du",2,3,"2c","auditory"
"139","ta.wav",247,"S",NA,"",0.300257819938,"3","du",2,3,"2c","auditory"
"140","ti.wav",248,"S",NA,"",NA,"None","du",2,3,"2c","auditory"
"141","du.wav",249,"S",NA,"",NA,"None","du",2,3,"2c","auditory"
"142","bu.wav",250,"S",NA,"",0.216916901525,"3","du",2,3,"2c","auditory"
"143","pa.wav",251,"S",NA,"",NA,"None","du",2,3,"2c","auditory"
"144","da.wav",252,"S",NA,"",NA,"None","du",2,3,"2c","auditory"
"145","pi.wav",253,"S",NA,"",NA,"None","du",2,3,"2c","auditory"
"146","tu.wav",254,"S",NA,"",NA,"None","du",2,3,"2c","auditory"
"147","bi.wav",255,"S",NA,"",0.151580711361,"3","du",2,3,"2c","auditory"
"148","ta.wav",256,"S",NA,"",NA,"None","du",2,3,"2c","auditory"
"149","ti.wav",257,"S",NA,"",NA,"None","du",2,3,"2c","auditory"
"150","du.wav",258,"S",NA,"",NA,"None","du",2,3,"2c","auditory"
"151","di.wav",259,"S",NA,"",0.0765663185157,"3","du",2,3,"2c","auditory"
"152","ba.wav",260,"S",NA,"",NA,"None","du",2,3,"2c","auditory"
"153","pu.wav",261,"S",NA,"",NA,"None","du",2,3,"2c","auditory"
"154","bu.wav",262,"S",NA,"",NA,"None","du",2,3,"2c","auditory"
"155","pa.wav",263,"S",NA,"",NA,"None","du",2,3,"2c","auditory"
"156","da.wav",264,"S",NA,"",NA,"None","du",2,3,"2c","auditory"
"157","silence.wav",0,"B",NA,"",NA,"None","du",2,3,"2c","auditory"
"158","silence.wav",0,"B",NA,"",NA,"None","du",2,3,"2c","auditory"
"159","silence.wav",0,"B",NA,"",NA,"None","du",2,3,"2c","auditory"
"160","silence.wav",0,"B",NA,"",NA,"None","du",2,3,"2c","auditory"
"161","silence.wav",0,"B",NA,"",NA,"None","du",2,3,"2c","auditory"
"162","silence.wav",0,"B",NA,"",NA,"None","du",2,3,"2c","auditory"
"163","silence.wav",0,"B",NA,"",NA,"None","du",2,3,"2c","auditory"
"164","silence.wav",0,"B",NA,"",NA,"None","du",2,3,"2c","auditory"
"165","silence.wav",0,"B",NA,"",NA,"None","du",2,3,"2c","auditory"
"166","silence.wav",0,"B",NA,"",NA,"None","du",2,3,"2c","auditory"
"167","silence.wav",0,"B",NA,"",NA,"None","du",2,3,"2c","auditory"
"168","silence.wav",0,"B",NA,"",NA,"None","du",2,3,"2c","auditory"
"169","di.wav",265,"S",NA,"",NA,"None","du",2,3,"2c","auditory"
"170","ba.wav",266,"S",NA,"",NA,"None","du",2,3,"2c","auditory"
"171","pu.wav",267,"S",NA,"",NA,"None","du",2,3,"2c","auditory"
"172","ta.wav",268,"S",NA,"",NA,"None","du",2,3,"2c","auditory"
"173","ti.wav",269,"S",NA,"",NA,"None","du",2,3,"2c","auditory"
"174","du.wav",270,"S",NA,"",NA,"None","du",2,3,"2c","auditory"
"175","pi.wav",271,"S",NA,"",0.208588953363,"3","du",2,3,"2c","auditory"
"176","tu.wav",272,"S",NA,"",NA,"None","du",2,3,"2c","auditory"
"177","bi.wav",273,"S",NA,"",0.308560736943,"3","du",2,3,"2c","auditory"
"178","di.wav",274,"S",NA,"",NA,"None","du",2,3,"2c","auditory"
"179","ba.wav",275,"S",NA,"",NA,"None","du",2,3,"2c","auditory"
"180","pu.wav",276,"S",NA,"",NA,"None","du",2,3,"2c","auditory"
"181","ta.wav",277,"S",NA,"",NA,"None","du",2,3,"2c","auditory"
"182","ti.wav",278,"S",NA,"",NA,"None","du",2,3,"2c","auditory"
"183","du.wav",279,"S",NA,"",NA,"None","du",2,3,"2c","auditory"
"184","bu.wav",280,"S",NA,"",0.300264646532,"3","du",2,3,"2c","auditory"
"185","pa.wav",281,"S",NA,"",NA,"None","du",2,3,"2c","auditory"
"186","da.wav",282,"S",NA,"",NA,"None","du",2,3,"2c","auditory"
"187","pi.wav",283,"S",NA,"",NA,"None","du",2,3,"2c","auditory"
"188","tu.wav",284,"S",NA,"",NA,"None","du",2,3,"2c","auditory"
"189","bi.wav",285,"S",NA,"",0.175241037738,"3","du",2,3,"2c","auditory"
"190","di.wav",286,"S",NA,"",NA,"None","du",2,3,"2c","auditory"
"191","ba.wav",287,"S",NA,"",NA,"None","du",2,3,"2c","auditory"
"192","pu.wav",288,"S",NA,"",NA,"None","du",2,3,"2c","auditory"
"193","silence.wav",0,"B",NA,"",NA,"None","du",2,3,"2c","auditory"
"194","silence.wav",0,"B",NA,"",NA,"None","du",2,3,"2c","auditory"
"195","silence.wav",0,"B",NA,"",NA,"None","du",2,3,"2c","auditory"
"196","silence.wav",0,"B",NA,"",NA,"None","du",2,3,"2c","auditory"
"197","silence.wav",0,"B",NA,"",NA,"None","du",2,3,"2c","auditory"
"198","silence.wav",0,"B",NA,"",NA,"None","du",2,3,"2c","auditory"
"199","silence.wav",0,"B",NA,"",NA,"None","du",2,3,"2c","auditory"
"200","silence.wav",0,"B",NA,"",NA,"None","du",2,3,"2c","auditory"
"201","silence.wav",0,"B",NA,"",NA,"None","du",2,3,"2c","auditory"
"202","silence.wav",0,"B",NA,"",NA,"None","du",2,3,"2c","auditory"
"203","silence.wav",0,"B",NA,"",NA,"None","du",2,3,"2c","auditory"
"204","silence.wav",0,"B",NA,"",NA,"None","du",2,3,"2c","auditory"
"205","pi.wav",289,"S",NA,"",NA,"None","du",2,3,"2c","auditory"
"206","tu.wav",290,"S",NA,"",NA,"None","du",2,3,"2c","auditory"
"207","bi.wav",291,"S",NA,"",NA,"None","du",2,3,"2c","auditory"
"208","di.wav",292,"S",NA,"",0.183561021229,"3","du",2,3,"2c","auditory"
"209","ba.wav",293,"S",NA,"",NA,"None","du",2,3,"2c","auditory"
"210","pu.wav",294,"S",NA,"",NA,"None","du",2,3,"2c","auditory"
"211","ta.wav",295,"S",NA,"",NA,"None","du",2,3,"2c","auditory"
"212","ti.wav",296,"S",NA,"",NA,"None","du",2,3,"2c","auditory"
"213","du.wav",297,"S",NA,"",NA,"None","du",2,3,"2c","auditory"
"214","pi.wav",298,"S",NA,"",0.20024393918,"3","du",2,3,"2c","auditory"
"215","tu.wav",299,"S",NA,"",NA,"None","du",2,3,"2c","auditory"
"216","bi.wav",300,"S",NA,"",0.250230968464,"3","du",2,3,"2c","auditory"
"217","bu.wav",301,"S",NA,"",NA,"None","du",2,3,"2c","auditory"
"218","pa.wav",302,"S",NA,"",NA,"None","du",2,3,"2c","auditory"
"219","da.wav",303,"S",NA,"",NA,"None","du",2,3,"2c","auditory"
"220","di.wav",304,"S",NA,"",NA,"None","du",2,3,"2c","auditory"
"221","ba.wav",305,"S",NA,"",NA,"None","du",2,3,"2c","auditory"
"222","pu.wav",306,"S",NA,"",NA,"None","du",2,3,"2c","auditory"
"223","ta.wav",307,"S",NA,"",NA,"None","du",2,3,"2c","auditory"
"224","ti.wav",308,"S",NA,"",NA,"None","du",2,3,"2c","auditory"
"225","du.wav",309,"S",NA,"",NA,"None","du",2,3,"2c","auditory"
"226","pi.wav",310,"S",NA,"",0.27523017209,"3","du",2,3,"2c","auditory"
"227","tu.wav",311,"S",NA,"",NA,"None","du",2,3,"2c","auditory"
"228","bi.wav",312,"S",NA,"",0.266907628393,"3","du",2,3,"2c","auditory"
"229","3C.wav",265,"R",NA,"None",NA,"","du",2,3,"2c","auditory"
"230","1A.wav",266,"R",NA,"None",NA,"","du",2,3,"2c","auditory"
"231","4C.wav",267,"R",NA,"None",NA,"","du",2,3,"2c","auditory"
"232","4B.wav",268,"R",0.258583378512,"3",NA,"","du",2,3,"2c","auditory"
"233","1A.wav",269,"R",NA,"None",NA,"","du",2,3,"2c","auditory"
"234","3B.wav",270,"R",NA,"None",NA,"","du",2,3,"2c","auditory"
"235","2B.wav",271,"R",NA,"None",NA,"","du",2,3,"2c","auditory"
"236","1C.wav",272,"R",NA,"None",NA,"","du",2,3,"2c","auditory"
"237","3C.wav",273,"R",NA,"None",NA,"","du",2,3,"2c","auditory"
"238","2C.wav",274,"R",NA,"None",NA,"","du",2,3,"2c","auditory"
"239","4B.wav",275,"R",0.109582288424,"3",NA,"","du",2,3,"2c","auditory"
"240","1B.wav",276,"R",NA,"None",NA,"","du",2,3,"2c","auditory"
"241","4C.wav",277,"R",NA,"None",NA,"","du",2,3,"2c","auditory"
"242","4A.wav",278,"R",NA,"None",NA,"","du",2,3,"2c","auditory"
"243","1C.wav",279,"R",NA,"None",NA,"","du",2,3,"2c","auditory"
"244","1B.wav",280,"R",NA,"None",NA,"","du",2,3,"2c","auditory"
"245","1C.wav",281,"R",NA,"None",NA,"","du",2,3,"2c","auditory"
"246","4A.wav",282,"R",NA,"None",NA,"","du",2,3,"2c","auditory"
"247","1A.wav",283,"R",NA,"None",NA,"","du",2,3,"2c","auditory"
"248","2A.wav",284,"R",NA,"None",NA,"","du",2,3,"2c","auditory"
"249","3B.wav",285,"R",NA,"None",NA,"","du",2,3,"2c","auditory"
"250","3A.wav",286,"R",NA,"None",NA,"","du",2,3,"2c","auditory"
"251","3A.wav",287,"R",NA,"None",NA,"","du",2,3,"2c","auditory"
"252","1B.wav",288,"R",NA,"None",NA,"","du",2,3,"2c","auditory"
"253","silence.wav",0,"B",NA,"None",NA,"","du",2,3,"2c","auditory"
"254","silence.wav",0,"B",NA,"None",NA,"","du",2,3,"2c","auditory"
"255","silence.wav",0,"B",NA,"None",NA,"","du",2,3,"2c","auditory"
"256","silence.wav",0,"B",NA,"None",NA,"","du",2,3,"2c","auditory"
"257","silence.wav",0,"B",NA,"None",NA,"","du",2,3,"2c","auditory"
"258","silence.wav",0,"B",NA,"None",NA,"","du",2,3,"2c","auditory"
"259","silence.wav",0,"B",NA,"None",NA,"","du",2,3,"2c","auditory"
"260","silence.wav",0,"B",NA,"None",NA,"","du",2,3,"2c","auditory"
"261","silence.wav",0,"B",NA,"None",NA,"","du",2,3,"2c","auditory"
"262","silence.wav",0,"B",NA,"None",NA,"","du",2,3,"2c","auditory"
"263","silence.wav",0,"B",NA,"None",NA,"","du",2,3,"2c","auditory"
"264","silence.wav",0,"B",NA,"None",NA,"","du",2,3,"2c","auditory"
"265","3B.wav",289,"R",NA,"None",NA,"","du",2,3,"2c","auditory"
"266","1B.wav",290,"R",NA,"None",NA,"","du",2,3,"2c","auditory"
"267","1C.wav",291,"R",NA,"None",NA,"","du",2,3,"2c","auditory"
"268","4C.wav",292,"R",NA,"None",NA,"","du",2,3,"2c","auditory"
"269","2A.wav",293,"R",NA,"None",NA,"","du",2,3,"2c","auditory"
"270","1B.wav",294,"R",NA,"None",NA,"","du",2,3,"2c","auditory"
"271","4A.wav",295,"R",NA,"None",NA,"","du",2,3,"2c","auditory"
"272","1A.wav",296,"R",NA,"None",NA,"","du",2,3,"2c","auditory"
"273","3C.wav",297,"R",NA,"None",NA,"","du",2,3,"2c","auditory"
"274","3A.wav",298,"R",NA,"None",NA,"","du",2,3,"2c","auditory"
"275","3C.wav",299,"R",NA,"None",NA,"","du",2,3,"2c","auditory"
"276","4A.wav",300,"R",NA,"None",NA,"","du",2,3,"2c","auditory"
"277","3C.wav",301,"R",NA,"None",NA,"","du",2,3,"2c","auditory"
"278","2C.wav",302,"R",NA,"None",NA,"","du",2,3,"2c","auditory"
"279","3A.wav",303,"R",0.223777687876,"3",NA,"","du",2,3,"2c","auditory"
"280","3A.wav",304,"R",NA,"None",NA,"","du",2,3,"2c","auditory"
"281","2B.wav",305,"R",NA,"None",NA,"","du",2,3,"2c","auditory"
"282","4C.wav",306,"R",NA,"None",NA,"","du",2,3,"2c","auditory"
"283","1A.wav",307,"R",NA,"None",NA,"","du",2,3,"2c","auditory"
"284","3B.wav",308,"R",NA,"None",NA,"","du",2,3,"2c","auditory"
"285","4B.wav",309,"R",NA,"None",NA,"","du",2,3,"2c","auditory"
"286","1C.wav",310,"R",NA,"None",NA,"","du",2,3,"2c","auditory"
"287","3B.wav",311,"R",NA,"None",NA,"","du",2,3,"2c","auditory"
"288","4B.wav",312,"R",NA,"None",NA,"","du",2,3,"2c","auditory"
"289","silence.wav",0,"B",NA,"None",NA,"","du",2,3,"2c","auditory"
"290","silence.wav",0,"B",NA,"None",NA,"","du",2,3,"2c","auditory"
"291","silence.wav",0,"B",NA,"None",NA,"","du",2,3,"2c","auditory"
"292","silence.wav",0,"B",NA,"None",NA,"","du",2,3,"2c","auditory"
"293","silence.wav",0,"B",NA,"None",NA,"","du",2,3,"2c","auditory"
"294","silence.wav",0,"B",NA,"None",NA,"","du",2,3,"2c","auditory"
"295","silence.wav",0,"B",NA,"None",NA,"","du",2,3,"2c","auditory"
"296","silence.wav",0,"B",NA,"None",NA,"","du",2,3,"2c","auditory"
"297","silence.wav",0,"B",NA,"None",NA,"","du",2,3,"2c","auditory"
"298","silence.wav",0,"B",NA,"None",NA,"","du",2,3,"2c","auditory"
"299","silence.wav",0,"B",NA,"None",NA,"","du",2,3,"2c","auditory"
"300","silence.wav",0,"B",NA,"None",NA,"","du",2,3,"2c","auditory"
"301","bu.wav",313,"S",NA,"",NA,"None","du",2,3,"2c","auditory"
"302","pa.wav",314,"S",NA,"",NA,"None","du",2,3,"2c","auditory"
"303","da.wav",315,"S",NA,"",0.118646092713,"3","du",2,3,"2c","auditory"
"304","di.wav",316,"S",NA,"",NA,"None","du",2,3,"2c","auditory"
"305","ba.wav",317,"S",NA,"",NA,"None","du",2,3,"2c","auditory"
"306","pu.wav",318,"S",NA,"",NA,"None","du",2,3,"2c","auditory"
"307","bu.wav",319,"S",NA,"",0.224264655728,"3","du",2,3,"2c","auditory"
"308","pa.wav",320,"S",NA,"",NA,"None","du",2,3,"2c","auditory"
"309","da.wav",321,"S",NA,"",NA,"None","du",2,3,"2c","auditory"
"310","ta.wav",322,"S",NA,"",NA,"None","du",2,3,"2c","auditory"
"311","ti.wav",323,"S",NA,"",NA,"None","du",2,3,"2c","auditory"
"312","du.wav",324,"S",NA,"",NA,"None","du",2,3,"2c","auditory"
"313","pi.wav",325,"S",NA,"",0.247998937266,"3","du",2,3,"2c","auditory"
"314","tu.wav",326,"S",NA,"",NA,"None","du",2,3,"2c","auditory"
"315","bi.wav",327,"S",NA,"",NA,"None","du",2,3,"2c","auditory"
"316","ta.wav",328,"S",NA,"",NA,"None","du",2,3,"2c","auditory"
"317","ti.wav",329,"S",NA,"",NA,"None","du",2,3,"2c","auditory"
"318","du.wav",330,"S",NA,"",NA,"None","du",2,3,"2c","auditory"
"319","pi.wav",331,"S",NA,"",0.208574731369,"3","du",2,3,"2c","auditory"
"320","tu.wav",332,"S",NA,"",NA,"None","du",2,3,"2c","auditory"
"321","bi.wav",333,"S",NA,"",NA,"None","du",2,3,"2c","auditory"
"322","bu.wav",334,"S",NA,"",0.0168626862578,"3","du",2,3,"2c","auditory"
"323","pa.wav",335,"S",NA,"",NA,"None","du",2,3,"2c","auditory"
"324","da.wav",336,"S",NA,"",NA,"None","du",2,3,"2c","auditory"
"325","silence.wav",0,"B",NA,"",NA,"None","du",2,3,"2c","auditory"
"326","silence.wav",0,"B",NA,"",NA,"None","du",2,3,"2c","auditory"
"327","silence.wav",0,"B",NA,"",NA,"None","du",2,3,"2c","auditory"
"328","silence.wav",0,"B",NA,"",NA,"None","du",2,3,"2c","auditory"
"329","silence.wav",0,"B",NA,"",NA,"None","du",2,3,"2c","auditory"
"330","silence.wav",0,"B",NA,"",NA,"None","du",2,3,"2c","auditory"
"331","silence.wav",0,"B",NA,"",NA,"None","du",2,3,"2c","auditory"
"332","silence.wav",0,"B",NA,"",NA,"None","du",2,3,"2c","auditory"
"333","silence.wav",0,"B",NA,"",NA,"None","du",2,3,"2c","auditory"
"334","silence.wav",0,"B",NA,"",NA,"None","du",2,3,"2c","auditory"
"335","silence.wav",0,"B",NA,"",NA,"None","du",2,3,"2c","auditory"
"336","silence.wav",0,"B",NA,"",NA,"None","du",2,3,"2c","auditory"
"337","4A.wav",337,"R",NA,"None",NA,"","du",2,3,"2c","auditory"
"338","3B.wav",338,"R",NA,"None",NA,"","du",2,3,"2c","auditory"
"339","1C.wav",339,"R",NA,"None",NA,"","du",2,3,"2c","auditory"
"340","3A.wav",340,"R",NA,"None",NA,"","du",2,3,"2c","auditory"
"341","2C.wav",341,"R",NA,"None",NA,"","du",2,3,"2c","auditory"
"342","4B.wav",342,"R",0.175224540057,"3",NA,"","du",2,3,"2c","auditory"
"343","3A.wav",343,"R",NA,"None",NA,"","du",2,3,"2c","auditory"
"344","2A.wav",344,"R",NA,"None",NA,"","du",2,3,"2c","auditory"
"345","1B.wav",345,"R",NA,"None",NA,"","du",2,3,"2c","auditory"
"346","4A.wav",346,"R",NA,"None",NA,"","du",2,3,"2c","auditory"
"347","2A.wav",347,"R",NA,"None",NA,"","du",2,3,"2c","auditory"
"348","2B.wav",348,"R",NA,"None",NA,"","du",2,3,"2c","auditory"
"349","3C.wav",349,"R",NA,"None",NA,"","du",2,3,"2c","auditory"
"350","3C.wav",350,"R",NA,"None",NA,"","du",2,3,"2c","auditory"
"351","2A.wav",351,"R",NA,"None",NA,"","du",2,3,"2c","auditory"
"352","4B.wav",352,"R",NA,"None",NA,"","du",2,3,"2c","auditory"
"353","4C.wav",353,"R",NA,"None",NA,"","du",2,3,"2c","auditory"
"354","2C.wav",354,"R",NA,"None",NA,"","du",2,3,"2c","auditory"
"355","2B.wav",355,"R",0.341924865963,"3",NA,"","du",2,3,"2c","auditory"
"356","1A.wav",356,"R",NA,"None",NA,"","du",2,3,"2c","auditory"
"357","2C.wav",357,"R",NA,"None",NA,"","du",2,3,"2c","auditory"
"358","4C.wav",358,"R",NA,"None",NA,"","du",2,3,"2c","auditory"
"359","2B.wav",359,"R",NA,"None",NA,"","du",2,3,"2c","auditory"
"360","3B.wav",360,"R",NA,"None",NA,"","du",2,3,"2c","auditory"
"361","di.wav",337,"S",NA,"",NA,"None","du",2,3,"2c","auditory"
"362","ba.wav",338,"S",NA,"",NA,"None","du",2,3,"2c","auditory"
"363","pu.wav",339,"S",NA,"",NA,"None","du",2,3,"2c","auditory"
"364","ta.wav",340,"S",NA,"",NA,"None","du",2,3,"2c","auditory"
"365","ti.wav",341,"S",NA,"",0.0252119675279,"3","du",2,3,"2c","auditory"
"366","du.wav",342,"S",NA,"",NA,"None","du",2,3,"2c","auditory"
"367","pi.wav",343,"S",NA,"",NA,"None","du",2,3,"2c","auditory"
"368","tu.wav",344,"S",NA,"",0.100213845028,"3","du",2,3,"2c","auditory"
"369","bi.wav",345,"S",NA,"",NA,"None","du",2,3,"2c","auditory"
"370","bu.wav",346,"S",NA,"",0.0811962115113,"3","du",2,3,"2c","auditory"
"371","pa.wav",347,"S",NA,"",NA,"None","du",2,3,"2c","auditory"
"372","da.wav",348,"S",NA,"",NA,"None","du",2,3,"2c","auditory"
"373","di.wav",349,"S",NA,"",NA,"None","du",2,3,"2c","auditory"
"374","ba.wav",350,"S",NA,"",NA,"None","du",2,3,"2c","auditory"
"375","pu.wav",351,"S",NA,"",NA,"None","du",2,3,"2c","auditory"
"376","bu.wav",352,"S",NA,"",NA,"None","du",2,3,"2c","auditory"
"377","pa.wav",353,"S",NA,"",NA,"None","du",2,3,"2c","auditory"
"378","da.wav",354,"S",NA,"",NA,"None","du",2,3,"2c","auditory"
"379","pi.wav",355,"S",NA,"",NA,"None","du",2,3,"2c","auditory"
"380","tu.wav",356,"S",NA,"",NA,"None","du",2,3,"2c","auditory"
"381","bi.wav",357,"S",NA,"",0.208585255779,"3","du",2,3,"2c","auditory"
"382","ta.wav",358,"S",NA,"",NA,"None","du",2,3,"2c","auditory"
"383","ti.wav",359,"S",NA,"",NA,"None","du",2,3,"2c","auditory"
"384","du.wav",360,"S",NA,"",NA,"None","du",2,3,"2c","auditory"
"385","silence.wav",0,"B",NA,"",0.250270221848,"3","du",2,3,"2c","auditory"
"386","silence.wav",0,"B",NA,"",NA,"None","du",2,3,"2c","auditory"
"387","silence.wav",0,"B",NA,"",NA,"None","du",2,3,"2c","auditory"
"388","silence.wav",0,"B",NA,"",NA,"None","du",2,3,"2c","auditory"
"389","silence.wav",0,"B",NA,"",NA,"None","du",2,3,"2c","auditory"
"390","silence.wav",0,"B",NA,"",NA,"None","du",2,3,"2c","auditory"
"391","silence.wav",0,"B",NA,"",NA,"None","du",2,3,"2c","auditory"
"392","silence.wav",0,"B",NA,"",NA,"None","du",2,3,"2c","auditory"
"393","silence.wav",0,"B",NA,"",NA,"None","du",2,3,"2c","auditory"
"394","silence.wav",0,"B",NA,"",NA,"None","du",2,3,"2c","auditory"
"395","silence.wav",0,"B",NA,"",NA,"None","du",2,3,"2c","auditory"
"396","silence.wav",0,"B",NA,"",NA,"None","du",2,3,"2c","auditory"
"397","2A.wav",313,"R",NA,"None",NA,"","du",2,3,"2c","auditory"
"398","3A.wav",314,"R",NA,"None",NA,"","du",2,3,"2c","auditory"
"399","4A.wav",315,"R",NA,"None",NA,"","du",2,3,"2c","auditory"
"400","1B.wav",316,"R",NA,"None",NA,"","du",2,3,"2c","auditory"
"401","2B.wav",317,"R",NA,"None",NA,"","du",2,3,"2c","auditory"
"402","1C.wav",318,"R",NA,"None",NA,"","du",2,3,"2c","auditory"
"403","1C.wav",319,"R",NA,"None",NA,"","du",2,3,"2c","auditory"
"404","1B.wav",320,"R",NA,"None",NA,"","du",2,3,"2c","auditory"
"405","2C.wav",321,"R",NA,"None",NA,"","du",2,3,"2c","auditory"
"406","4A.wav",322,"R",0.166870707879,"3",NA,"","du",2,3,"2c","auditory"
"407","4B.wav",323,"R",NA,"None",NA,"","du",2,3,"2c","auditory"
"408","3C.wav",324,"R",NA,"None",NA,"","du",2,3,"2c","auditory"
"409","3B.wav",325,"R",NA,"None",NA,"","du",2,3,"2c","auditory"
"410","4C.wav",326,"R",NA,"None",NA,"","du",2,3,"2c","auditory"
"411","3C.wav",327,"R",NA,"None",NA,"","du",2,3,"2c","auditory"
"412","4C.wav",328,"R",NA,"None",NA,"","du",2,3,"2c","auditory"
"413","2B.wav",329,"R",NA,"None",NA,"","du",2,3,"2c","auditory"
"414","1A.wav",330,"R",NA,"None",NA,"","du",2,3,"2c","auditory"
"415","1A.wav",331,"R",NA,"None",NA,"","du",2,3,"2c","auditory"
"416","2C.wav",332,"R",NA,"None",NA,"","du",2,3,"2c","auditory"
"417","2A.wav",333,"R",NA,"None",NA,"","du",2,3,"2c","auditory"
"418","3A.wav",334,"R",NA,"None",NA,"","du",2,3,"2c","auditory"
"419","3B.wav",335,"R",NA,"None",NA,"","du",2,3,"2c","auditory"
"420","4B.wav",336,"R",NA,"None",NA,"","du",2,3,"2c","auditory"
"421","silence.wav",0,"B",NA,"None",NA,"","du",2,3,"2c","auditory"
"422","silence.wav",0,"B",NA,"None",NA,"","du",2,3,"2c","auditory"
"423","silence.wav",0,"B",NA,"None",NA,"","du",2,3,"2c","auditory"
"424","silence.wav",0,"B",NA,"None",NA,"","du",2,3,"2c","auditory"
"425","silence.wav",0,"B",NA,"None",NA,"","du",2,3,"2c","auditory"
"426","silence.wav",0,"B",NA,"None",NA,"","du",2,3,"2c","auditory"
"427","silence.wav",0,"B",NA,"None",NA,"","du",2,3,"2c","auditory"
"428","silence.wav",0,"B",NA,"None",NA,"","du",2,3,"2c","auditory"
"429","silence.wav",0,"B",NA,"None",NA,"","du",2,3,"2c","auditory"
"430","silence.wav",0,"B",NA,"None",NA,"","du",2,3,"2c","auditory"
"431","silence.wav",0,"B",NA,"None",NA,"","du",2,3,"2c","auditory"
"432","silence.wav",0,"B",NA,"None",NA,"","du",2,3,"2c","auditory"
"433","di.wav",361,"S",NA,"",NA,"None","du",2,3,"2c","auditory"
"434","ba.wav",362,"S",NA,"",NA,"None","du",2,3,"2c","auditory"
"435","pu.wav",363,"S",NA,"",NA,"None","du",2,3,"2c","auditory"
"436","pi.wav",364,"S",NA,"",NA,"None","du",2,3,"2c","auditory"
"437","tu.wav",365,"S",NA,"",NA,"None","du",2,3,"2c","auditory"
"438","bi.wav",366,"S",NA,"",0.185558385914,"3","du",2,3,"2c","auditory"
"439","bu.wav",367,"S",NA,"",NA,"None","du",2,3,"2c","auditory"
"440","pa.wav",368,"S",NA,"",NA,"None","du",2,3,"2c","auditory"
"441","da.wav",369,"S",NA,"",NA,"None","du",2,3,"2c","auditory"
"442","ta.wav",370,"S",NA,"",NA,"None","du",2,3,"2c","auditory"
"443","ti.wav",371,"S",NA,"",NA,"None","du",2,3,"2c","auditory"
"444","du.wav",372,"S",NA,"",NA,"None","du",2,3,"2c","auditory"
"445","di.wav",373,"S",NA,"",0.0752223213203,"3","du",2,3,"2c","auditory"
"446","ba.wav",374,"S",NA,"",NA,"None","du",2,3,"2c","auditory"
"447","pu.wav",375,"S",NA,"",NA,"None","du",2,3,"2c","auditory"
"448","bu.wav",376,"S",NA,"",NA,"None","du",2,3,"2c","auditory"
"449","pa.wav",377,"S",NA,"",NA,"None","du",2,3,"2c","auditory"
"450","da.wav",378,"S",NA,"",NA,"None","du",2,3,"2c","auditory"
"451","ta.wav",382,"S",NA,"",NA,"None","du",2,3,"2c","auditory"
"452","ti.wav",383,"S",NA,"",0.358590148157,"3","du",2,3,"2c","auditory"
"453","du.wav",384,"S",NA,"",NA,"None","du",2,3,"2c","auditory"
"454","di.wav",388,"S",NA,"",NA,"None","du",2,3,"2c","auditory"
"455","ba.wav",389,"S",NA,"",NA,"None","du",2,3,"2c","auditory"
"456","pu.wav",390,"S",NA,"",NA,"None","du",2,3,"2c","auditory"
"457","4B.wav",361,"R",NA,"None",NA,"","du",2,3,"2c","auditory"
"458","4A.wav",362,"R",NA,"None",NA,"","du",2,3,"2c","auditory"
"459","2B.wav",363,"R",NA,"None",NA,"","du",2,3,"2c","auditory"
"460","1A.wav",364,"R",NA,"None",NA,"","du",2,3,"2c","auditory"
"461","4C.wav",365,"R",NA,"None",NA,"","du",2,3,"2c","auditory"
"462","2A.wav",366,"R",NA,"None",NA,"","du",2,3,"2c","auditory"
"463","3C.wav",367,"R",NA,"None",NA,"","du",2,3,"2c","auditory"
"464","1B.wav",368,"R",NA,"None",NA,"","du",2,3,"2c","auditory"
"465","1B.wav",369,"R",NA,"None",NA,"","du",2,3,"2c","auditory"
"466","2C.wav",370,"R",NA,"None",NA,"","du",2,3,"2c","auditory"
"467","2A.wav",371,"R",0.350273009157,"3",NA,"","du",2,3,"2c","auditory"
"468","4B.wav",372,"R",NA,"None",NA,"","du",2,3,"2c","auditory"
"469","1C.wav",373,"R",NA,"None",NA,"","du",2,3,"2c","auditory"
"470","2B.wav",374,"R",NA,"None",NA,"","du",2,3,"2c","auditory"
"471","1C.wav",375,"R",NA,"None",NA,"","du",2,3,"2c","auditory"
"472","4A.wav",376,"R",NA,"None",NA,"","du",2,3,"2c","auditory"
"473","1A.wav",377,"R",NA,"None",NA,"","du",2,3,"2c","auditory"
"474","3A.wav",378,"R",NA,"None",NA,"","du",2,3,"2c","auditory"
"475","1B.wav",379,"R",NA,"None",NA,"","du",2,3,"2c","auditory"
"476","1A.wav",380,"R",NA,"None",NA,"","du",2,3,"2c","auditory"
"477","2C.wav",381,"R",NA,"None",NA,"","du",2,3,"2c","auditory"
"478","3B.wav",382,"R",NA,"None",NA,"","du",2,3,"2c","auditory"
"479","4C.wav",383,"R",NA,"None",NA,"","du",2,3,"2c","auditory"
"480","1C.wav",384,"R",0.266898526344,"3",NA,"","du",2,3,"2c","auditory"
