soundFile,word,location,repetition,trialnum,condition,corrAns,soundFile3,soundFile2,soundFile1,soundFile6,soundFile5,soundFile4,fam_trials_loop.thisRepN,fam_trials_loop.thisTrialN,fam_trials_loop.thisN,fam_trials_loop.thisIndex,trials_1.thisRepN,trials_1.thisTrialN,trials_1.thisN,trials_1.thisIndex,test_trials.thisRepN,test_trials.thisTrialN,test_trials.thisN,test_trials.thisIndex,structured_block_key_resp.keys,structured_block_key_resp.rt,random_block_key_resp.keys,random_block_key_resp.rt,instr8_key_resp.keys,instr8_key_resp.rt,instr9_key_resp.keys,instr9_key_resp.rt,instr10_key_resp.keys,instr10_key_resp.rt,question_key_resp.keys,question_key_resp.corr,question_key_resp.rt,starget,Run,PartID,frameRate,ttarget,expName,date,
pi.wav,1,1,33,379,S,,,,,,,,0,0,0,0,,,,,,,,,None,,,,,,,,,,,,,du,3,007,60.0152407594,2C,auditory,2017_Nov_01_1137,
tu.wav,1,2,33,380,S,,,,,,,,0,1,1,1,,,,,,,,,None,,,,,,,,,,,,,du,3,007,60.0152407594,2C,auditory,2017_Nov_01_1137,
bi.wav,1,3,33,381,S,,,,,,,,0,2,2,2,,,,,,,,,None,,,,,,,,,,,,,du,3,007,60.0152407594,2C,auditory,2017_Nov_01_1137,
pi.wav,1,1,34,385,S,,,,,,,,0,3,3,3,,,,,,,,,None,,,,,,,,,,,,,du,3,007,60.0152407594,2C,auditory,2017_Nov_01_1137,
tu.wav,1,2,34,386,S,,,,,,,,0,4,4,4,,,,,,,,,None,,,,,,,,,,,,,du,3,007,60.0152407594,2C,auditory,2017_Nov_01_1137,
bi.wav,1,3,34,387,S,,,,,,,,0,5,5,5,,,,,,,,,None,,,,,,,,,,,,,du,3,007,60.0152407594,2C,auditory,2017_Nov_01_1137,
bu.wav,4,1,33,391,S,,,,,,,,0,6,6,6,,,,,,,,,None,,,,,,,,,,,,,du,3,007,60.0152407594,2C,auditory,2017_Nov_01_1137,
pa.wav,4,2,33,392,S,,,,,,,,0,7,7,7,,,,,,,,,None,,,,,,,,,,,,,du,3,007,60.0152407594,2C,auditory,2017_Nov_01_1137,
da.wav,4,3,33,393,S,,,,,,,,0,8,8,8,,,,,,,,,None,,,,,,,,,,,,,du,3,007,60.0152407594,2C,auditory,2017_Nov_01_1137,
ta.wav,3,1,33,394,S,,,,,,,,0,9,9,9,,,,,,,,,None,,,,,,,,,,,,,du,3,007,60.0152407594,2C,auditory,2017_Nov_01_1137,
ti.wav,3,2,33,395,S,,,,,,,,0,10,10,10,,,,,,,,,None,,,,,,,,,,,,,du,3,007,60.0152407594,2C,auditory,2017_Nov_01_1137,
du.wav,3,3,33,396,S,,,,,,,,0,11,11,11,,,,,,,,,None,,,,,,,,,,,,,du,3,007,60.0152407594,2C,auditory,2017_Nov_01_1137,
di.wav,2,1,33,397,S,,,,,,,,0,12,12,12,,,,,,,,,2,0.350166010205,,,,,,,,,,,,du,3,007,60.0152407594,2C,auditory,2017_Nov_01_1137,
ba.wav,2,2,33,398,S,,,,,,,,0,13,13,13,,,,,,,,,None,,,,,,,,,,,,,du,3,007,60.0152407594,2C,auditory,2017_Nov_01_1137,
pu.wav,2,3,33,399,S,,,,,,,,0,14,14,14,,,,,,,,,None,,,,,,,,,,,,,du,3,007,60.0152407594,2C,auditory,2017_Nov_01_1137,
pi.wav,1,1,35,400,S,,,,,,,,0,15,15,15,,,,,,,,,None,,,,,,,,,,,,,du,3,007,60.0152407594,2C,auditory,2017_Nov_01_1137,
tu.wav,1,2,35,401,S,,,,,,,,0,16,16,16,,,,,,,,,None,,,,,,,,,,,,,du,3,007,60.0152407594,2C,auditory,2017_Nov_01_1137,
bi.wav,1,3,35,402,S,,,,,,,,0,17,17,17,,,,,,,,,None,,,,,,,,,,,,,du,3,007,60.0152407594,2C,auditory,2017_Nov_01_1137,
ta.wav,3,1,34,403,S,,,,,,,,0,18,18,18,,,,,,,,,None,,,,,,,,,,,,,du,3,007,60.0152407594,2C,auditory,2017_Nov_01_1137,
ti.wav,3,2,34,404,S,,,,,,,,0,19,19,19,,,,,,,,,None,,,,,,,,,,,,,du,3,007,60.0152407594,2C,auditory,2017_Nov_01_1137,
du.wav,3,3,34,405,S,,,,,,,,0,20,20,20,,,,,,,,,None,,,,,,,,,,,,,du,3,007,60.0152407594,2C,auditory,2017_Nov_01_1137,
bu.wav,4,1,34,406,S,,,,,,,,0,21,21,21,,,,,,,,,2,0.183801360428,,,,,,,,,,,,du,3,007,60.0152407594,2C,auditory,2017_Nov_01_1137,
pa.wav,4,2,34,407,S,,,,,,,,0,22,22,22,,,,,,,,,None,,,,,,,,,,,,,du,3,007,60.0152407594,2C,auditory,2017_Nov_01_1137,
da.wav,4,3,34,408,S,,,,,,,,0,23,23,23,,,,,,,,,None,,,,,,,,,,,,,du,3,007,60.0152407594,2C,auditory,2017_Nov_01_1137,
2C.wav,0,1,1,385,R,,,,,,,,,,,,0,0,0,0,,,,,,,None,,,,,,,,,,,du,3,007,60.0152407594,2C,auditory,2017_Nov_01_1137,
1B.wav,0,2,1,386,R,,,,,,,,,,,,0,1,1,1,,,,,,,2,0.400338707492,,,,,,,,,,du,3,007,60.0152407594,2C,auditory,2017_Nov_01_1137,
3C.wav,0,3,1,387,R,,,,,,,,,,,,0,2,2,2,,,,,,,None,,,,,,,,,,,du,3,007,60.0152407594,2C,auditory,2017_Nov_01_1137,
2B.wav,0,1,1,388,R,,,,,,,,,,,,0,3,3,3,,,,,,,None,,,,,,,,,,,du,3,007,60.0152407594,2C,auditory,2017_Nov_01_1137,
3A.wav,0,2,1,389,R,,,,,,,,,,,,0,4,4,4,,,,,,,None,,,,,,,,,,,du,3,007,60.0152407594,2C,auditory,2017_Nov_01_1137,
2C.wav,0,3,1,390,R,,,,,,,,,,,,0,5,5,5,,,,,,,None,,,,,,,,,,,du,3,007,60.0152407594,2C,auditory,2017_Nov_01_1137,
3B.wav,0,1,1,391,R,,,,,,,,,,,,0,6,6,6,,,,,,,2,0.384591842187,,,,,,,,,,du,3,007,60.0152407594,2C,auditory,2017_Nov_01_1137,
3C.wav,0,2,1,392,R,,,,,,,,,,,,0,7,7,7,,,,,,,None,,,,,,,,,,,du,3,007,60.0152407594,2C,auditory,2017_Nov_01_1137,
2A.wav,0,3,1,393,R,,,,,,,,,,,,0,8,8,8,,,,,,,None,,,,,,,,,,,du,3,007,60.0152407594,2C,auditory,2017_Nov_01_1137,
3B.wav,0,1,1,394,R,,,,,,,,,,,,0,9,9,9,,,,,,,None,,,,,,,,,,,du,3,007,60.0152407594,2C,auditory,2017_Nov_01_1137,
4A.wav,0,2,1,395,R,,,,,,,,,,,,0,10,10,10,,,,,,,None,,,,,,,,,,,du,3,007,60.0152407594,2C,auditory,2017_Nov_01_1137,
3A.wav,0,3,1,396,R,,,,,,,,,,,,0,11,11,11,,,,,,,None,,,,,,,,,,,du,3,007,60.0152407594,2C,auditory,2017_Nov_01_1137,
2B.wav,0,1,1,397,R,,,,,,,,,,,,0,12,12,12,,,,,,,None,,,,,,,,,,,du,3,007,60.0152407594,2C,auditory,2017_Nov_01_1137,
4A.wav,0,2,1,398,R,,,,,,,,,,,,0,13,13,13,,,,,,,None,,,,,,,,,,,du,3,007,60.0152407594,2C,auditory,2017_Nov_01_1137,
3C.wav,0,3,1,399,R,,,,,,,,,,,,0,14,14,14,,,,,,,None,,,,,,,,,,,du,3,007,60.0152407594,2C,auditory,2017_Nov_01_1137,
1C.wav,0,1,1,400,R,,,,,,,,,,,,0,15,15,15,,,,,,,None,,,,,,,,,,,du,3,007,60.0152407594,2C,auditory,2017_Nov_01_1137,
4C.wav,0,2,1,401,R,,,,,,,,,,,,0,16,16,16,,,,,,,None,,,,,,,,,,,du,3,007,60.0152407594,2C,auditory,2017_Nov_01_1137,
4B.wav,0,3,1,402,R,,,,,,,,,,,,0,17,17,17,,,,,,,None,,,,,,,,,,,du,3,007,60.0152407594,2C,auditory,2017_Nov_01_1137,
3B.wav,0,1,1,403,R,,,,,,,,,,,,0,18,18,18,,,,,,,None,,,,,,,,,,,du,3,007,60.0152407594,2C,auditory,2017_Nov_01_1137,
4B.wav,0,2,1,404,R,,,,,,,,,,,,0,19,19,19,,,,,,,None,,,,,,,,,,,du,3,007,60.0152407594,2C,auditory,2017_Nov_01_1137,
2A.wav,0,3,1,405,R,,,,,,,,,,,,0,20,20,20,,,,,,,None,,,,,,,,,,,du,3,007,60.0152407594,2C,auditory,2017_Nov_01_1137,
3A.wav,0,1,1,406,R,,,,,,,,,,,,0,21,21,21,,,,,,,None,,,,,,,,,,,du,3,007,60.0152407594,2C,auditory,2017_Nov_01_1137,
1A.wav,0,2,1,407,R,,,,,,,,,,,,0,22,22,22,,,,,,,None,,,,,,,,,,,du,3,007,60.0152407594,2C,auditory,2017_Nov_01_1137,
4C.wav,0,3,1,408,R,,,,,,,,,,,,0,23,23,23,,,,,,,None,,,,,,,,,,,du,3,007,60.0152407594,2C,auditory,2017_Nov_01_1137,
silence.wav,0,0,0,0,B,,,,,,,,,,,,0,24,24,24,,,,,,,None,,,,,,,,,,,du,3,007,60.0152407594,2C,auditory,2017_Nov_01_1137,
silence.wav,0,0,0,0,B,,,,,,,,,,,,0,25,25,25,,,,,,,None,,,,,,,,,,,du,3,007,60.0152407594,2C,auditory,2017_Nov_01_1137,
silence.wav,0,0,0,0,B,,,,,,,,,,,,0,26,26,26,,,,,,,None,,,,,,,,,,,du,3,007,60.0152407594,2C,auditory,2017_Nov_01_1137,
silence.wav,0,0,0,0,B,,,,,,,,,,,,0,27,27,27,,,,,,,None,,,,,,,,,,,du,3,007,60.0152407594,2C,auditory,2017_Nov_01_1137,
silence.wav,0,0,0,0,B,,,,,,,,,,,,0,28,28,28,,,,,,,None,,,,,,,,,,,du,3,007,60.0152407594,2C,auditory,2017_Nov_01_1137,
silence.wav,0,0,0,0,B,,,,,,,,,,,,0,29,29,29,,,,,,,None,,,,,,,,,,,du,3,007,60.0152407594,2C,auditory,2017_Nov_01_1137,
silence.wav,0,0,0,0,B,,,,,,,,,,,,0,30,30,30,,,,,,,None,,,,,,,,,,,du,3,007,60.0152407594,2C,auditory,2017_Nov_01_1137,
silence.wav,0,0,0,0,B,,,,,,,,,,,,0,31,31,31,,,,,,,None,,,,,,,,,,,du,3,007,60.0152407594,2C,auditory,2017_Nov_01_1137,
silence.wav,0,0,0,0,B,,,,,,,,,,,,0,32,32,32,,,,,,,None,,,,,,,,,,,du,3,007,60.0152407594,2C,auditory,2017_Nov_01_1137,
silence.wav,0,0,0,0,B,,,,,,,,,,,,0,33,33,33,,,,,,,None,,,,,,,,,,,du,3,007,60.0152407594,2C,auditory,2017_Nov_01_1137,
silence.wav,0,0,0,0,B,,,,,,,,,,,,0,34,34,34,,,,,,,None,,,,,,,,,,,du,3,007,60.0152407594,2C,auditory,2017_Nov_01_1137,
silence.wav,0,0,0,0,B,,,,,,,,,,,,0,35,35,35,,,,,,,None,,,,,,,,,,,du,3,007,60.0152407594,2C,auditory,2017_Nov_01_1137,
di.wav,2,1,34,409,S,,,,,,,,0,0,0,0,,,,,,,,,None,,,,,,,,,,,,,du,3,007,60.0152407594,2C,auditory,2017_Nov_01_1137,
ba.wav,2,2,34,410,S,,,,,,,,0,1,1,1,,,,,,,,,None,,,,,,,,,,,,,du,3,007,60.0152407594,2C,auditory,2017_Nov_01_1137,
pu.wav,2,3,34,411,S,,,,,,,,0,2,2,2,,,,,,,,,None,,,,,,,,,,,,,du,3,007,60.0152407594,2C,auditory,2017_Nov_01_1137,
pi.wav,1,1,36,412,S,,,,,,,,0,3,3,3,,,,,,,,,None,,,,,,,,,,,,,du,3,007,60.0152407594,2C,auditory,2017_Nov_01_1137,
tu.wav,1,2,36,413,S,,,,,,,,0,4,4,4,,,,,,,,,None,,,,,,,,,,,,,du,3,007,60.0152407594,2C,auditory,2017_Nov_01_1137,
bi.wav,1,3,36,414,S,,,,,,,,0,5,5,5,,,,,,,,,None,,,,,,,,,,,,,du,3,007,60.0152407594,2C,auditory,2017_Nov_01_1137,
di.wav,2,1,35,415,S,,,,,,,,0,6,6,6,,,,,,,,,None,,,,,,,,,,,,,du,3,007,60.0152407594,2C,auditory,2017_Nov_01_1137,
ba.wav,2,2,35,416,S,,,,,,,,0,7,7,7,,,,,,,,,None,,,,,,,,,,,,,du,3,007,60.0152407594,2C,auditory,2017_Nov_01_1137,
pu.wav,2,3,35,417,S,,,,,,,,0,8,8,8,,,,,,,,,None,,,,,,,,,,,,,du,3,007,60.0152407594,2C,auditory,2017_Nov_01_1137,
bu.wav,4,1,35,418,S,,,,,,,,0,9,9,9,,,,,,,,,None,,,,,,,,,,,,,du,3,007,60.0152407594,2C,auditory,2017_Nov_01_1137,
pa.wav,4,2,35,419,S,,,,,,,,0,10,10,10,,,,,,,,,None,,,,,,,,,,,,,du,3,007,60.0152407594,2C,auditory,2017_Nov_01_1137,
da.wav,4,3,35,420,S,,,,,,,,0,11,11,11,,,,,,,,,None,,,,,,,,,,,,,du,3,007,60.0152407594,2C,auditory,2017_Nov_01_1137,
ta.wav,3,1,35,421,S,,,,,,,,0,12,12,12,,,,,,,,,None,,,,,,,,,,,,,du,3,007,60.0152407594,2C,auditory,2017_Nov_01_1137,
ti.wav,3,2,35,422,S,,,,,,,,0,13,13,13,,,,,,,,,None,,,,,,,,,,,,,du,3,007,60.0152407594,2C,auditory,2017_Nov_01_1137,
du.wav,3,3,35,423,S,,,,,,,,0,14,14,14,,,,,,,,,None,,,,,,,,,,,,,du,3,007,60.0152407594,2C,auditory,2017_Nov_01_1137,
bu.wav,4,1,36,424,S,,,,,,,,0,15,15,15,,,,,,,,,2,0.250518871588,,,,,,,,,,,,du,3,007,60.0152407594,2C,auditory,2017_Nov_01_1137,
pa.wav,4,2,36,425,S,,,,,,,,0,16,16,16,,,,,,,,,None,,,,,,,,,,,,,du,3,007,60.0152407594,2C,auditory,2017_Nov_01_1137,
da.wav,4,3,36,426,S,,,,,,,,0,17,17,17,,,,,,,,,None,,,,,,,,,,,,,du,3,007,60.0152407594,2C,auditory,2017_Nov_01_1137,
ta.wav,3,1,36,427,S,,,,,,,,0,18,18,18,,,,,,,,,None,,,,,,,,,,,,,du,3,007,60.0152407594,2C,auditory,2017_Nov_01_1137,
ti.wav,3,2,36,428,S,,,,,,,,0,19,19,19,,,,,,,,,None,,,,,,,,,,,,,du,3,007,60.0152407594,2C,auditory,2017_Nov_01_1137,
du.wav,3,3,36,429,S,,,,,,,,0,20,20,20,,,,,,,,,None,,,,,,,,,,,,,du,3,007,60.0152407594,2C,auditory,2017_Nov_01_1137,
di.wav,2,1,36,430,S,,,,,,,,0,21,21,21,,,,,,,,,2,0.217427192838,,,,,,,,,,,,du,3,007,60.0152407594,2C,auditory,2017_Nov_01_1137,
ba.wav,2,2,36,431,S,,,,,,,,0,22,22,22,,,,,,,,,None,,,,,,,,,,,,,du,3,007,60.0152407594,2C,auditory,2017_Nov_01_1137,
pu.wav,2,3,36,432,S,,,,,,,,0,23,23,23,,,,,,,,,None,,,,,,,,,,,,,du,3,007,60.0152407594,2C,auditory,2017_Nov_01_1137,
silence.wav,0,0,0,0,B,,,,,,,,0,24,24,24,,,,,,,,,None,,,,,,,,,,,,,du,3,007,60.0152407594,2C,auditory,2017_Nov_01_1137,
silence.wav,0,0,0,0,B,,,,,,,,0,25,25,25,,,,,,,,,None,,,,,,,,,,,,,du,3,007,60.0152407594,2C,auditory,2017_Nov_01_1137,
silence.wav,0,0,0,0,B,,,,,,,,0,26,26,26,,,,,,,,,None,,,,,,,,,,,,,du,3,007,60.0152407594,2C,auditory,2017_Nov_01_1137,
silence.wav,0,0,0,0,B,,,,,,,,0,27,27,27,,,,,,,,,None,,,,,,,,,,,,,du,3,007,60.0152407594,2C,auditory,2017_Nov_01_1137,
silence.wav,0,0,0,0,B,,,,,,,,0,28,28,28,,,,,,,,,None,,,,,,,,,,,,,du,3,007,60.0152407594,2C,auditory,2017_Nov_01_1137,
silence.wav,0,0,0,0,B,,,,,,,,0,29,29,29,,,,,,,,,None,,,,,,,,,,,,,du,3,007,60.0152407594,2C,auditory,2017_Nov_01_1137,
silence.wav,0,0,0,0,B,,,,,,,,0,30,30,30,,,,,,,,,None,,,,,,,,,,,,,du,3,007,60.0152407594,2C,auditory,2017_Nov_01_1137,
silence.wav,0,0,0,0,B,,,,,,,,0,31,31,31,,,,,,,,,None,,,,,,,,,,,,,du,3,007,60.0152407594,2C,auditory,2017_Nov_01_1137,
silence.wav,0,0,0,0,B,,,,,,,,0,32,32,32,,,,,,,,,None,,,,,,,,,,,,,du,3,007,60.0152407594,2C,auditory,2017_Nov_01_1137,
silence.wav,0,0,0,0,B,,,,,,,,0,33,33,33,,,,,,,,,None,,,,,,,,,,,,,du,3,007,60.0152407594,2C,auditory,2017_Nov_01_1137,
silence.wav,0,0,0,0,B,,,,,,,,0,34,34,34,,,,,,,,,None,,,,,,,,,,,,,du,3,007,60.0152407594,2C,auditory,2017_Nov_01_1137,
silence.wav,0,0,0,0,B,,,,,,,,0,35,35,35,,,,,,,,,None,,,,,,,,,,,,,du,3,007,60.0152407594,2C,auditory,2017_Nov_01_1137,
1A.wav,0,1,1,409,R,,,,,,,,,,,,0,0,0,0,,,,,,,None,,,,,,,,,,,du,3,007,60.0152407594,2C,auditory,2017_Nov_01_1137,
4B.wav,0,2,1,410,R,,,,,,,,,,,,0,1,1,1,,,,,,,None,,,,,,,,,,,du,3,007,60.0152407594,2C,auditory,2017_Nov_01_1137,
1A.wav,0,3,1,411,R,,,,,,,,,,,,0,2,2,2,,,,,,,None,,,,,,,,,,,du,3,007,60.0152407594,2C,auditory,2017_Nov_01_1137,
4A.wav,0,1,1,412,R,,,,,,,,,,,,0,3,3,3,,,,,,,None,,,,,,,,,,,du,3,007,60.0152407594,2C,auditory,2017_Nov_01_1137,
2A.wav,0,2,1,413,R,,,,,,,,,,,,0,4,4,4,,,,,,,None,,,,,,,,,,,du,3,007,60.0152407594,2C,auditory,2017_Nov_01_1137,
4A.wav,0,3,1,414,R,,,,,,,,,,,,0,5,5,5,,,,,,,None,,,,,,,,,,,du,3,007,60.0152407594,2C,auditory,2017_Nov_01_1137,
1B.wav,0,1,1,415,R,,,,,,,,,,,,0,6,6,6,,,,,,,None,,,,,,,,,,,du,3,007,60.0152407594,2C,auditory,2017_Nov_01_1137,
2B.wav,0,2,1,416,R,,,,,,,,,,,,0,7,7,7,,,,,,,None,,,,,,,,,,,du,3,007,60.0152407594,2C,auditory,2017_Nov_01_1137,
1C.wav,0,3,1,417,R,,,,,,,,,,,,0,8,8,8,,,,,,,None,,,,,,,,,,,du,3,007,60.0152407594,2C,auditory,2017_Nov_01_1137,
1C.wav,0,1,1,418,R,,,,,,,,,,,,0,9,9,9,,,,,,,None,,,,,,,,,,,du,3,007,60.0152407594,2C,auditory,2017_Nov_01_1137,
4B.wav,0,2,1,419,R,,,,,,,,,,,,0,10,10,10,,,,,,,None,,,,,,,,,,,du,3,007,60.0152407594,2C,auditory,2017_Nov_01_1137,
2A.wav,0,3,1,420,R,,,,,,,,,,,,0,11,11,11,,,,,,,None,,,,,,,,,,,du,3,007,60.0152407594,2C,auditory,2017_Nov_01_1137,
3B.wav,0,1,1,421,R,,,,,,,,,,,,0,12,12,12,,,,,,,None,,,,,,,,,,,du,3,007,60.0152407594,2C,auditory,2017_Nov_01_1137,
1A.wav,0,2,1,422,R,,,,,,,,,,,,0,13,13,13,,,,,,,None,,,,,,,,,,,du,3,007,60.0152407594,2C,auditory,2017_Nov_01_1137,
2B.wav,0,3,1,423,R,,,,,,,,,,,,0,14,14,14,,,,,,,None,,,,,,,,,,,du,3,007,60.0152407594,2C,auditory,2017_Nov_01_1137,
3C.wav,0,1,1,424,R,,,,,,,,,,,,0,15,15,15,,,,,,,None,,,,,,,,,,,du,3,007,60.0152407594,2C,auditory,2017_Nov_01_1137,
4C.wav,0,2,1,425,R,,,,,,,,,,,,0,16,16,16,,,,,,,None,,,,,,,,,,,du,3,007,60.0152407594,2C,auditory,2017_Nov_01_1137,
3A.wav,0,3,1,426,R,,,,,,,,,,,,0,17,17,17,,,,,,,None,,,,,,,,,,,du,3,007,60.0152407594,2C,auditory,2017_Nov_01_1137,
2C.wav,0,1,1,427,R,,,,,,,,,,,,0,18,18,18,,,,,,,None,,,,,,,,,,,du,3,007,60.0152407594,2C,auditory,2017_Nov_01_1137,
1B.wav,0,2,1,428,R,,,,,,,,,,,,0,19,19,19,,,,,,,2,0.21717529546,,,,,,,,,,du,3,007,60.0152407594,2C,auditory,2017_Nov_01_1137,
4C.wav,0,3,1,429,R,,,,,,,,,,,,0,20,20,20,,,,,,,None,,,,,,,,,,,du,3,007,60.0152407594,2C,auditory,2017_Nov_01_1137,
2C.wav,0,1,1,430,R,,,,,,,,,,,,0,21,21,21,,,,,,,None,,,,,,,,,,,du,3,007,60.0152407594,2C,auditory,2017_Nov_01_1137,
1B.wav,0,2,1,431,R,,,,,,,,,,,,0,22,22,22,,,,,,,None,,,,,,,,,,,du,3,007,60.0152407594,2C,auditory,2017_Nov_01_1137,
1C.wav,0,3,1,432,R,,,,,,,,,,,,0,23,23,23,,,,,,,None,,,,,,,,,,,du,3,007,60.0152407594,2C,auditory,2017_Nov_01_1137,
silence.wav,0,0,0,0,B,,,,,,,,,,,,0,24,24,24,,,,,,,None,,,,,,,,,,,du,3,007,60.0152407594,2C,auditory,2017_Nov_01_1137,
silence.wav,0,0,0,0,B,,,,,,,,,,,,0,25,25,25,,,,,,,None,,,,,,,,,,,du,3,007,60.0152407594,2C,auditory,2017_Nov_01_1137,
silence.wav,0,0,0,0,B,,,,,,,,,,,,0,26,26,26,,,,,,,None,,,,,,,,,,,du,3,007,60.0152407594,2C,auditory,2017_Nov_01_1137,
silence.wav,0,0,0,0,B,,,,,,,,,,,,0,27,27,27,,,,,,,None,,,,,,,,,,,du,3,007,60.0152407594,2C,auditory,2017_Nov_01_1137,
silence.wav,0,0,0,0,B,,,,,,,,,,,,0,28,28,28,,,,,,,None,,,,,,,,,,,du,3,007,60.0152407594,2C,auditory,2017_Nov_01_1137,
silence.wav,0,0,0,0,B,,,,,,,,,,,,0,29,29,29,,,,,,,None,,,,,,,,,,,du,3,007,60.0152407594,2C,auditory,2017_Nov_01_1137,
silence.wav,0,0,0,0,B,,,,,,,,,,,,0,30,30,30,,,,,,,None,,,,,,,,,,,du,3,007,60.0152407594,2C,auditory,2017_Nov_01_1137,
silence.wav,0,0,0,0,B,,,,,,,,,,,,0,31,31,31,,,,,,,None,,,,,,,,,,,du,3,007,60.0152407594,2C,auditory,2017_Nov_01_1137,
silence.wav,0,0,0,0,B,,,,,,,,,,,,0,32,32,32,,,,,,,None,,,,,,,,,,,du,3,007,60.0152407594,2C,auditory,2017_Nov_01_1137,
silence.wav,0,0,0,0,B,,,,,,,,,,,,0,33,33,33,,,,,,,None,,,,,,,,,,,du,3,007,60.0152407594,2C,auditory,2017_Nov_01_1137,
silence.wav,0,0,0,0,B,,,,,,,,,,,,0,34,34,34,,,,,,,None,,,,,,,,,,,du,3,007,60.0152407594,2C,auditory,2017_Nov_01_1137,
silence.wav,0,0,0,0,B,,,,,,,,,,,,0,35,35,35,,,,,,,None,,,,,,,,,,,du,3,007,60.0152407594,2C,auditory,2017_Nov_01_1137,
3C.wav,0,1,1,433,R,,,,,,,,,,,,0,36,36,36,,,,,,,None,,,,,,,,,,,du,3,007,60.0152407594,2C,auditory,2017_Nov_01_1137,
3B.wav,0,2,1,434,R,,,,,,,,,,,,0,37,37,37,,,,,,,None,,,,,,,,,,,du,3,007,60.0152407594,2C,auditory,2017_Nov_01_1137,
2A.wav,0,3,1,435,R,,,,,,,,,,,,0,38,38,38,,,,,,,None,,,,,,,,,,,du,3,007,60.0152407594,2C,auditory,2017_Nov_01_1137,
3B.wav,0,1,1,436,R,,,,,,,,,,,,0,39,39,39,,,,,,,None,,,,,,,,,,,du,3,007,60.0152407594,2C,auditory,2017_Nov_01_1137,
1B.wav,0,2,1,437,R,,,,,,,,,,,,0,40,40,40,,,,,,,None,,,,,,,,,,,du,3,007,60.0152407594,2C,auditory,2017_Nov_01_1137,
2B.wav,0,3,1,438,R,,,,,,,,,,,,0,41,41,41,,,,,,,None,,,,,,,,,,,du,3,007,60.0152407594,2C,auditory,2017_Nov_01_1137,
3B.wav,0,1,1,439,R,,,,,,,,,,,,0,42,42,42,,,,,,,None,,,,,,,,,,,du,3,007,60.0152407594,2C,auditory,2017_Nov_01_1137,
4A.wav,0,2,1,440,R,,,,,,,,,,,,0,43,43,43,,,,,,,None,,,,,,,,,,,du,3,007,60.0152407594,2C,auditory,2017_Nov_01_1137,
2C.wav,0,3,1,441,R,,,,,,,,,,,,0,44,44,44,,,,,,,None,,,,,,,,,,,du,3,007,60.0152407594,2C,auditory,2017_Nov_01_1137,
3A.wav,0,1,1,442,R,,,,,,,,,,,,0,45,45,45,,,,,,,None,,,,,,,,,,,du,3,007,60.0152407594,2C,auditory,2017_Nov_01_1137,
1C.wav,0,2,1,443,R,,,,,,,,,,,,0,46,46,46,,,,,,,None,,,,,,,,,,,du,3,007,60.0152407594,2C,auditory,2017_Nov_01_1137,
3C.wav,0,3,1,444,R,,,,,,,,,,,,0,47,47,47,,,,,,,None,,,,,,,,,,,du,3,007,60.0152407594,2C,auditory,2017_Nov_01_1137,
2B.wav,0,1,1,445,R,,,,,,,,,,,,0,48,48,48,,,,,,,None,,,,,,,,,,,du,3,007,60.0152407594,2C,auditory,2017_Nov_01_1137,
2C.wav,0,2,1,446,R,,,,,,,,,,,,0,49,49,49,,,,,,,None,,,,,,,,,,,du,3,007,60.0152407594,2C,auditory,2017_Nov_01_1137,
3A.wav,0,3,1,447,R,,,,,,,,,,,,0,50,50,50,,,,,,,2,0.183993360377,,,,,,,,,,du,3,007,60.0152407594,2C,auditory,2017_Nov_01_1137,
2A.wav,0,1,1,448,R,,,,,,,,,,,,0,51,51,51,,,,,,,None,,,,,,,,,,,du,3,007,60.0152407594,2C,auditory,2017_Nov_01_1137,
3A.wav,0,2,1,449,R,,,,,,,,,,,,0,52,52,52,,,,,,,None,,,,,,,,,,,du,3,007,60.0152407594,2C,auditory,2017_Nov_01_1137,
1C.wav,0,3,1,450,R,,,,,,,,,,,,0,53,53,53,,,,,,,None,,,,,,,,,,,du,3,007,60.0152407594,2C,auditory,2017_Nov_01_1137,
4C.wav,0,1,1,451,R,,,,,,,,,,,,0,54,54,54,,,,,,,None,,,,,,,,,,,du,3,007,60.0152407594,2C,auditory,2017_Nov_01_1137,
1B.wav,0,2,1,452,R,,,,,,,,,,,,0,55,55,55,,,,,,,None,,,,,,,,,,,du,3,007,60.0152407594,2C,auditory,2017_Nov_01_1137,
1A.wav,0,3,1,453,R,,,,,,,,,,,,0,56,56,56,,,,,,,None,,,,,,,,,,,du,3,007,60.0152407594,2C,auditory,2017_Nov_01_1137,
3C.wav,0,1,1,454,R,,,,,,,,,,,,0,57,57,57,,,,,,,None,,,,,,,,,,,du,3,007,60.0152407594,2C,auditory,2017_Nov_01_1137,
4B.wav,0,2,1,455,R,,,,,,,,,,,,0,58,58,58,,,,,,,None,,,,,,,,,,,du,3,007,60.0152407594,2C,auditory,2017_Nov_01_1137,
1A.wav,0,3,1,456,R,,,,,,,,,,,,0,59,59,59,,,,,,,None,,,,,,,,,,,du,3,007,60.0152407594,2C,auditory,2017_Nov_01_1137,
silence.wav,0,0,0,0,B,,,,,,,,,,,,0,60,60,60,,,,,,,None,,,,,,,,,,,du,3,007,60.0152407594,2C,auditory,2017_Nov_01_1137,
silence.wav,0,0,0,0,B,,,,,,,,,,,,0,61,61,61,,,,,,,None,,,,,,,,,,,du,3,007,60.0152407594,2C,auditory,2017_Nov_01_1137,
silence.wav,0,0,0,0,B,,,,,,,,,,,,0,62,62,62,,,,,,,None,,,,,,,,,,,du,3,007,60.0152407594,2C,auditory,2017_Nov_01_1137,
silence.wav,0,0,0,0,B,,,,,,,,,,,,0,63,63,63,,,,,,,None,,,,,,,,,,,du,3,007,60.0152407594,2C,auditory,2017_Nov_01_1137,
silence.wav,0,0,0,0,B,,,,,,,,,,,,0,64,64,64,,,,,,,None,,,,,,,,,,,du,3,007,60.0152407594,2C,auditory,2017_Nov_01_1137,
silence.wav,0,0,0,0,B,,,,,,,,,,,,0,65,65,65,,,,,,,None,,,,,,,,,,,du,3,007,60.0152407594,2C,auditory,2017_Nov_01_1137,
silence.wav,0,0,0,0,B,,,,,,,,,,,,0,66,66,66,,,,,,,None,,,,,,,,,,,du,3,007,60.0152407594,2C,auditory,2017_Nov_01_1137,
silence.wav,0,0,0,0,B,,,,,,,,,,,,0,67,67,67,,,,,,,None,,,,,,,,,,,du,3,007,60.0152407594,2C,auditory,2017_Nov_01_1137,
silence.wav,0,0,0,0,B,,,,,,,,,,,,0,68,68,68,,,,,,,None,,,,,,,,,,,du,3,007,60.0152407594,2C,auditory,2017_Nov_01_1137,
silence.wav,0,0,0,0,B,,,,,,,,,,,,0,69,69,69,,,,,,,None,,,,,,,,,,,du,3,007,60.0152407594,2C,auditory,2017_Nov_01_1137,
silence.wav,0,0,0,0,B,,,,,,,,,,,,0,70,70,70,,,,,,,None,,,,,,,,,,,du,3,007,60.0152407594,2C,auditory,2017_Nov_01_1137,
silence.wav,0,0,0,0,B,,,,,,,,,,,,0,71,71,71,,,,,,,None,,,,,,,,,,,du,3,007,60.0152407594,2C,auditory,2017_Nov_01_1137,
pi.wav,1,1,37,433,S,,,,,,,,0,0,0,0,,,,,,,,,None,,,,,,,,,,,,,du,3,007,60.0152407594,2C,auditory,2017_Nov_01_1137,
tu.wav,1,2,37,434,S,,,,,,,,0,1,1,1,,,,,,,,,None,,,,,,,,,,,,,du,3,007,60.0152407594,2C,auditory,2017_Nov_01_1137,
bi.wav,1,3,37,435,S,,,,,,,,0,2,2,2,,,,,,,,,None,,,,,,,,,,,,,du,3,007,60.0152407594,2C,auditory,2017_Nov_01_1137,
ta.wav,3,1,37,436,S,,,,,,,,0,3,3,3,,,,,,,,,None,,,,,,,,,,,,,du,3,007,60.0152407594,2C,auditory,2017_Nov_01_1137,
ti.wav,3,2,37,437,S,,,,,,,,0,4,4,4,,,,,,,,,None,,,,,,,,,,,,,du,3,007,60.0152407594,2C,auditory,2017_Nov_01_1137,
du.wav,3,3,37,438,S,,,,,,,,0,5,5,5,,,,,,,,,None,,,,,,,,,,,,,du,3,007,60.0152407594,2C,auditory,2017_Nov_01_1137,
pi.wav,1,1,38,439,S,,,,,,,,0,6,6,6,,,,,,,,,2,0.233408314525,,,,,,,,,,,,du,3,007,60.0152407594,2C,auditory,2017_Nov_01_1137,
tu.wav,1,2,38,440,S,,,,,,,,0,7,7,7,,,,,,,,,None,,,,,,,,,,,,,du,3,007,60.0152407594,2C,auditory,2017_Nov_01_1137,
bi.wav,1,3,38,441,S,,,,,,,,0,8,8,8,,,,,,,,,None,,,,,,,,,,,,,du,3,007,60.0152407594,2C,auditory,2017_Nov_01_1137,
bu.wav,4,1,37,442,S,,,,,,,,0,9,9,9,,,,,,,,,None,,,,,,,,,,,,,du,3,007,60.0152407594,2C,auditory,2017_Nov_01_1137,
pa.wav,4,2,37,443,S,,,,,,,,0,10,10,10,,,,,,,,,None,,,,,,,,,,,,,du,3,007,60.0152407594,2C,auditory,2017_Nov_01_1137,
da.wav,4,3,37,444,S,,,,,,,,0,11,11,11,,,,,,,,,None,,,,,,,,,,,,,du,3,007,60.0152407594,2C,auditory,2017_Nov_01_1137,
di.wav,2,1,37,445,S,,,,,,,,0,12,12,12,,,,,,,,,None,,,,,,,,,,,,,du,3,007,60.0152407594,2C,auditory,2017_Nov_01_1137,
ba.wav,2,2,37,446,S,,,,,,,,0,13,13,13,,,,,,,,,None,,,,,,,,,,,,,du,3,007,60.0152407594,2C,auditory,2017_Nov_01_1137,
pu.wav,2,3,37,447,S,,,,,,,,0,14,14,14,,,,,,,,,None,,,,,,,,,,,,,du,3,007,60.0152407594,2C,auditory,2017_Nov_01_1137,
pi.wav,1,1,39,448,S,,,,,,,,0,15,15,15,,,,,,,,,None,,,,,,,,,,,,,du,3,007,60.0152407594,2C,auditory,2017_Nov_01_1137,
tu.wav,1,2,39,449,S,,,,,,,,0,16,16,16,,,,,,,,,None,,,,,,,,,,,,,du,3,007,60.0152407594,2C,auditory,2017_Nov_01_1137,
bi.wav,1,3,39,450,S,,,,,,,,0,17,17,17,,,,,,,,,None,,,,,,,,,,,,,du,3,007,60.0152407594,2C,auditory,2017_Nov_01_1137,
bu.wav,4,1,38,451,S,,,,,,,,0,18,18,18,,,,,,,,,None,,,,,,,,,,,,,du,3,007,60.0152407594,2C,auditory,2017_Nov_01_1137,
pa.wav,4,2,38,452,S,,,,,,,,0,19,19,19,,,,,,,,,None,,,,,,,,,,,,,du,3,007,60.0152407594,2C,auditory,2017_Nov_01_1137,
da.wav,4,3,38,453,S,,,,,,,,0,20,20,20,,,,,,,,,None,,,,,,,,,,,,,du,3,007,60.0152407594,2C,auditory,2017_Nov_01_1137,
di.wav,2,1,38,454,S,,,,,,,,0,21,21,21,,,,,,,,,None,,,,,,,,,,,,,du,3,007,60.0152407594,2C,auditory,2017_Nov_01_1137,
ba.wav,2,2,38,455,S,,,,,,,,0,22,22,22,,,,,,,,,None,,,,,,,,,,,,,du,3,007,60.0152407594,2C,auditory,2017_Nov_01_1137,
pu.wav,2,3,38,456,S,,,,,,,,0,23,23,23,,,,,,,,,None,,,,,,,,,,,,,du,3,007,60.0152407594,2C,auditory,2017_Nov_01_1137,
silence.wav,0,0,0,0,B,,,,,,,,0,24,24,24,,,,,,,,,None,,,,,,,,,,,,,du,3,007,60.0152407594,2C,auditory,2017_Nov_01_1137,
silence.wav,0,0,0,0,B,,,,,,,,0,25,25,25,,,,,,,,,None,,,,,,,,,,,,,du,3,007,60.0152407594,2C,auditory,2017_Nov_01_1137,
silence.wav,0,0,0,0,B,,,,,,,,0,26,26,26,,,,,,,,,None,,,,,,,,,,,,,du,3,007,60.0152407594,2C,auditory,2017_Nov_01_1137,
silence.wav,0,0,0,0,B,,,,,,,,0,27,27,27,,,,,,,,,None,,,,,,,,,,,,,du,3,007,60.0152407594,2C,auditory,2017_Nov_01_1137,
silence.wav,0,0,0,0,B,,,,,,,,0,28,28,28,,,,,,,,,None,,,,,,,,,,,,,du,3,007,60.0152407594,2C,auditory,2017_Nov_01_1137,
silence.wav,0,0,0,0,B,,,,,,,,0,29,29,29,,,,,,,,,None,,,,,,,,,,,,,du,3,007,60.0152407594,2C,auditory,2017_Nov_01_1137,
silence.wav,0,0,0,0,B,,,,,,,,0,30,30,30,,,,,,,,,None,,,,,,,,,,,,,du,3,007,60.0152407594,2C,auditory,2017_Nov_01_1137,
silence.wav,0,0,0,0,B,,,,,,,,0,31,31,31,,,,,,,,,None,,,,,,,,,,,,,du,3,007,60.0152407594,2C,auditory,2017_Nov_01_1137,
silence.wav,0,0,0,0,B,,,,,,,,0,32,32,32,,,,,,,,,None,,,,,,,,,,,,,du,3,007,60.0152407594,2C,auditory,2017_Nov_01_1137,
silence.wav,0,0,0,0,B,,,,,,,,0,33,33,33,,,,,,,,,None,,,,,,,,,,,,,du,3,007,60.0152407594,2C,auditory,2017_Nov_01_1137,
silence.wav,0,0,0,0,B,,,,,,,,0,34,34,34,,,,,,,,,None,,,,,,,,,,,,,du,3,007,60.0152407594,2C,auditory,2017_Nov_01_1137,
silence.wav,0,0,0,0,B,,,,,,,,0,35,35,35,,,,,,,,,None,,,,,,,,,,,,,du,3,007,60.0152407594,2C,auditory,2017_Nov_01_1137,
ta.wav,3,1,38,457,S,,,,,,,,0,36,36,36,,,,,,,,,None,,,,,,,,,,,,,du,3,007,60.0152407594,2C,auditory,2017_Nov_01_1137,
ti.wav,3,2,38,458,S,,,,,,,,0,37,37,37,,,,,,,,,None,,,,,,,,,,,,,du,3,007,60.0152407594,2C,auditory,2017_Nov_01_1137,
du.wav,3,3,38,459,S,,,,,,,,0,38,38,38,,,,,,,,,None,,,,,,,,,,,,,du,3,007,60.0152407594,2C,auditory,2017_Nov_01_1137,
di.wav,2,1,39,460,S,,,,,,,,0,39,39,39,,,,,,,,,None,,,,,,,,,,,,,du,3,007,60.0152407594,2C,auditory,2017_Nov_01_1137,
ba.wav,2,2,39,461,S,,,,,,,,0,40,40,40,,,,,,,,,None,,,,,,,,,,,,,du,3,007,60.0152407594,2C,auditory,2017_Nov_01_1137,
pu.wav,2,3,39,462,S,,,,,,,,0,41,41,41,,,,,,,,,None,,,,,,,,,,,,,du,3,007,60.0152407594,2C,auditory,2017_Nov_01_1137,
pi.wav,1,1,40,463,S,,,,,,,,0,42,42,42,,,,,,,,,None,,,,,,,,,,,,,du,3,007,60.0152407594,2C,auditory,2017_Nov_01_1137,
tu.wav,1,2,40,464,S,,,,,,,,0,43,43,43,,,,,,,,,None,,,,,,,,,,,,,du,3,007,60.0152407594,2C,auditory,2017_Nov_01_1137,
bi.wav,1,3,40,465,S,,,,,,,,0,44,44,44,,,,,,,,,None,,,,,,,,,,,,,du,3,007,60.0152407594,2C,auditory,2017_Nov_01_1137,
ta.wav,3,1,39,466,S,,,,,,,,0,45,45,45,,,,,,,,,None,,,,,,,,,,,,,du,3,007,60.0152407594,2C,auditory,2017_Nov_01_1137,
ti.wav,3,2,39,467,S,,,,,,,,0,46,46,46,,,,,,,,,None,,,,,,,,,,,,,du,3,007,60.0152407594,2C,auditory,2017_Nov_01_1137,
du.wav,3,3,39,468,S,,,,,,,,0,47,47,47,,,,,,,,,None,,,,,,,,,,,,,du,3,007,60.0152407594,2C,auditory,2017_Nov_01_1137,
bu.wav,4,1,39,469,S,,,,,,,,0,48,48,48,,,,,,,,,2,0.233894878416,,,,,,,,,,,,du,3,007,60.0152407594,2C,auditory,2017_Nov_01_1137,
pa.wav,4,2,39,470,S,,,,,,,,0,49,49,49,,,,,,,,,None,,,,,,,,,,,,,du,3,007,60.0152407594,2C,auditory,2017_Nov_01_1137,
da.wav,4,3,39,471,S,,,,,,,,0,50,50,50,,,,,,,,,None,,,,,,,,,,,,,du,3,007,60.0152407594,2C,auditory,2017_Nov_01_1137,
ta.wav,3,1,40,472,S,,,,,,,,0,51,51,51,,,,,,,,,None,,,,,,,,,,,,,du,3,007,60.0152407594,2C,auditory,2017_Nov_01_1137,
ti.wav,3,2,40,473,S,,,,,,,,0,52,52,52,,,,,,,,,None,,,,,,,,,,,,,du,3,007,60.0152407594,2C,auditory,2017_Nov_01_1137,
du.wav,3,3,40,474,S,,,,,,,,0,53,53,53,,,,,,,,,None,,,,,,,,,,,,,du,3,007,60.0152407594,2C,auditory,2017_Nov_01_1137,
di.wav,2,1,40,475,S,,,,,,,,0,54,54,54,,,,,,,,,2,0.317330741556,,,,,,,,,,,,du,3,007,60.0152407594,2C,auditory,2017_Nov_01_1137,
ba.wav,2,2,40,476,S,,,,,,,,0,55,55,55,,,,,,,,,None,,,,,,,,,,,,,du,3,007,60.0152407594,2C,auditory,2017_Nov_01_1137,
pu.wav,2,3,40,477,S,,,,,,,,0,56,56,56,,,,,,,,,None,,,,,,,,,,,,,du,3,007,60.0152407594,2C,auditory,2017_Nov_01_1137,
bu.wav,4,1,40,478,S,,,,,,,,0,57,57,57,,,,,,,,,None,,,,,,,,,,,,,du,3,007,60.0152407594,2C,auditory,2017_Nov_01_1137,
pa.wav,4,2,40,479,S,,,,,,,,0,58,58,58,,,,,,,,,None,,,,,,,,,,,,,du,3,007,60.0152407594,2C,auditory,2017_Nov_01_1137,
da.wav,4,3,40,480,S,,,,,,,,0,59,59,59,,,,,,,,,None,,,,,,,,,,,,,du,3,007,60.0152407594,2C,auditory,2017_Nov_01_1137,
2A.wav,0,1,1,457,R,,,,,,,,,,,,0,0,0,0,,,,,,,None,,,,,,,,,,,du,3,007,60.0152407594,2C,auditory,2017_Nov_01_1137,
1B.wav,0,2,1,458,R,,,,,,,,,,,,0,1,1,1,,,,,,,None,,,,,,,,,,,du,3,007,60.0152407594,2C,auditory,2017_Nov_01_1137,
4C.wav,0,3,1,459,R,,,,,,,,,,,,0,2,2,2,,,,,,,None,,,,,,,,,,,du,3,007,60.0152407594,2C,auditory,2017_Nov_01_1137,
1B.wav,0,1,1,460,R,,,,,,,,,,,,0,3,3,3,,,,,,,None,,,,,,,,,,,du,3,007,60.0152407594,2C,auditory,2017_Nov_01_1137,
3B.wav,0,2,1,461,R,,,,,,,,,,,,0,4,4,4,,,,,,,None,,,,,,,,,,,du,3,007,60.0152407594,2C,auditory,2017_Nov_01_1137,
4B.wav,0,3,1,462,R,,,,,,,,,,,,0,5,5,5,,,,,,,None,,,,,,,,,,,du,3,007,60.0152407594,2C,auditory,2017_Nov_01_1137,
2B.wav,0,1,1,463,R,,,,,,,,,,,,0,6,6,6,,,,,,,None,,,,,,,,,,,du,3,007,60.0152407594,2C,auditory,2017_Nov_01_1137,
4A.wav,0,2,1,464,R,,,,,,,,,,,,0,7,7,7,,,,,,,None,,,,,,,,,,,du,3,007,60.0152407594,2C,auditory,2017_Nov_01_1137,
4B.wav,0,3,1,465,R,,,,,,,,,,,,0,8,8,8,,,,,,,None,,,,,,,,,,,du,3,007,60.0152407594,2C,auditory,2017_Nov_01_1137,
2A.wav,0,1,1,466,R,,,,,,,,,,,,0,9,9,9,,,,,,,None,,,,,,,,,,,du,3,007,60.0152407594,2C,auditory,2017_Nov_01_1137,
4C.wav,0,2,1,467,R,,,,,,,,,,,,0,10,10,10,,,,,,,None,,,,,,,,,,,du,3,007,60.0152407594,2C,auditory,2017_Nov_01_1137,
4A.wav,0,3,1,468,R,,,,,,,,,,,,0,11,11,11,,,,,,,None,,,,,,,,,,,du,3,007,60.0152407594,2C,auditory,2017_Nov_01_1137,
1A.wav,0,1,1,469,R,,,,,,,,,,,,0,12,12,12,,,,,,,None,,,,,,,,,,,du,3,007,60.0152407594,2C,auditory,2017_Nov_01_1137,
4C.wav,0,2,1,470,R,,,,,,,,,,,,0,13,13,13,,,,,,,None,,,,,,,,,,,du,3,007,60.0152407594,2C,auditory,2017_Nov_01_1137,
3C.wav,0,3,1,471,R,,,,,,,,,,,,0,14,14,14,,,,,,,None,,,,,,,,,,,du,3,007,60.0152407594,2C,auditory,2017_Nov_01_1137,
1A.wav,0,1,1,472,R,,,,,,,,,,,,0,15,15,15,,,,,,,None,,,,,,,,,,,du,3,007,60.0152407594,2C,auditory,2017_Nov_01_1137,
4A.wav,0,2,1,473,R,,,,,,,,,,,,0,16,16,16,,,,,,,None,,,,,,,,,,,du,3,007,60.0152407594,2C,auditory,2017_Nov_01_1137,
4B.wav,0,3,1,474,R,,,,,,,,,,,,0,17,17,17,,,,,,,None,,,,,,,,,,,du,3,007,60.0152407594,2C,auditory,2017_Nov_01_1137,
2C.wav,0,1,1,475,R,,,,,,,,,,,,0,18,18,18,,,,,,,None,,,,,,,,,,,du,3,007,60.0152407594,2C,auditory,2017_Nov_01_1137,
1C.wav,0,2,1,476,R,,,,,,,,,,,,0,19,19,19,,,,,,,None,,,,,,,,,,,du,3,007,60.0152407594,2C,auditory,2017_Nov_01_1137,
2B.wav,0,3,1,477,R,,,,,,,,,,,,0,20,20,20,,,,,,,None,,,,,,,,,,,du,3,007,60.0152407594,2C,auditory,2017_Nov_01_1137,
2C.wav,0,1,1,478,R,,,,,,,,,,,,0,21,21,21,,,,,,,None,,,,,,,,,,,du,3,007,60.0152407594,2C,auditory,2017_Nov_01_1137,
1C.wav,0,2,1,479,R,,,,,,,,,,,,0,22,22,22,,,,,,,None,,,,,,,,,,,du,3,007,60.0152407594,2C,auditory,2017_Nov_01_1137,
3A.wav,0,3,1,480,R,,,,,,,,,,,,0,23,23,23,,,,,,,None,,,,,,,,,,,du,3,007,60.0152407594,2C,auditory,2017_Nov_01_1137,
silence.wav,0,0,0,0,B,,,,,,,,,,,,0,24,24,24,,,,,,,None,,,,,,,,,,,du,3,007,60.0152407594,2C,auditory,2017_Nov_01_1137,
silence.wav,0,0,0,0,B,,,,,,,,,,,,0,25,25,25,,,,,,,None,,,,,,,,,,,du,3,007,60.0152407594,2C,auditory,2017_Nov_01_1137,
silence.wav,0,0,0,0,B,,,,,,,,,,,,0,26,26,26,,,,,,,None,,,,,,,,,,,du,3,007,60.0152407594,2C,auditory,2017_Nov_01_1137,
silence.wav,0,0,0,0,B,,,,,,,,,,,,0,27,27,27,,,,,,,None,,,,,,,,,,,du,3,007,60.0152407594,2C,auditory,2017_Nov_01_1137,
silence.wav,0,0,0,0,B,,,,,,,,,,,,0,28,28,28,,,,,,,None,,,,,,,,,,,du,3,007,60.0152407594,2C,auditory,2017_Nov_01_1137,
silence.wav,0,0,0,0,B,,,,,,,,,,,,0,29,29,29,,,,,,,None,,,,,,,,,,,du,3,007,60.0152407594,2C,auditory,2017_Nov_01_1137,
silence.wav,0,0,0,0,B,,,,,,,,,,,,0,30,30,30,,,,,,,None,,,,,,,,,,,du,3,007,60.0152407594,2C,auditory,2017_Nov_01_1137,
silence.wav,0,0,0,0,B,,,,,,,,,,,,0,31,31,31,,,,,,,None,,,,,,,,,,,du,3,007,60.0152407594,2C,auditory,2017_Nov_01_1137,
silence.wav,0,0,0,0,B,,,,,,,,,,,,0,32,32,32,,,,,,,None,,,,,,,,,,,du,3,007,60.0152407594,2C,auditory,2017_Nov_01_1137,
silence.wav,0,0,0,0,B,,,,,,,,,,,,0,33,33,33,,,,,,,None,,,,,,,,,,,du,3,007,60.0152407594,2C,auditory,2017_Nov_01_1137,
silence.wav,0,0,0,0,B,,,,,,,,,,,,0,34,34,34,,,,,,,None,,,,,,,,,,,du,3,007,60.0152407594,2C,auditory,2017_Nov_01_1137,
silence.wav,0,0,0,0,B,,,,,,,,,,,,0,35,35,35,,,,,,,None,,,,,,,,,,,du,3,007,60.0152407594,2C,auditory,2017_Nov_01_1137,
4A.wav,0,1,1,481,R,,,,,,,,,,,,0,36,36,36,,,,,,,None,,,,,,,,,,,du,3,007,60.0152407594,2C,auditory,2017_Nov_01_1137,
2B.wav,0,2,1,482,R,,,,,,,,,,,,0,37,37,37,,,,,,,None,,,,,,,,,,,du,3,007,60.0152407594,2C,auditory,2017_Nov_01_1137,
4B.wav,0,3,1,483,R,,,,,,,,,,,,0,38,38,38,,,,,,,None,,,,,,,,,,,du,3,007,60.0152407594,2C,auditory,2017_Nov_01_1137,
1A.wav,0,1,1,484,R,,,,,,,,,,,,0,39,39,39,,,,,,,None,,,,,,,,,,,du,3,007,60.0152407594,2C,auditory,2017_Nov_01_1137,
2C.wav,0,2,1,485,R,,,,,,,,,,,,0,40,40,40,,,,,,,None,,,,,,,,,,,du,3,007,60.0152407594,2C,auditory,2017_Nov_01_1137,
3B.wav,0,3,1,486,R,,,,,,,,,,,,0,41,41,41,,,,,,,None,,,,,,,,,,,du,3,007,60.0152407594,2C,auditory,2017_Nov_01_1137,
3A.wav,0,1,1,487,R,,,,,,,,,,,,0,42,42,42,,,,,,,None,,,,,,,,,,,du,3,007,60.0152407594,2C,auditory,2017_Nov_01_1137,
3C.wav,0,2,1,488,R,,,,,,,,,,,,0,43,43,43,,,,,,,None,,,,,,,,,,,du,3,007,60.0152407594,2C,auditory,2017_Nov_01_1137,
4C.wav,0,3,1,489,R,,,,,,,,,,,,0,44,44,44,,,,,,,None,,,,,,,,,,,du,3,007,60.0152407594,2C,auditory,2017_Nov_01_1137,
4A.wav,0,1,1,490,R,,,,,,,,,,,,0,45,45,45,,,,,,,None,,,,,,,,,,,du,3,007,60.0152407594,2C,auditory,2017_Nov_01_1137,
1C.wav,0,2,1,491,R,,,,,,,,,,,,0,46,46,46,,,,,,,None,,,,,,,,,,,du,3,007,60.0152407594,2C,auditory,2017_Nov_01_1137,
2A.wav,0,3,1,492,R,,,,,,,,,,,,0,47,47,47,,,,,,,None,,,,,,,,,,,du,3,007,60.0152407594,2C,auditory,2017_Nov_01_1137,
2A.wav,0,1,1,493,R,,,,,,,,,,,,0,48,48,48,,,,,,,None,,,,,,,,,,,du,3,007,60.0152407594,2C,auditory,2017_Nov_01_1137,
1B.wav,0,2,1,494,R,,,,,,,,,,,,0,49,49,49,,,,,,,None,,,,,,,,,,,du,3,007,60.0152407594,2C,auditory,2017_Nov_01_1137,
3B.wav,0,3,1,495,R,,,,,,,,,,,,0,50,50,50,,,,,,,None,,,,,,,,,,,du,3,007,60.0152407594,2C,auditory,2017_Nov_01_1137,
4C.wav,0,1,1,496,R,,,,,,,,,,,,0,51,51,51,,,,,,,None,,,,,,,,,,,du,3,007,60.0152407594,2C,auditory,2017_Nov_01_1137,
3A.wav,0,2,1,497,R,,,,,,,,,,,,0,52,52,52,,,,,,,None,,,,,,,,,,,du,3,007,60.0152407594,2C,auditory,2017_Nov_01_1137,
1B.wav,0,3,1,498,R,,,,,,,,,,,,0,53,53,53,,,,,,,None,,,,,,,,,,,du,3,007,60.0152407594,2C,auditory,2017_Nov_01_1137,
4B.wav,0,1,1,499,R,,,,,,,,,,,,0,54,54,54,,,,,,,None,,,,,,,,,,,du,3,007,60.0152407594,2C,auditory,2017_Nov_01_1137,
1A.wav,0,2,1,500,R,,,,,,,,,,,,0,55,55,55,,,,,,,None,,,,,,,,,,,du,3,007,60.0152407594,2C,auditory,2017_Nov_01_1137,
1C.wav,0,3,1,501,R,,,,,,,,,,,,0,56,56,56,,,,,,,None,,,,,,,,,,,du,3,007,60.0152407594,2C,auditory,2017_Nov_01_1137,
2C.wav,0,1,1,502,R,,,,,,,,,,,,0,57,57,57,,,,,,,None,,,,,,,,,,,du,3,007,60.0152407594,2C,auditory,2017_Nov_01_1137,
2B.wav,0,2,1,503,R,,,,,,,,,,,,0,58,58,58,,,,,,,2,0.251714768587,,,,,,,,,,du,3,007,60.0152407594,2C,auditory,2017_Nov_01_1137,
3C.wav,0,3,1,504,R,,,,,,,,,,,,0,59,59,59,,,,,,,None,,,,,,,,,,,du,3,007,60.0152407594,2C,auditory,2017_Nov_01_1137,
silence.wav,0,0,0,0,B,,,,,,,,,,,,0,60,60,60,,,,,,,None,,,,,,,,,,,du,3,007,60.0152407594,2C,auditory,2017_Nov_01_1137,
silence.wav,0,0,0,0,B,,,,,,,,,,,,0,61,61,61,,,,,,,None,,,,,,,,,,,du,3,007,60.0152407594,2C,auditory,2017_Nov_01_1137,
silence.wav,0,0,0,0,B,,,,,,,,,,,,0,62,62,62,,,,,,,None,,,,,,,,,,,du,3,007,60.0152407594,2C,auditory,2017_Nov_01_1137,
silence.wav,0,0,0,0,B,,,,,,,,,,,,0,63,63,63,,,,,,,None,,,,,,,,,,,du,3,007,60.0152407594,2C,auditory,2017_Nov_01_1137,
silence.wav,0,0,0,0,B,,,,,,,,,,,,0,64,64,64,,,,,,,None,,,,,,,,,,,du,3,007,60.0152407594,2C,auditory,2017_Nov_01_1137,
silence.wav,0,0,0,0,B,,,,,,,,,,,,0,65,65,65,,,,,,,None,,,,,,,,,,,du,3,007,60.0152407594,2C,auditory,2017_Nov_01_1137,
silence.wav,0,0,0,0,B,,,,,,,,,,,,0,66,66,66,,,,,,,None,,,,,,,,,,,du,3,007,60.0152407594,2C,auditory,2017_Nov_01_1137,
silence.wav,0,0,0,0,B,,,,,,,,,,,,0,67,67,67,,,,,,,None,,,,,,,,,,,du,3,007,60.0152407594,2C,auditory,2017_Nov_01_1137,
silence.wav,0,0,0,0,B,,,,,,,,,,,,0,68,68,68,,,,,,,None,,,,,,,,,,,du,3,007,60.0152407594,2C,auditory,2017_Nov_01_1137,
silence.wav,0,0,0,0,B,,,,,,,,,,,,0,69,69,69,,,,,,,None,,,,,,,,,,,du,3,007,60.0152407594,2C,auditory,2017_Nov_01_1137,
silence.wav,0,0,0,0,B,,,,,,,,,,,,0,70,70,70,,,,,,,None,,,,,,,,,,,du,3,007,60.0152407594,2C,auditory,2017_Nov_01_1137,
silence.wav,0,0,0,0,B,,,,,,,,,,,,0,71,71,71,,,,,,,None,,,,,,,,,,,du,3,007,60.0152407594,2C,auditory,2017_Nov_01_1137,
3B.wav,0,1,1,505,R,,,,,,,,,,,,0,72,72,72,,,,,,,None,,,,,,,,,,,du,3,007,60.0152407594,2C,auditory,2017_Nov_01_1137,
3B.wav,0,2,1,506,R,,,,,,,,,,,,0,73,73,73,,,,,,,None,,,,,,,,,,,du,3,007,60.0152407594,2C,auditory,2017_Nov_01_1137,
4A.wav,0,3,1,507,R,,,,,,,,,,,,0,74,74,74,,,,,,,None,,,,,,,,,,,du,3,007,60.0152407594,2C,auditory,2017_Nov_01_1137,
4A.wav,0,1,1,508,R,,,,,,,,,,,,0,75,75,75,,,,,,,None,,,,,,,,,,,du,3,007,60.0152407594,2C,auditory,2017_Nov_01_1137,
1B.wav,0,2,1,509,R,,,,,,,,,,,,0,76,76,76,,,,,,,None,,,,,,,,,,,du,3,007,60.0152407594,2C,auditory,2017_Nov_01_1137,
2C.wav,0,3,1,510,R,,,,,,,,,,,,0,77,77,77,,,,,,,None,,,,,,,,,,,du,3,007,60.0152407594,2C,auditory,2017_Nov_01_1137,
1A.wav,0,1,1,511,R,,,,,,,,,,,,0,78,78,78,,,,,,,None,,,,,,,,,,,du,3,007,60.0152407594,2C,auditory,2017_Nov_01_1137,
3C.wav,0,2,1,512,R,,,,,,,,,,,,0,79,79,79,,,,,,,None,,,,,,,,,,,du,3,007,60.0152407594,2C,auditory,2017_Nov_01_1137,
1C.wav,0,3,1,513,R,,,,,,,,,,,,0,80,80,80,,,,,,,None,,,,,,,,,,,du,3,007,60.0152407594,2C,auditory,2017_Nov_01_1137,
4C.wav,0,1,1,514,R,,,,,,,,,,,,0,81,81,81,,,,,,,None,,,,,,,,,,,du,3,007,60.0152407594,2C,auditory,2017_Nov_01_1137,
2B.wav,0,2,1,515,R,,,,,,,,,,,,0,82,82,82,,,,,,,2,0.184733052389,,,,,,,,,,du,3,007,60.0152407594,2C,auditory,2017_Nov_01_1137,
1A.wav,0,3,1,516,R,,,,,,,,,,,,0,83,83,83,,,,,,,None,,,,,,,,,,,du,3,007,60.0152407594,2C,auditory,2017_Nov_01_1137,
1B.wav,0,1,1,517,R,,,,,,,,,,,,0,84,84,84,,,,,,,None,,,,,,,,,,,du,3,007,60.0152407594,2C,auditory,2017_Nov_01_1137,
2B.wav,0,2,1,518,R,,,,,,,,,,,,0,85,85,85,,,,,,,None,,,,,,,,,,,du,3,007,60.0152407594,2C,auditory,2017_Nov_01_1137,
2A.wav,0,3,1,519,R,,,,,,,,,,,,0,86,86,86,,,,,,,None,,,,,,,,,,,du,3,007,60.0152407594,2C,auditory,2017_Nov_01_1137,
3A.wav,0,1,1,520,R,,,,,,,,,,,,0,87,87,87,,,,,,,None,,,,,,,,,,,du,3,007,60.0152407594,2C,auditory,2017_Nov_01_1137,
4B.wav,0,2,1,521,R,,,,,,,,,,,,0,88,88,88,,,,,,,None,,,,,,,,,,,du,3,007,60.0152407594,2C,auditory,2017_Nov_01_1137,
2C.wav,0,3,1,522,R,,,,,,,,,,,,0,89,89,89,,,,,,,None,,,,,,,,,,,du,3,007,60.0152407594,2C,auditory,2017_Nov_01_1137,
3C.wav,0,1,1,523,R,,,,,,,,,,,,0,90,90,90,,,,,,,None,,,,,,,,,,,du,3,007,60.0152407594,2C,auditory,2017_Nov_01_1137,
4C.wav,0,2,1,524,R,,,,,,,,,,,,0,91,91,91,,,,,,,None,,,,,,,,,,,du,3,007,60.0152407594,2C,auditory,2017_Nov_01_1137,
1C.wav,0,3,1,525,R,,,,,,,,,,,,0,92,92,92,,,,,,,None,,,,,,,,,,,du,3,007,60.0152407594,2C,auditory,2017_Nov_01_1137,
3A.wav,0,1,1,526,R,,,,,,,,,,,,0,93,93,93,,,,,,,None,,,,,,,,,,,du,3,007,60.0152407594,2C,auditory,2017_Nov_01_1137,
4B.wav,0,2,1,527,R,,,,,,,,,,,,0,94,94,94,,,,,,,None,,,,,,,,,,,du,3,007,60.0152407594,2C,auditory,2017_Nov_01_1137,
2A.wav,0,3,1,528,R,,,,,,,,,,,,0,95,95,95,,,,,,,None,,,,,,,,,,,du,3,007,60.0152407594,2C,auditory,2017_Nov_01_1137,
pi.wav,1,1,41,481,S,,,,,,,,0,0,0,0,,,,,,,,,None,,,,,,,,,,,,,du,3,007,60.0152407594,2C,auditory,2017_Nov_01_1137,
tu.wav,1,2,41,482,S,,,,,,,,0,1,1,1,,,,,,,,,None,,,,,,,,,,,,,du,3,007,60.0152407594,2C,auditory,2017_Nov_01_1137,
bi.wav,1,3,41,483,S,,,,,,,,0,2,2,2,,,,,,,,,None,,,,,,,,,,,,,du,3,007,60.0152407594,2C,auditory,2017_Nov_01_1137,
bu.wav,4,1,41,484,S,,,,,,,,0,3,3,3,,,,,,,,,None,,,,,,,,,,,,,du,3,007,60.0152407594,2C,auditory,2017_Nov_01_1137,
pa.wav,4,2,41,485,S,,,,,,,,0,4,4,4,,,,,,,,,None,,,,,,,,,,,,,du,3,007,60.0152407594,2C,auditory,2017_Nov_01_1137,
da.wav,4,3,41,486,S,,,,,,,,0,5,5,5,,,,,,,,,None,,,,,,,,,,,,,du,3,007,60.0152407594,2C,auditory,2017_Nov_01_1137,
di.wav,2,1,41,487,S,,,,,,,,0,6,6,6,,,,,,,,,None,,,,,,,,,,,,,du,3,007,60.0152407594,2C,auditory,2017_Nov_01_1137,
ba.wav,2,2,41,488,S,,,,,,,,0,7,7,7,,,,,,,,,None,,,,,,,,,,,,,du,3,007,60.0152407594,2C,auditory,2017_Nov_01_1137,
pu.wav,2,3,41,489,S,,,,,,,,0,8,8,8,,,,,,,,,None,,,,,,,,,,,,,du,3,007,60.0152407594,2C,auditory,2017_Nov_01_1137,
ta.wav,3,1,41,490,S,,,,,,,,0,9,9,9,,,,,,,,,None,,,,,,,,,,,,,du,3,007,60.0152407594,2C,auditory,2017_Nov_01_1137,
ti.wav,3,2,41,491,S,,,,,,,,0,10,10,10,,,,,,,,,None,,,,,,,,,,,,,du,3,007,60.0152407594,2C,auditory,2017_Nov_01_1137,
du.wav,3,3,41,492,S,,,,,,,,0,11,11,11,,,,,,,,,None,,,,,,,,,,,,,du,3,007,60.0152407594,2C,auditory,2017_Nov_01_1137,
bu.wav,4,1,42,493,S,,,,,,,,0,12,12,12,,,,,,,,,2,0.350416676723,,,,,,,,,,,,du,3,007,60.0152407594,2C,auditory,2017_Nov_01_1137,
pa.wav,4,2,42,494,S,,,,,,,,0,13,13,13,,,,,,,,,None,,,,,,,,,,,,,du,3,007,60.0152407594,2C,auditory,2017_Nov_01_1137,
da.wav,4,3,42,495,S,,,,,,,,0,14,14,14,,,,,,,,,None,,,,,,,,,,,,,du,3,007,60.0152407594,2C,auditory,2017_Nov_01_1137,
pi.wav,1,1,42,496,S,,,,,,,,0,15,15,15,,,,,,,,,None,,,,,,,,,,,,,du,3,007,60.0152407594,2C,auditory,2017_Nov_01_1137,
tu.wav,1,2,42,497,S,,,,,,,,0,16,16,16,,,,,,,,,None,,,,,,,,,,,,,du,3,007,60.0152407594,2C,auditory,2017_Nov_01_1137,
bi.wav,1,3,42,498,S,,,,,,,,0,17,17,17,,,,,,,,,None,,,,,,,,,,,,,du,3,007,60.0152407594,2C,auditory,2017_Nov_01_1137,
di.wav,2,1,42,499,S,,,,,,,,0,18,18,18,,,,,,,,,None,,,,,,,,,,,,,du,3,007,60.0152407594,2C,auditory,2017_Nov_01_1137,
ba.wav,2,2,42,500,S,,,,,,,,0,19,19,19,,,,,,,,,None,,,,,,,,,,,,,du,3,007,60.0152407594,2C,auditory,2017_Nov_01_1137,
pu.wav,2,3,42,501,S,,,,,,,,0,20,20,20,,,,,,,,,None,,,,,,,,,,,,,du,3,007,60.0152407594,2C,auditory,2017_Nov_01_1137,
ta.wav,3,1,42,502,S,,,,,,,,0,21,21,21,,,,,,,,,None,,,,,,,,,,,,,du,3,007,60.0152407594,2C,auditory,2017_Nov_01_1137,
ti.wav,3,2,42,503,S,,,,,,,,0,22,22,22,,,,,,,,,None,,,,,,,,,,,,,du,3,007,60.0152407594,2C,auditory,2017_Nov_01_1137,
du.wav,3,3,42,504,S,,,,,,,,0,23,23,23,,,,,,,,,None,,,,,,,,,,,,,du,3,007,60.0152407594,2C,auditory,2017_Nov_01_1137,
silence.wav,0,0,0,0,B,,,,,,,,0,24,24,24,,,,,,,,,2,0.21711211605,,,,,,,,,,,,du,3,007,60.0152407594,2C,auditory,2017_Nov_01_1137,
silence.wav,0,0,0,0,B,,,,,,,,0,25,25,25,,,,,,,,,None,,,,,,,,,,,,,du,3,007,60.0152407594,2C,auditory,2017_Nov_01_1137,
silence.wav,0,0,0,0,B,,,,,,,,0,26,26,26,,,,,,,,,None,,,,,,,,,,,,,du,3,007,60.0152407594,2C,auditory,2017_Nov_01_1137,
silence.wav,0,0,0,0,B,,,,,,,,0,27,27,27,,,,,,,,,None,,,,,,,,,,,,,du,3,007,60.0152407594,2C,auditory,2017_Nov_01_1137,
silence.wav,0,0,0,0,B,,,,,,,,0,28,28,28,,,,,,,,,None,,,,,,,,,,,,,du,3,007,60.0152407594,2C,auditory,2017_Nov_01_1137,
silence.wav,0,0,0,0,B,,,,,,,,0,29,29,29,,,,,,,,,None,,,,,,,,,,,,,du,3,007,60.0152407594,2C,auditory,2017_Nov_01_1137,
silence.wav,0,0,0,0,B,,,,,,,,0,30,30,30,,,,,,,,,None,,,,,,,,,,,,,du,3,007,60.0152407594,2C,auditory,2017_Nov_01_1137,
silence.wav,0,0,0,0,B,,,,,,,,0,31,31,31,,,,,,,,,None,,,,,,,,,,,,,du,3,007,60.0152407594,2C,auditory,2017_Nov_01_1137,
silence.wav,0,0,0,0,B,,,,,,,,0,32,32,32,,,,,,,,,None,,,,,,,,,,,,,du,3,007,60.0152407594,2C,auditory,2017_Nov_01_1137,
silence.wav,0,0,0,0,B,,,,,,,,0,33,33,33,,,,,,,,,None,,,,,,,,,,,,,du,3,007,60.0152407594,2C,auditory,2017_Nov_01_1137,
silence.wav,0,0,0,0,B,,,,,,,,0,34,34,34,,,,,,,,,None,,,,,,,,,,,,,du,3,007,60.0152407594,2C,auditory,2017_Nov_01_1137,
silence.wav,0,0,0,0,B,,,,,,,,0,35,35,35,,,,,,,,,None,,,,,,,,,,,,,du,3,007,60.0152407594,2C,auditory,2017_Nov_01_1137,
pi.wav,1,1,43,505,S,,,,,,,,0,36,36,36,,,,,,,,,None,,,,,,,,,,,,,du,3,007,60.0152407594,2C,auditory,2017_Nov_01_1137,
tu.wav,1,2,43,506,S,,,,,,,,0,37,37,37,,,,,,,,,None,,,,,,,,,,,,,du,3,007,60.0152407594,2C,auditory,2017_Nov_01_1137,
bi.wav,1,3,43,507,S,,,,,,,,0,38,38,38,,,,,,,,,None,,,,,,,,,,,,,du,3,007,60.0152407594,2C,auditory,2017_Nov_01_1137,
ta.wav,3,1,43,508,S,,,,,,,,0,39,39,39,,,,,,,,,None,,,,,,,,,,,,,du,3,007,60.0152407594,2C,auditory,2017_Nov_01_1137,
ti.wav,3,2,43,509,S,,,,,,,,0,40,40,40,,,,,,,,,None,,,,,,,,,,,,,du,3,007,60.0152407594,2C,auditory,2017_Nov_01_1137,
du.wav,3,3,43,510,S,,,,,,,,0,41,41,41,,,,,,,,,None,,,,,,,,,,,,,du,3,007,60.0152407594,2C,auditory,2017_Nov_01_1137,
bu.wav,4,1,43,511,S,,,,,,,,0,42,42,42,,,,,,,,,2,0.399603118189,,,,,,,,,,,,du,3,007,60.0152407594,2C,auditory,2017_Nov_01_1137,
pa.wav,4,2,43,512,S,,,,,,,,0,43,43,43,,,,,,,,,None,,,,,,,,,,,,,du,3,007,60.0152407594,2C,auditory,2017_Nov_01_1137,
da.wav,4,3,43,513,S,,,,,,,,0,44,44,44,,,,,,,,,None,,,,,,,,,,,,,du,3,007,60.0152407594,2C,auditory,2017_Nov_01_1137,
di.wav,2,1,43,514,S,,,,,,,,0,45,45,45,,,,,,,,,None,,,,,,,,,,,,,du,3,007,60.0152407594,2C,auditory,2017_Nov_01_1137,
ba.wav,2,2,43,515,S,,,,,,,,0,46,46,46,,,,,,,,,None,,,,,,,,,,,,,du,3,007,60.0152407594,2C,auditory,2017_Nov_01_1137,
pu.wav,2,3,43,516,S,,,,,,,,0,47,47,47,,,,,,,,,None,,,,,,,,,,,,,du,3,007,60.0152407594,2C,auditory,2017_Nov_01_1137,
bu.wav,4,1,44,517,S,,,,,,,,0,48,48,48,,,,,,,,,None,,,,,,,,,,,,,du,3,007,60.0152407594,2C,auditory,2017_Nov_01_1137,
pa.wav,4,2,44,518,S,,,,,,,,0,49,49,49,,,,,,,,,None,,,,,,,,,,,,,du,3,007,60.0152407594,2C,auditory,2017_Nov_01_1137,
da.wav,4,3,44,519,S,,,,,,,,0,50,50,50,,,,,,,,,None,,,,,,,,,,,,,du,3,007,60.0152407594,2C,auditory,2017_Nov_01_1137,
ta.wav,3,1,44,520,S,,,,,,,,0,51,51,51,,,,,,,,,None,,,,,,,,,,,,,du,3,007,60.0152407594,2C,auditory,2017_Nov_01_1137,
ti.wav,3,2,44,521,S,,,,,,,,0,52,52,52,,,,,,,,,None,,,,,,,,,,,,,du,3,007,60.0152407594,2C,auditory,2017_Nov_01_1137,
du.wav,3,3,44,522,S,,,,,,,,0,53,53,53,,,,,,,,,None,,,,,,,,,,,,,du,3,007,60.0152407594,2C,auditory,2017_Nov_01_1137,
pi.wav,1,1,44,523,S,,,,,,,,0,54,54,54,,,,,,,,,2,0.300528697204,,,,,,,,,,,,du,3,007,60.0152407594,2C,auditory,2017_Nov_01_1137,
tu.wav,1,2,44,524,S,,,,,,,,0,55,55,55,,,,,,,,,None,,,,,,,,,,,,,du,3,007,60.0152407594,2C,auditory,2017_Nov_01_1137,
bi.wav,1,3,44,525,S,,,,,,,,0,56,56,56,,,,,,,,,None,,,,,,,,,,,,,du,3,007,60.0152407594,2C,auditory,2017_Nov_01_1137,
di.wav,2,1,44,526,S,,,,,,,,0,57,57,57,,,,,,,,,None,,,,,,,,,,,,,du,3,007,60.0152407594,2C,auditory,2017_Nov_01_1137,
ba.wav,2,2,44,527,S,,,,,,,,0,58,58,58,,,,,,,,,None,,,,,,,,,,,,,du,3,007,60.0152407594,2C,auditory,2017_Nov_01_1137,
pu.wav,2,3,44,528,S,,,,,,,,0,59,59,59,,,,,,,,,None,,,,,,,,,,,,,du,3,007,60.0152407594,2C,auditory,2017_Nov_01_1137,
4A.wav,0,1,1,529,R,,,,,,,,,,,,0,0,0,0,,,,,,,None,,,,,,,,,,,du,3,007,60.0152407594,2C,auditory,2017_Nov_01_1137,
3A.wav,0,2,1,530,R,,,,,,,,,,,,0,1,1,1,,,,,,,None,,,,,,,,,,,du,3,007,60.0152407594,2C,auditory,2017_Nov_01_1137,
2A.wav,0,3,1,531,R,,,,,,,,,,,,0,2,2,2,,,,,,,None,,,,,,,,,,,du,3,007,60.0152407594,2C,auditory,2017_Nov_01_1137,
4B.wav,0,1,1,532,R,,,,,,,,,,,,0,3,3,3,,,,,,,None,,,,,,,,,,,du,3,007,60.0152407594,2C,auditory,2017_Nov_01_1137,
2A.wav,0,2,1,533,R,,,,,,,,,,,,0,4,4,4,,,,,,,None,,,,,,,,,,,du,3,007,60.0152407594,2C,auditory,2017_Nov_01_1137,
2B.wav,0,3,1,534,R,,,,,,,,,,,,0,5,5,5,,,,,,,None,,,,,,,,,,,du,3,007,60.0152407594,2C,auditory,2017_Nov_01_1137,
2B.wav,0,1,1,535,R,,,,,,,,,,,,0,6,6,6,,,,,,,None,,,,,,,,,,,du,3,007,60.0152407594,2C,auditory,2017_Nov_01_1137,
2C.wav,0,2,1,536,R,,,,,,,,,,,,0,7,7,7,,,,,,,None,,,,,,,,,,,du,3,007,60.0152407594,2C,auditory,2017_Nov_01_1137,
4B.wav,0,3,1,537,R,,,,,,,,,,,,0,8,8,8,,,,,,,None,,,,,,,,,,,du,3,007,60.0152407594,2C,auditory,2017_Nov_01_1137,
3B.wav,0,1,1,538,R,,,,,,,,,,,,0,9,9,9,,,,,,,None,,,,,,,,,,,du,3,007,60.0152407594,2C,auditory,2017_Nov_01_1137,
2B.wav,0,2,1,539,R,,,,,,,,,,,,0,10,10,10,,,,,,,None,,,,,,,,,,,du,3,007,60.0152407594,2C,auditory,2017_Nov_01_1137,
4A.wav,0,3,1,540,R,,,,,,,,,,,,0,11,11,11,,,,,,,None,,,,,,,,,,,du,3,007,60.0152407594,2C,auditory,2017_Nov_01_1137,
3C.wav,0,1,1,541,R,,,,,,,,,,,,0,12,12,12,,,,,,,None,,,,,,,,,,,du,3,007,60.0152407594,2C,auditory,2017_Nov_01_1137,
2C.wav,0,2,1,542,R,,,,,,,,,,,,0,13,13,13,,,,,,,None,,,,,,,,,,,du,3,007,60.0152407594,2C,auditory,2017_Nov_01_1137,
4C.wav,0,3,1,543,R,,,,,,,,,,,,0,14,14,14,,,,,,,None,,,,,,,,,,,du,3,007,60.0152407594,2C,auditory,2017_Nov_01_1137,
3C.wav,0,1,1,544,R,,,,,,,,,,,,0,15,15,15,,,,,,,None,,,,,,,,,,,du,3,007,60.0152407594,2C,auditory,2017_Nov_01_1137,
1A.wav,0,2,1,545,R,,,,,,,,,,,,0,16,16,16,,,,,,,None,,,,,,,,,,,du,3,007,60.0152407594,2C,auditory,2017_Nov_01_1137,
4C.wav,0,3,1,546,R,,,,,,,,,,,,0,17,17,17,,,,,,,None,,,,,,,,,,,du,3,007,60.0152407594,2C,auditory,2017_Nov_01_1137,
2C.wav,0,1,1,547,R,,,,,,,,,,,,0,18,18,18,,,,,,,None,,,,,,,,,,,du,3,007,60.0152407594,2C,auditory,2017_Nov_01_1137,
1C.wav,0,2,1,548,R,,,,,,,,,,,,0,19,19,19,,,,,,,None,,,,,,,,,,,du,3,007,60.0152407594,2C,auditory,2017_Nov_01_1137,
1B.wav,0,3,1,549,R,,,,,,,,,,,,0,20,20,20,,,,,,,None,,,,,,,,,,,du,3,007,60.0152407594,2C,auditory,2017_Nov_01_1137,
2A.wav,0,1,1,550,R,,,,,,,,,,,,0,21,21,21,,,,,,,None,,,,,,,,,,,du,3,007,60.0152407594,2C,auditory,2017_Nov_01_1137,
3A.wav,0,2,1,551,R,,,,,,,,,,,,0,22,22,22,,,,,,,None,,,,,,,,,,,du,3,007,60.0152407594,2C,auditory,2017_Nov_01_1137,
3B.wav,0,3,1,552,R,,,,,,,,,,,,0,23,23,23,,,,,,,None,,,,,,,,,,,du,3,007,60.0152407594,2C,auditory,2017_Nov_01_1137,
bu.wav,4,1,45,529,S,,,,,,,,0,0,0,0,,,,,,,,,None,,,,,,,,,,,,,du,3,007,60.0152407594,2C,auditory,2017_Nov_01_1137,
pa.wav,4,2,45,530,S,,,,,,,,0,1,1,1,,,,,,,,,None,,,,,,,,,,,,,du,3,007,60.0152407594,2C,auditory,2017_Nov_01_1137,
da.wav,4,3,45,531,S,,,,,,,,0,2,2,2,,,,,,,,,None,,,,,,,,,,,,,du,3,007,60.0152407594,2C,auditory,2017_Nov_01_1137,
pi.wav,1,1,45,532,S,,,,,,,,0,3,3,3,,,,,,,,,None,,,,,,,,,,,,,du,3,007,60.0152407594,2C,auditory,2017_Nov_01_1137,
tu.wav,1,2,45,533,S,,,,,,,,0,4,4,4,,,,,,,,,None,,,,,,,,,,,,,du,3,007,60.0152407594,2C,auditory,2017_Nov_01_1137,
bi.wav,1,3,45,534,S,,,,,,,,0,5,5,5,,,,,,,,,None,,,,,,,,,,,,,du,3,007,60.0152407594,2C,auditory,2017_Nov_01_1137,
ta.wav,3,1,45,535,S,,,,,,,,0,6,6,6,,,,,,,,,None,,,,,,,,,,,,,du,3,007,60.0152407594,2C,auditory,2017_Nov_01_1137,
ti.wav,3,2,45,536,S,,,,,,,,0,7,7,7,,,,,,,,,None,,,,,,,,,,,,,du,3,007,60.0152407594,2C,auditory,2017_Nov_01_1137,
du.wav,3,3,45,537,S,,,,,,,,0,8,8,8,,,,,,,,,None,,,,,,,,,,,,,du,3,007,60.0152407594,2C,auditory,2017_Nov_01_1137,
bu.wav,4,1,46,538,S,,,,,,,,0,9,9,9,,,,,,,,,2,0.233757852926,,,,,,,,,,,,du,3,007,60.0152407594,2C,auditory,2017_Nov_01_1137,
pa.wav,4,2,46,539,S,,,,,,,,0,10,10,10,,,,,,,,,None,,,,,,,,,,,,,du,3,007,60.0152407594,2C,auditory,2017_Nov_01_1137,
da.wav,4,3,46,540,S,,,,,,,,0,11,11,11,,,,,,,,,None,,,,,,,,,,,,,du,3,007,60.0152407594,2C,auditory,2017_Nov_01_1137,
pi.wav,1,1,46,541,S,,,,,,,,0,12,12,12,,,,,,,,,None,,,,,,,,,,,,,du,3,007,60.0152407594,2C,auditory,2017_Nov_01_1137,
tu.wav,1,2,46,542,S,,,,,,,,0,13,13,13,,,,,,,,,None,,,,,,,,,,,,,du,3,007,60.0152407594,2C,auditory,2017_Nov_01_1137,
bi.wav,1,3,46,543,S,,,,,,,,0,14,14,14,,,,,,,,,None,,,,,,,,,,,,,du,3,007,60.0152407594,2C,auditory,2017_Nov_01_1137,
ta.wav,3,1,46,544,S,,,,,,,,0,15,15,15,,,,,,,,,None,,,,,,,,,,,,,du,3,007,60.0152407594,2C,auditory,2017_Nov_01_1137,
ti.wav,3,2,46,545,S,,,,,,,,0,16,16,16,,,,,,,,,None,,,,,,,,,,,,,du,3,007,60.0152407594,2C,auditory,2017_Nov_01_1137,
du.wav,3,3,46,546,S,,,,,,,,0,17,17,17,,,,,,,,,None,,,,,,,,,,,,,du,3,007,60.0152407594,2C,auditory,2017_Nov_01_1137,
di.wav,2,1,45,547,S,,,,,,,,0,18,18,18,,,,,,,,,2,0.250559897162,,,,,,,,,,,,du,3,007,60.0152407594,2C,auditory,2017_Nov_01_1137,
ba.wav,2,2,45,548,S,,,,,,,,0,19,19,19,,,,,,,,,None,,,,,,,,,,,,,du,3,007,60.0152407594,2C,auditory,2017_Nov_01_1137,
pu.wav,2,3,45,549,S,,,,,,,,0,20,20,20,,,,,,,,,None,,,,,,,,,,,,,du,3,007,60.0152407594,2C,auditory,2017_Nov_01_1137,
bu.wav,4,1,47,550,S,,,,,,,,0,21,21,21,,,,,,,,,None,,,,,,,,,,,,,du,3,007,60.0152407594,2C,auditory,2017_Nov_01_1137,
pa.wav,4,2,47,551,S,,,,,,,,0,22,22,22,,,,,,,,,None,,,,,,,,,,,,,du,3,007,60.0152407594,2C,auditory,2017_Nov_01_1137,
da.wav,4,3,47,552,S,,,,,,,,0,23,23,23,,,,,,,,,None,,,,,,,,,,,,,du,3,007,60.0152407594,2C,auditory,2017_Nov_01_1137,
1A.wav,0,1,1,553,R,,,,,,,,,,,,0,0,0,0,,,,,,,None,,,,,,,,,,,du,3,007,60.0152407594,2C,auditory,2017_Nov_01_1137,
2C.wav,0,2,1,554,R,,,,,,,,,,,,0,1,1,1,,,,,,,None,,,,,,,,,,,du,3,007,60.0152407594,2C,auditory,2017_Nov_01_1137,
2B.wav,0,3,1,555,R,,,,,,,,,,,,0,2,2,2,,,,,,,2,0.417253572377,,,,,,,,,,du,3,007,60.0152407594,2C,auditory,2017_Nov_01_1137,
4B.wav,0,1,1,556,R,,,,,,,,,,,,0,3,3,3,,,,,,,None,,,,,,,,,,,du,3,007,60.0152407594,2C,auditory,2017_Nov_01_1137,
1B.wav,0,2,1,557,R,,,,,,,,,,,,0,4,4,4,,,,,,,None,,,,,,,,,,,du,3,007,60.0152407594,2C,auditory,2017_Nov_01_1137,
4B.wav,0,3,1,558,R,,,,,,,,,,,,0,5,5,5,,,,,,,None,,,,,,,,,,,du,3,007,60.0152407594,2C,auditory,2017_Nov_01_1137,
1B.wav,0,1,1,559,R,,,,,,,,,,,,0,6,6,6,,,,,,,None,,,,,,,,,,,du,3,007,60.0152407594,2C,auditory,2017_Nov_01_1137,
4A.wav,0,2,1,560,R,,,,,,,,,,,,0,7,7,7,,,,,,,None,,,,,,,,,,,du,3,007,60.0152407594,2C,auditory,2017_Nov_01_1137,
3A.wav,0,3,1,561,R,,,,,,,,,,,,0,8,8,8,,,,,,,None,,,,,,,,,,,du,3,007,60.0152407594,2C,auditory,2017_Nov_01_1137,
2A.wav,0,1,1,562,R,,,,,,,,,,,,0,9,9,9,,,,,,,None,,,,,,,,,,,du,3,007,60.0152407594,2C,auditory,2017_Nov_01_1137,
4A.wav,0,2,1,563,R,,,,,,,,,,,,0,10,10,10,,,,,,,None,,,,,,,,,,,du,3,007,60.0152407594,2C,auditory,2017_Nov_01_1137,
3B.wav,0,3,1,564,R,,,,,,,,,,,,0,11,11,11,,,,,,,None,,,,,,,,,,,du,3,007,60.0152407594,2C,auditory,2017_Nov_01_1137,
4C.wav,0,1,1,565,R,,,,,,,,,,,,0,12,12,12,,,,,,,None,,,,,,,,,,,du,3,007,60.0152407594,2C,auditory,2017_Nov_01_1137,
1A.wav,0,2,1,566,R,,,,,,,,,,,,0,13,13,13,,,,,,,None,,,,,,,,,,,du,3,007,60.0152407594,2C,auditory,2017_Nov_01_1137,
1C.wav,0,3,1,567,R,,,,,,,,,,,,0,14,14,14,,,,,,,None,,,,,,,,,,,du,3,007,60.0152407594,2C,auditory,2017_Nov_01_1137,
3B.wav,0,1,1,568,R,,,,,,,,,,,,0,15,15,15,,,,,,,None,,,,,,,,,,,du,3,007,60.0152407594,2C,auditory,2017_Nov_01_1137,
4C.wav,0,2,1,569,R,,,,,,,,,,,,0,16,16,16,,,,,,,None,,,,,,,,,,,du,3,007,60.0152407594,2C,auditory,2017_Nov_01_1137,
3C.wav,0,3,1,570,R,,,,,,,,,,,,0,17,17,17,,,,,,,None,,,,,,,,,,,du,3,007,60.0152407594,2C,auditory,2017_Nov_01_1137,
1C.wav,0,1,1,571,R,,,,,,,,,,,,0,18,18,18,,,,,,,None,,,,,,,,,,,du,3,007,60.0152407594,2C,auditory,2017_Nov_01_1137,
3A.wav,0,2,1,572,R,,,,,,,,,,,,0,19,19,19,,,,,,,None,,,,,,,,,,,du,3,007,60.0152407594,2C,auditory,2017_Nov_01_1137,
1C.wav,0,3,1,573,R,,,,,,,,,,,,0,20,20,20,,,,,,,None,,,,,,,,,,,du,3,007,60.0152407594,2C,auditory,2017_Nov_01_1137,
1B.wav,0,1,1,574,R,,,,,,,,,,,,0,21,21,21,,,,,,,None,,,,,,,,,,,du,3,007,60.0152407594,2C,auditory,2017_Nov_01_1137,
3C.wav,0,2,1,575,R,,,,,,,,,,,,0,22,22,22,,,,,,,None,,,,,,,,,,,du,3,007,60.0152407594,2C,auditory,2017_Nov_01_1137,
1A.wav,0,3,1,576,R,,,,,,,,,,,,0,23,23,23,,,,,,,None,,,,,,,,,,,du,3,007,60.0152407594,2C,auditory,2017_Nov_01_1137,
di.wav,2,1,46,553,S,,,,,,,,0,0,0,0,,,,,,,,,None,,,,,,,,,,,,,du,3,007,60.0152407594,2C,auditory,2017_Nov_01_1137,
ba.wav,2,2,46,554,S,,,,,,,,0,1,1,1,,,,,,,,,None,,,,,,,,,,,,,du,3,007,60.0152407594,2C,auditory,2017_Nov_01_1137,
pu.wav,2,3,46,555,S,,,,,,,,0,2,2,2,,,,,,,,,None,,,,,,,,,,,,,du,3,007,60.0152407594,2C,auditory,2017_Nov_01_1137,
ta.wav,3,1,47,556,S,,,,,,,,0,3,3,3,,,,,,,,,None,,,,,,,,,,,,,du,3,007,60.0152407594,2C,auditory,2017_Nov_01_1137,
ti.wav,3,2,47,557,S,,,,,,,,0,4,4,4,,,,,,,,,None,,,,,,,,,,,,,du,3,007,60.0152407594,2C,auditory,2017_Nov_01_1137,
du.wav,3,3,47,558,S,,,,,,,,0,5,5,5,,,,,,,,,None,,,,,,,,,,,,,du,3,007,60.0152407594,2C,auditory,2017_Nov_01_1137,
pi.wav,1,1,47,559,S,,,,,,,,0,6,6,6,,,,,,,,,None,,,,,,,,,,,,,du,3,007,60.0152407594,2C,auditory,2017_Nov_01_1137,
tu.wav,1,2,47,560,S,,,,,,,,0,7,7,7,,,,,,,,,None,,,,,,,,,,,,,du,3,007,60.0152407594,2C,auditory,2017_Nov_01_1137,
bi.wav,1,3,47,561,S,,,,,,,,0,8,8,8,,,,,,,,,None,,,,,,,,,,,,,du,3,007,60.0152407594,2C,auditory,2017_Nov_01_1137,
di.wav,2,1,47,562,S,,,,,,,,0,9,9,9,,,,,,,,,None,,,,,,,,,,,,,du,3,007,60.0152407594,2C,auditory,2017_Nov_01_1137,
ba.wav,2,2,47,563,S,,,,,,,,0,10,10,10,,,,,,,,,None,,,,,,,,,,,,,du,3,007,60.0152407594,2C,auditory,2017_Nov_01_1137,
pu.wav,2,3,47,564,S,,,,,,,,0,11,11,11,,,,,,,,,None,,,,,,,,,,,,,du,3,007,60.0152407594,2C,auditory,2017_Nov_01_1137,
ta.wav,3,1,48,565,S,,,,,,,,0,12,12,12,,,,,,,,,None,,,,,,,,,,,,,du,3,007,60.0152407594,2C,auditory,2017_Nov_01_1137,
ti.wav,3,2,48,566,S,,,,,,,,0,13,13,13,,,,,,,,,None,,,,,,,,,,,,,du,3,007,60.0152407594,2C,auditory,2017_Nov_01_1137,
du.wav,3,3,48,567,S,,,,,,,,0,14,14,14,,,,,,,,,None,,,,,,,,,,,,,du,3,007,60.0152407594,2C,auditory,2017_Nov_01_1137,
bu.wav,4,1,48,568,S,,,,,,,,0,15,15,15,,,,,,,,,None,,,,,,,,,,,,,du,3,007,60.0152407594,2C,auditory,2017_Nov_01_1137,
pa.wav,4,2,48,569,S,,,,,,,,0,16,16,16,,,,,,,,,2,0.150518502342,,,,,,,,,,,,du,3,007,60.0152407594,2C,auditory,2017_Nov_01_1137,
da.wav,4,3,48,570,S,,,,,,,,0,17,17,17,,,,,,,,,None,,,,,,,,,,,,,du,3,007,60.0152407594,2C,auditory,2017_Nov_01_1137,
pi.wav,1,1,48,571,S,,,,,,,,0,18,18,18,,,,,,,,,None,,,,,,,,,,,,,du,3,007,60.0152407594,2C,auditory,2017_Nov_01_1137,
tu.wav,1,2,48,572,S,,,,,,,,0,19,19,19,,,,,,,,,None,,,,,,,,,,,,,du,3,007,60.0152407594,2C,auditory,2017_Nov_01_1137,
bi.wav,1,3,48,573,S,,,,,,,,0,20,20,20,,,,,,,,,None,,,,,,,,,,,,,du,3,007,60.0152407594,2C,auditory,2017_Nov_01_1137,
di.wav,2,1,48,574,S,,,,,,,,0,21,21,21,,,,,,,,,None,,,,,,,,,,,,,du,3,007,60.0152407594,2C,auditory,2017_Nov_01_1137,
ba.wav,2,2,48,575,S,,,,,,,,0,22,22,22,,,,,,,,,None,,,,,,,,,,,,,du,3,007,60.0152407594,2C,auditory,2017_Nov_01_1137,
pu.wav,2,3,48,576,S,,,,,,,,0,23,23,23,,,,,,,,,None,,,,,,,,,,,,,du,3,007,60.0152407594,2C,auditory,2017_Nov_01_1137,
,,,,,,,,,,,,,,,,,,,,,,,,,,,,,2,2.64659296547,,,,,,,,du,3,007,60.0152407594,2C,auditory,2017_Nov_01_1137,
,,,,,,,,,,,,,,,,,,,,,,,,,,,,,,,2,3.2005664818,,,,,,du,3,007,60.0152407594,2C,auditory,2017_Nov_01_1137,
,,,,,,,,,,,,,,,,,,,,,,,,,,,,,,,,,2,1.56687894685,,,,du,3,007,60.0152407594,2C,auditory,2017_Nov_01_1137,
,,,,,,3,pu.wav,ba.wav,di.wav,du.wav,tu.wav,bu.wav,,,,,,,,,0,0,0,1,,,,,,,,,,,3,1,1.35051718948,du,3,007,60.0152407594,2C,auditory,2017_Nov_01_1137,
,,,,,,3,da.wav,pa.wav,bu.wav,da.wav,ba.wav,ta.wav,,,,,,,,,0,1,1,3,,,,,,,,,,,2,0,0.300303466502,du,3,007,60.0152407594,2C,auditory,2017_Nov_01_1137,
,,,,,,3,da.wav,pa.wav,bu.wav,du.wav,tu.wav,bu.wav,,,,,,,,,0,2,2,29,,,,,,,,,,,3,1,0.234266160289,du,3,007,60.0152407594,2C,auditory,2017_Nov_01_1137,
,,,,,,4,da.wav,ba.wav,ta.wav,pu.wav,ba.wav,di.wav,,,,,,,,,0,3,3,24,,,,,,,,,,,3,0,0.383673278498,du,3,007,60.0152407594,2C,auditory,2017_Nov_01_1137,
,,,,,,4,pu.wav,ti.wav,pi.wav,pu.wav,ba.wav,di.wav,,,,,,,,,0,4,4,17,,,,,,,,,,,3,0,0.700533866533,du,3,007,60.0152407594,2C,auditory,2017_Nov_01_1137,
,,,,,,4,da.wav,ba.wav,ta.wav,du.wav,ti.wav,ta.wav,,,,,,,,,0,5,5,11,,,,,,,,,,,3,0,0.467008628882,du,3,007,60.0152407594,2C,auditory,2017_Nov_01_1137,
,,,,,,4,bi.wav,pa.wav,di.wav,da.wav,pa.wav,bu.wav,,,,,,,,,0,6,6,23,,,,,,,,,,,3,0,0.450348122977,du,3,007,60.0152407594,2C,auditory,2017_Nov_01_1137,
,,,,,,4,pu.wav,ti.wav,pi.wav,bi.wav,tu.wav,pi.wav,,,,,,,,,0,7,7,6,,,,,,,,,,,3,0,0.617314618547,du,3,007,60.0152407594,2C,auditory,2017_Nov_01_1137,
,,,,,,4,da.wav,ba.wav,ta.wav,da.wav,pa.wav,bu.wav,,,,,,,,,0,8,8,30,,,,,,,,,,,2,0,0.450385456323,du,3,007,60.0152407594,2C,auditory,2017_Nov_01_1137,
,,,,,,3,pu.wav,ba.wav,di.wav,bi.wav,pa.wav,di.wav,,,,,,,,,0,9,9,0,,,,,,,,,,,3,1,0.65129901492,du,3,007,60.0152407594,2C,auditory,2017_Nov_01_1137,
,,,,,,4,bi.wav,pa.wav,di.wav,du.wav,ti.wav,ta.wav,,,,,,,,,0,10,10,28,,,,,,,,,,,2,0,0.633772047702,du,3,007,60.0152407594,2C,auditory,2017_Nov_01_1137,
,,,,,,4,du.wav,tu.wav,bu.wav,bi.wav,tu.wav,pi.wav,,,,,,,,,0,11,11,25,,,,,,,,,,,2,0,0.299610543763,du,3,007,60.0152407594,2C,auditory,2017_Nov_01_1137,
,,,,,,3,bi.wav,tu.wav,pi.wav,du.wav,tu.wav,bu.wav,,,,,,,,,0,12,12,9,,,,,,,,,,,3,1,0.183114181273,du,3,007,60.0152407594,2C,auditory,2017_Nov_01_1137,
,,,,,,3,pu.wav,ba.wav,di.wav,da.wav,ba.wav,ta.wav,,,,,,,,,0,13,13,4,,,,,,,,,,,3,1,0.467050885316,du,3,007,60.0152407594,2C,auditory,2017_Nov_01_1137,
,,,,,,3,du.wav,ti.wav,ta.wav,da.wav,ba.wav,ta.wav,,,,,,,,,0,14,14,26,,,,,,,,,,,2,0,0.333757811808,du,3,007,60.0152407594,2C,auditory,2017_Nov_01_1137,
,,,,,,4,du.wav,tu.wav,bu.wav,da.wav,pa.wav,bu.wav,,,,,,,,,0,15,15,31,,,,,,,,,,,3,0,0.25050779467,du,3,007,60.0152407594,2C,auditory,2017_Nov_01_1137,
,,,,,,3,bi.wav,tu.wav,pi.wav,pu.wav,ti.wav,pi.wav,,,,,,,,,0,16,16,15,,,,,,,,,,,2,0,0.316937716096,du,3,007,60.0152407594,2C,auditory,2017_Nov_01_1137,
,,,,,,4,bi.wav,pa.wav,di.wav,pu.wav,ba.wav,di.wav,,,,,,,,,0,17,17,14,,,,,,,,,,,3,0,0.500549538294,du,3,007,60.0152407594,2C,auditory,2017_Nov_01_1137,
,,,,,,4,du.wav,tu.wav,bu.wav,du.wav,ti.wav,ta.wav,,,,,,,,,0,18,18,12,,,,,,,,,,,3,0,0.86686692643,du,3,007,60.0152407594,2C,auditory,2017_Nov_01_1137,
,,,,,,4,bi.wav,pa.wav,di.wav,bi.wav,tu.wav,pi.wav,,,,,,,,,0,19,19,7,,,,,,,,,,,3,0,0.51699506992,du,3,007,60.0152407594,2C,auditory,2017_Nov_01_1137,
,,,,,,3,du.wav,ti.wav,ta.wav,du.wav,tu.wav,bu.wav,,,,,,,,,0,20,20,18,,,,,,,,,,,3,1,0.117179439054,du,3,007,60.0152407594,2C,auditory,2017_Nov_01_1137,
,,,,,,3,da.wav,pa.wav,bu.wav,bi.wav,pa.wav,di.wav,,,,,,,,,0,21,21,27,,,,,,,,,,,3,1,0.218132833601,du,3,007,60.0152407594,2C,auditory,2017_Nov_01_1137,
,,,,,,3,du.wav,ti.wav,ta.wav,bi.wav,pa.wav,di.wav,,,,,,,,,0,22,22,20,,,,,,,,,,,3,1,0.501910768449,du,3,007,60.0152407594,2C,auditory,2017_Nov_01_1137,
,,,,,,3,pu.wav,ba.wav,di.wav,pu.wav,ti.wav,pi.wav,,,,,,,,,0,23,23,5,,,,,,,,,,,3,1,0.618493694928,du,3,007,60.0152407594,2C,auditory,2017_Nov_01_1137,
,,,,,,4,pu.wav,ti.wav,pi.wav,du.wav,ti.wav,ta.wav,,,,,,,,,0,24,24,22,,,,,,,,,,,2,0,0.367133798078,du,3,007,60.0152407594,2C,auditory,2017_Nov_01_1137,
,,,,,,4,du.wav,tu.wav,bu.wav,pu.wav,ba.wav,di.wav,,,,,,,,,0,25,25,2,,,,,,,,,,,2,0,0.317130126292,du,3,007,60.0152407594,2C,auditory,2017_Nov_01_1137,
,,,,,,4,pu.wav,ti.wav,pi.wav,da.wav,pa.wav,bu.wav,,,,,,,,,0,26,26,16,,,,,,,,,,,3,0,0.833807657938,du,3,007,60.0152407594,2C,auditory,2017_Nov_01_1137,
,,,,,,3,bi.wav,tu.wav,pi.wav,bi.wav,pa.wav,di.wav,,,,,,,,,0,27,27,21,,,,,,,,,,,2,0,0.68384300149,du,3,007,60.0152407594,2C,auditory,2017_Nov_01_1137,
,,,,,,3,bi.wav,tu.wav,pi.wav,da.wav,ba.wav,ta.wav,,,,,,,,,0,28,28,13,,,,,,,,,,,3,1,0.817293203203,du,3,007,60.0152407594,2C,auditory,2017_Nov_01_1137,
,,,,,,4,da.wav,ba.wav,ta.wav,bi.wav,tu.wav,pi.wav,,,,,,,,,0,29,29,19,,,,,,,,,,,3,0,0.300221004989,du,3,007,60.0152407594,2C,auditory,2017_Nov_01_1137,
,,,,,,3,du.wav,ti.wav,ta.wav,pu.wav,ti.wav,pi.wav,,,,,,,,,0,30,30,10,,,,,,,,,,,2,0,0.450285353698,du,3,007,60.0152407594,2C,auditory,2017_Nov_01_1137,
,,,,,,3,da.wav,pa.wav,bu.wav,pu.wav,ti.wav,pi.wav,,,,,,,,,0,31,31,8,,,,,,,,,,,2,0,0.317114126286,du,3,007,60.0152407594,2C,auditory,2017_Nov_01_1137,
