"rt","responses","trial_type","trial_index","time_elapsed","internal_node_id","cond","targ","key_press"
"2947","{""Q0"":""trial""}","survey-text","0","2971","0.0-0.0","lang2","pi",""
"29575.102040816324","","single-audio","1","34040","0.0-1.0","lang2","pi","32"
"1626.9841269841265","","single-audio","2","36792","0.0-2.0","lang2","pi","32"
"235.23809523809547","","single-audio","3","38135","0.0-3.0","lang2","pi","32"
"204.76190476190226","","single-audio","4","39442","0.0-4.0","lang2","pi","32"
"-8.571428571428896","","single-audio","5","40535","0.0-5.0","lang2","pi","32"
"1119.0476190476204","","single-audio","6","42816","0.0-6.0","lang2","pi","32"
"351.33786848072646","","single-audio","7","44282","0.0-7.0","lang2","pi","32"
"194.60317460317356","","single-audio","8","45579","0.0-8.0","lang2","pi","32"
"275.8730158730174","","single-audio","9","46967","0.0-9.0","lang2","pi","32"
"245.39682539682417","","single-audio","10","48316","0.0-10.0","lang2","pi","32"
"184.44444444444485","","single-audio","11","49600","0.0-11.0","lang2","pi","32"
"8533.469387755098","","single-audio","12","59499","0.0-12.0","lang2","pi","32"
"-1000","","single-audio","13","60702","0.0-13.0-0.0","lang2","pi","-1"
"286.0317460317461","","single-audio","14","61375","0.0-13.0-1.0","lang2","pi","32"
"255.55555555555287","","single-audio","15","61857","0.0-13.0-2.0","lang2","pi","32"
"-1000","","single-audio","16","62347","0.0-13.0-3.0","lang2","pi","-1"
"-1000","","single-audio","17","63809","0.0-13.0-4.0","lang2","pi","-1"
"-1000","","single-audio","18","64291","0.0-13.0-5.0","lang2","pi","-1"
"-1000","","single-audio","19","64774","0.0-13.0-6.0","lang2","pi","-1"
"2327.9365079365134","","single-audio","20","67338","0.0-13.0-7.0","lang2","pi","39"
"-1000","","single-audio","21","68013","0.0-13.0-8.0","lang2","pi","-1"
"-1000","","single-audio","22","68495","0.0-13.0-9.0","lang2","pi","-1"
"-1000","","single-audio","23","68978","0.0-13.0-10.0","lang2","pi","-1"
"-1000","","single-audio","24","70449","0.0-13.0-11.0","lang2","pi","-1"
"-1000","","single-audio","25","70968","0.0-13.0-12.0","lang2","pi","-1"
"-1000","","single-audio","26","71450","0.0-13.0-13.0","lang2","pi","-1"
"10353.33333333334","","single-audio","27","82077","0.0-13.0-14.0","lang2","pi","39"
"-1000","","single-audio","28","82740","0.0-13.0-15.0","lang2","pi","-1"
"-1000","","single-audio","29","83226","0.0-13.0-16.0","lang2","pi","-1"
"-1000","","single-audio","30","83713","0.0-13.0-17.0","lang2","pi","-1"
"-1000","","single-audio","31","85175","0.0-13.0-18.0","lang2","pi","-1"
"-1000","","single-audio","32","85657","0.0-13.0-19.0","lang2","pi","-1"
"-1000","","single-audio","33","86139","0.0-13.0-20.0","lang2","pi","-1"
"7077.868480725627","","single-audio","34","93491","0.0-13.0-21.0","lang2","pi","39"
"-8.571428571428896","","single-audio","35","94154","0.0-13.0-22.0","lang2","pi","39"
"-1000","","single-audio","36","94644","0.0-13.0-23.0","lang2","pi","-1"
"-1000","","single-audio","37","95129","0.0-13.0-24.0","lang2","pi","-1"
"-1000","","single-audio","38","96609","0.0-13.0-25.0","lang2","pi","-1"
"-1000","","single-audio","39","97091","0.0-13.0-26.0","lang2","pi","-1"
"-1000","","single-audio","40","97590","0.0-13.0-27.0","lang2","pi","-1"
"12039.682539682544","","single-audio","41","109920","0.0-13.0-28.0","lang2","pi","39"
"-1000","","single-audio","42","110588","0.0-13.0-29.0","lang2","pi","-1"
"-1000","","single-audio","43","111075","0.0-13.0-30.0","lang2","pi","-1"
"-1000","","single-audio","44","111558","0.0-13.0-31.0","lang2","pi","-1"
"-1000","","single-audio","45","113026","0.0-13.0-32.0","lang2","pi","-1"
"-1000","","single-audio","46","113508","0.0-13.0-33.0","lang2","pi","-1"
"-1000","","single-audio","47","113991","0.0-13.0-34.0","lang2","pi","-1"
"27826.349206349205","","single-audio","48","142252","0.0-13.0-35.0","lang2","pi","39"
"-1000","","single-audio","49","142918","0.0-13.0-36.0","lang2","pi","-1"
"-1000","","single-audio","50","143400","0.0-13.0-37.0","lang2","pi","-1"
"-1000","","single-audio","51","143882","0.0-13.0-38.0","lang2","pi","-1"
"-1000","","single-audio","52","145344","0.0-13.0-39.0","lang2","pi","-1"
"346.9841269841254","","single-audio","53","145828","0.0-13.0-40.0","lang2","pi","39"
"-1000","","single-audio","54","146312","0.0-13.0-41.0","lang2","pi","-1"
"225.07936507938098","","single-audio","55","146656","0.0-13.0-42.0","lang2","pi","39"
"-1000","","single-audio","56","147319","0.0-13.0-43.0","lang2","pi","-1"
"-1000","","single-audio","57","147801","0.0-13.0-44.0","lang2","pi","-1"
"-1000","","single-audio","58","148283","0.0-13.0-45.0","lang2","pi","-1"
"-1000","","single-audio","59","149749","0.0-13.0-46.0","lang2","pi","-1"
"-1000","","single-audio","60","150235","0.0-13.0-47.0","lang2","pi","-1"
"-1000","","single-audio","61","150741","0.0-13.0-48.0","lang2","pi","-1"
"20207.3015873016","","single-audio","62","171506","0.0-13.0-49.0","lang2","pi","39"
"-1000","","single-audio","63","172208","0.0-13.0-50.0","lang2","pi","-1"
"-1000","","single-audio","64","172691","0.0-13.0-51.0","lang2","pi","-1"
"-1000","","single-audio","65","173173","0.0-13.0-52.0","lang2","pi","-1"
"-1000","","single-audio","66","174635","0.0-13.0-53.0","lang2","pi","-1"
"-1000","","single-audio","67","175117","0.0-13.0-54.0","lang2","pi","-1"
"-1000","","single-audio","68","175609","0.0-13.0-55.0","lang2","pi","-1"
"21645.48752834469","","single-audio","69","197642","0.0-13.0-56.0","lang2","pi","39"
"-1000","","single-audio","70","198305","0.0-13.0-57.0","lang2","pi","-1"
"-1000","","single-audio","71","198788","0.0-13.0-58.0","lang2","pi","-1"
"-1000","","single-audio","72","199270","0.0-13.0-59.0","lang2","pi","-1"
"-1000","","single-audio","73","200732","0.0-13.0-60.0","lang2","pi","-1"
"-1000","","single-audio","74","201261","0.0-13.0-61.0","lang2","pi","-1"
"-1000","","single-audio","75","201748","0.0-13.0-62.0","lang2","pi","-1"
"357.1428571428612","","single-audio","76","202225","0.0-13.0-63.0","lang2","pi","37"
"-1000","","single-audio","77","202891","0.0-13.0-64.0","lang2","pi","-1"
"-1000","","single-audio","78","203382","0.0-13.0-65.0","lang2","pi","-1"
"-1000","","single-audio","79","203868","0.0-13.0-66.0","lang2","pi","-1"
"-1000","","single-audio","80","205330","0.0-13.0-67.0","lang2","pi","-1"
"-1000","","single-audio","81","205813","0.0-13.0-68.0","lang2","pi","-1"
"-1000","","single-audio","82","206297","0.0-13.0-69.0","lang2","pi","-1"
"225.07936507938098","","single-audio","83","206644","0.0-13.0-70.0","lang2","pi","37"
"-1000","","single-audio","84","207307","0.0-13.0-71.0","lang2","pi","-1"
"-1000","","single-audio","85","207789","0.0-13.0-72.0","lang2","pi","-1"
"-1000","","single-audio","86","208314","0.0-13.0-73.0","lang2","pi","-1"
"-1000","","single-audio","87","209782","0.0-13.0-74.0","lang2","pi","-1"
"-1000","","single-audio","88","210266","0.0-13.0-75.0","lang2","pi","-1"
"-1000","","single-audio","89","210748","0.0-13.0-76.0","lang2","pi","-1"
"339.72789115645696","","single-audio","90","211218","0.0-13.0-77.0","lang2","pi","39"
"-1000","","single-audio","91","211881","0.0-13.0-78.0","lang2","pi","-1"
"-1000","","single-audio","92","212363","0.0-13.0-79.0","lang2","pi","-1"
"-1000","","single-audio","93","212845","0.0-13.0-80.0","lang2","pi","-1"
"-1000","","single-audio","94","214315","0.0-13.0-81.0","lang2","pi","-1"
"-1000","","single-audio","95","214797","0.0-13.0-82.0","lang2","pi","-1"
"-1000","","single-audio","96","215279","0.0-13.0-83.0","lang2","pi","-1"
"5365.396825396829","","single-audio","97","220889","0.0-13.0-84.0","lang2","pi","39"
"-1000","","single-audio","98","221559","0.0-13.0-85.0","lang2","pi","-1"
"-1000","","single-audio","99","222049","0.0-13.0-86.0","lang2","pi","-1"
"-1000","","single-audio","100","222531","0.0-13.0-87.0","lang2","pi","-1"
"-1000","","single-audio","101","223994","0.0-13.0-88.0","lang2","pi","-1"
"-1000","","single-audio","102","224511","0.0-13.0-89.0","lang2","pi","-1"
"-1000","","single-audio","103","224993","0.0-13.0-90.0","lang2","pi","-1"
"3644.2176870748144","","single-audio","104","228789","0.0-13.0-91.0","lang2","pi","39"
"-1000","","single-audio","105","229456","0.0-13.0-92.0","lang2","pi","-1"
"-1000","","single-audio","106","229938","0.0-13.0-93.0","lang2","pi","-1"
"-1000","","single-audio","107","230422","0.0-13.0-94.0","lang2","pi","-1"
"-1000","","single-audio","108","231887","0.0-13.0-95.0","lang2","pi","-1"
"-1000","","single-audio","109","232382","0.0-13.0-96.0","lang2","pi","-1"
"-1000","","single-audio","110","232864","0.0-13.0-97.0","lang2","pi","-1"
"397.777777777776","","single-audio","111","233390","0.0-13.0-98.0","lang2","pi","37"
"-1000","","single-audio","112","234052","0.0-13.0-99.0","lang2","pi","-1"
"-1000","","single-audio","113","234534","0.0-13.0-100.0","lang2","pi","-1"
"-1000","","single-audio","114","235028","0.0-13.0-101.0","lang2","pi","-1"
"-1000","","single-audio","115","236502","0.0-13.0-102.0","lang2","pi","-1"
"-1000","","single-audio","116","236985","0.0-13.0-103.0","lang2","pi","-1"
"-1000","","single-audio","117","237467","0.0-13.0-104.0","lang2","pi","-1"
"1098.7301587301488","","single-audio","118","238692","0.0-13.0-105.0","lang2","pi","39"
"-1000","","single-audio","119","239354","0.0-13.0-106.0","lang2","pi","-1"
"-1000","","single-audio","120","239837","0.0-13.0-107.0","lang2","pi","-1"
"-1000","","single-audio","121","240319","0.0-13.0-108.0","lang2","pi","-1"
"-1000","","single-audio","122","241782","0.0-13.0-109.0","lang2","pi","-1"
"-1000","","single-audio","123","242274","0.0-13.0-110.0","lang2","pi","-1"
"-1000","","single-audio","124","242757","0.0-13.0-111.0","lang2","pi","-1"
"265.7142857142958","","single-audio","125","243152","0.0-13.0-112.0","lang2","pi","39"
"-1000","","single-audio","126","243815","0.0-13.0-113.0","lang2","pi","-1"
"-1000","","single-audio","127","244298","0.0-13.0-114.0","lang2","pi","-1"
"-1000","","single-audio","128","244780","0.0-13.0-115.0","lang2","pi","-1"
"-1000","","single-audio","129","246242","0.0-13.0-116.0","lang2","pi","-1"
"-1000","","single-audio","130","246724","0.0-13.0-117.0","lang2","pi","-1"
"-1000","","single-audio","131","247206","0.0-13.0-118.0","lang2","pi","-1"
"336.8253968253896","","single-audio","132","247672","0.0-13.0-119.0","lang2","pi","37"
"-1000","","single-audio","133","248340","0.0-13.0-120.0","lang2","pi","-1"
"-1000","","single-audio","134","248824","0.0-13.0-121.0","lang2","pi","-1"
"-1000","","single-audio","135","249308","0.0-13.0-122.0","lang2","pi","-1"
"-1000","","single-audio","136","250772","0.0-13.0-123.0","lang2","pi","-1"
"-1000","","single-audio","137","251254","0.0-13.0-124.0","lang2","pi","-1"
"-1000","","single-audio","138","251737","0.0-13.0-125.0","lang2","pi","-1"
"926.0317460317538","","single-audio","139","252789","0.0-13.0-126.0","lang2","pi","39"
"-1000","","single-audio","140","253454","0.0-13.0-127.0","lang2","pi","-1"
"-1000","","single-audio","141","253938","0.0-13.0-128.0","lang2","pi","-1"
"-1000","","single-audio","142","254423","0.0-13.0-129.0","lang2","pi","-1"
"-1000","","single-audio","143","255889","0.0-13.0-130.0","lang2","pi","-1"
"-1000","","single-audio","144","256371","0.0-13.0-131.0","lang2","pi","-1"
"-1000","","single-audio","145","256865","0.0-13.0-132.0","lang2","pi","-1"
"1047.9365079364982","","single-audio","146","258038","0.0-13.0-133.0","lang2","pi","37"
"-1000","","single-audio","147","258711","0.0-13.0-134.0","lang2","pi","-1"
"-1000","","single-audio","148","259193","0.0-13.0-135.0","lang2","pi","-1"
"-1000","","single-audio","149","259687","0.0-13.0-136.0","lang2","pi","-1"
"-1000","","single-audio","150","261150","0.0-13.0-137.0","lang2","pi","-1"
"-1000","","single-audio","151","261632","0.0-13.0-138.0","lang2","pi","-1"
"-1000","","single-audio","152","262114","0.0-13.0-139.0","lang2","pi","-1"
"2805.3968253967696","","single-audio","153","265038","0.0-13.0-140.0","lang2","pi","39"
"-1000","","single-audio","154","265779","0.0-13.0-141.0","lang2","pi","-1"
"-1000","","single-audio","155","266261","0.0-13.0-142.0","lang2","pi","-1"
"-1000","","single-audio","156","266743","0.0-13.0-143.0","lang2","pi","-1"
"-1000","","single-audio","157","268205","0.0-13.0-144.0","lang2","pi","-1"
"-1000","","single-audio","158","268687","0.0-13.0-145.0","lang2","pi","-1"
"-1000","","single-audio","159","269169","0.0-13.0-146.0","lang2","pi","-1"
"570.4761904761995","","single-audio","160","269859","0.0-13.0-147.0","lang2","pi","39"
"-1000","","single-audio","161","270521","0.0-13.0-148.0","lang2","pi","-1"
"-1000","","single-audio","162","271003","0.0-13.0-149.0","lang2","pi","-1"
"-1000","","single-audio","163","271485","0.0-13.0-150.0","lang2","pi","-1"
"-1000","","single-audio","164","272948","0.0-13.0-151.0","lang2","pi","-1"
"-1000","","single-audio","165","273441","0.0-13.0-152.0","lang2","pi","-1"
"-1000","","single-audio","166","273923","0.0-13.0-153.0","lang2","pi","-1"
"255.55555555553156","","single-audio","167","274300","0.0-13.0-154.0","lang2","pi","39"
"-1000","","single-audio","168","274979","0.0-13.0-155.0","lang2","pi","-1"
"-1000","","single-audio","169","275462","0.0-13.0-156.0","lang2","pi","-1"
"-1000","","single-audio","170","275945","0.0-13.0-157.0","lang2","pi","-1"
"-1000","","single-audio","171","277407","0.0-13.0-158.0","lang2","pi","-1"
"-1000","","single-audio","172","277895","0.0-13.0-159.0","lang2","pi","-1"
"-1000","","single-audio","173","278382","0.0-13.0-160.0","lang2","pi","-1"
"235.23809523805994","","single-audio","174","278749","0.0-13.0-161.0","lang2","pi","39"
"-1000","","single-audio","175","279420","0.0-13.0-162.0","lang2","pi","-1"
"-1000","","single-audio","176","279910","0.0-13.0-163.0","lang2","pi","-1"
"-1000","","single-audio","177","280393","0.0-13.0-164.0","lang2","pi","-1"
"-1000","","single-audio","178","281855","0.0-13.0-165.0","lang2","pi","-1"
"-1000","","single-audio","179","282338","0.0-13.0-166.0","lang2","pi","-1"
"-1000","","single-audio","180","282820","0.0-13.0-167.0","lang2","pi","-1"
"286.03174603171055","","single-audio","181","283225","0.0-13.0-168.0","lang2","pi","37"
"-1000","","single-audio","182","283908","0.0-13.0-169.0","lang2","pi","-1"
"-1000","","single-audio","183","284391","0.0-13.0-170.0","lang2","pi","-1"
"-1000","","single-audio","184","284874","0.0-13.0-171.0","lang2","pi","-1"
"-1000","","single-audio","185","286337","0.0-13.0-172.0","lang2","pi","-1"
"-1000","","single-audio","186","286819","0.0-13.0-173.0","lang2","pi","-1"
"-1000","","single-audio","187","287301","0.0-13.0-174.0","lang2","pi","-1"
"367.301587301597","","single-audio","188","287810","0.0-13.0-175.0","lang2","pi","39"
"-1000","","single-audio","189","288472","0.0-13.0-176.0","lang2","pi","-1"
"-1000","","single-audio","190","288954","0.0-13.0-177.0","lang2","pi","-1"
"-1000","","single-audio","191","289440","0.0-13.0-178.0","lang2","pi","-1"
"-1000","","single-audio","192","290903","0.0-13.0-179.0","lang2","pi","-1"
"-1000","","single-audio","193","291385","0.0-13.0-180.0","lang2","pi","-1"
"-1000","","single-audio","194","291867","0.0-13.0-181.0","lang2","pi","-1"
"397.777777777776","","single-audio","195","292408","0.0-13.0-182.0","lang2","pi","37"
"-1000","","single-audio","196","293071","0.0-13.0-183.0","lang2","pi","-1"
"-1000","","single-audio","197","293554","0.0-13.0-184.0","lang2","pi","-1"
"-1000","","single-audio","198","294036","0.0-13.0-185.0","lang2","pi","-1"
"-1000","","single-audio","199","295498","0.0-13.0-186.0","lang2","pi","-1"
"-1000","","single-audio","200","295980","0.0-13.0-187.0","lang2","pi","-1"
"-1000","","single-audio","201","296462","0.0-13.0-188.0","lang2","pi","-1"
"265.71428571423894","","single-audio","202","296849","0.0-13.0-189.0","lang2","pi","37"
"-1000","","single-audio","203","297512","0.0-13.0-190.0","lang2","pi","-1"
"-1000","","single-audio","204","297994","0.0-13.0-191.0","lang2","pi","-1"
"-1000","","single-audio","205","298476","0.0-13.0-192.0","lang2","pi","-1"
"-1000","","single-audio","206","299938","0.0-13.0-193.0","lang2","pi","-1"
"-1000","","single-audio","207","300468","0.0-13.0-194.0","lang2","pi","-1"
"-1000","","single-audio","208","300953","0.0-13.0-195.0","lang2","pi","-1"
"448.5714285714266","","single-audio","209","301517","0.0-13.0-196.0","lang2","pi","37"
"-1000","","single-audio","210","302180","0.0-13.0-197.0","lang2","pi","-1"
"-1000","","single-audio","211","302662","0.0-13.0-198.0","lang2","pi","-1"
"-1000","","single-audio","212","303150","0.0-13.0-199.0","lang2","pi","-1"
"-1000","","single-audio","213","304613","0.0-13.0-200.0","lang2","pi","-1"
"-1000","","single-audio","214","305095","0.0-13.0-201.0","lang2","pi","-1"
"-1000","","single-audio","215","305577","0.0-13.0-202.0","lang2","pi","-1"
"1200.3174603174784","","single-audio","216","306900","0.0-13.0-203.0","lang2","pi","37"
"-1000","","single-audio","217","307565","0.0-13.0-204.0","lang2","pi","-1"
"-1000","","single-audio","218","308046","0.0-13.0-205.0","lang2","pi","-1"
"-1000","","single-audio","219","308528","0.0-13.0-206.0","lang2","pi","-1"
"-1000","","single-audio","220","309990","0.0-13.0-207.0","lang2","pi","-1"
"-1000","","single-audio","221","310473","0.0-13.0-208.0","lang2","pi","-1"
"-1000","","single-audio","222","310956","0.0-13.0-209.0","lang2","pi","-1"
"306.34920634918217","","single-audio","223","311382","0.0-13.0-210.0","lang2","pi","37"
"-1000","","single-audio","224","312044","0.0-13.0-211.0","lang2","pi","-1"
"-1000","","single-audio","225","312526","0.0-13.0-212.0","lang2","pi","-1"
"-1000","","single-audio","226","313023","0.0-13.0-213.0","lang2","pi","-1"
"-1000","","single-audio","227","314513","0.0-13.0-214.0","lang2","pi","-1"
"-1000","","single-audio","228","314996","0.0-13.0-215.0","lang2","pi","-1"
"-1000","","single-audio","229","315478","0.0-13.0-216.0","lang2","pi","-1"
"661.9047619047365","","single-audio","230","316279","0.0-13.0-217.0","lang2","pi","37"
"-1000","","single-audio","231","316945","0.0-13.0-218.0","lang2","pi","-1"
"-1000","","single-audio","232","317426","0.0-13.0-219.0","lang2","pi","-1"
"-1000","","single-audio","233","317908","0.0-13.0-220.0","lang2","pi","-1"
"-1000","","single-audio","234","319374","0.0-13.0-221.0","lang2","pi","-1"
"-1000","","single-audio","235","319856","0.0-13.0-222.0","lang2","pi","-1"
"-1000","","single-audio","236","320343","0.0-13.0-223.0","lang2","pi","-1"
"2018.8208616779661","","single-audio","237","322567","0.0-13.0-224.0","lang2","pi","39"
"2764","","text","238","325534","0.0-14.0","lang2","pi","32"
