"","soundFile","trialnum","condition","random_block_key_resp.rt","random_block_key_resp.keys","structured_block_key_resp.rt","structured_block_key_resp.keys","starget","Run","PartID","ttarget","expName"
"1","pi.wav",379,"S",NA,"",0.12502492452,"3","du",3,"f001","1C","auditory"
"2","tu.wav",380,"S",NA,"",NA,"None","du",3,"f001","1C","auditory"
"3","bi.wav",381,"S",NA,"",NA,"None","du",3,"f001","1C","auditory"
"4","bu.wav",385,"S",NA,"",NA,"None","du",3,"f001","1C","auditory"
"5","pa.wav",386,"S",NA,"",NA,"None","du",3,"f001","1C","auditory"
"6","da.wav",387,"S",NA,"",NA,"None","du",3,"f001","1C","auditory"
"7","pi.wav",391,"S",NA,"",NA,"None","du",3,"f001","1C","auditory"
"8","tu.wav",392,"S",NA,"",NA,"None","du",3,"f001","1C","auditory"
"9","bi.wav",393,"S",NA,"",NA,"None","du",3,"f001","1C","auditory"
"10","ta.wav",394,"S",NA,"",NA,"None","du",3,"f001","1C","auditory"
"11","ti.wav",395,"S",NA,"",NA,"None","du",3,"f001","1C","auditory"
"12","du.wav",396,"S",NA,"",NA,"None","du",3,"f001","1C","auditory"
"13","di.wav",397,"S",NA,"",0.15028499905,"3","du",3,"f001","1C","auditory"
"14","ba.wav",398,"S",NA,"",NA,"None","du",3,"f001","1C","auditory"
"15","pu.wav",399,"S",NA,"",NA,"None","du",3,"f001","1C","auditory"
"16","pi.wav",400,"S",NA,"",NA,"None","du",3,"f001","1C","auditory"
"17","tu.wav",401,"S",NA,"",NA,"None","du",3,"f001","1C","auditory"
"18","bi.wav",402,"S",NA,"",NA,"None","du",3,"f001","1C","auditory"
"19","ta.wav",403,"S",NA,"",NA,"None","du",3,"f001","1C","auditory"
"20","ti.wav",404,"S",NA,"",NA,"None","du",3,"f001","1C","auditory"
"21","du.wav",405,"S",NA,"",NA,"None","du",3,"f001","1C","auditory"
"22","bu.wav",406,"S",NA,"",0.191967464518,"3","du",3,"f001","1C","auditory"
"23","pa.wav",407,"S",NA,"",NA,"None","du",3,"f001","1C","auditory"
"24","da.wav",408,"S",NA,"",NA,"None","du",3,"f001","1C","auditory"
"25","di.wav",409,"S",NA,"",NA,"None","du",3,"f001","1C","auditory"
"26","ba.wav",410,"S",NA,"",NA,"None","du",3,"f001","1C","auditory"
"27","pu.wav",411,"S",NA,"",NA,"None","du",3,"f001","1C","auditory"
"28","pi.wav",412,"S",NA,"",NA,"None","du",3,"f001","1C","auditory"
"29","tu.wav",413,"S",NA,"",NA,"None","du",3,"f001","1C","auditory"
"30","bi.wav",414,"S",NA,"",NA,"None","du",3,"f001","1C","auditory"
"31","di.wav",415,"S",NA,"",NA,"None","du",3,"f001","1C","auditory"
"32","ba.wav",416,"S",NA,"",NA,"None","du",3,"f001","1C","auditory"
"33","pu.wav",417,"S",NA,"",NA,"None","du",3,"f001","1C","auditory"
"34","bu.wav",418,"S",NA,"",NA,"None","du",3,"f001","1C","auditory"
"35","pa.wav",419,"S",NA,"",NA,"None","du",3,"f001","1C","auditory"
"36","da.wav",420,"S",NA,"",NA,"None","du",3,"f001","1C","auditory"
"37","ta.wav",421,"S",NA,"",NA,"None","du",3,"f001","1C","auditory"
"38","ti.wav",422,"S",NA,"",NA,"None","du",3,"f001","1C","auditory"
"39","du.wav",423,"S",NA,"",NA,"None","du",3,"f001","1C","auditory"
"40","bu.wav",424,"S",NA,"",0.0169045235962,"3","du",3,"f001","1C","auditory"
"41","pa.wav",425,"S",NA,"",NA,"None","du",3,"f001","1C","auditory"
"42","da.wav",426,"S",NA,"",NA,"None","du",3,"f001","1C","auditory"
"43","ta.wav",427,"S",NA,"",NA,"None","du",3,"f001","1C","auditory"
"44","ti.wav",428,"S",NA,"",NA,"None","du",3,"f001","1C","auditory"
"45","du.wav",429,"S",NA,"",NA,"None","du",3,"f001","1C","auditory"
"46","di.wav",430,"S",NA,"",0.158663020935,"3","du",3,"f001","1C","auditory"
"47","ba.wav",431,"S",NA,"",NA,"None","du",3,"f001","1C","auditory"
"48","pu.wav",432,"S",NA,"",NA,"None","du",3,"f001","1C","auditory"
"49","silence.wav",0,"B",NA,"",NA,"None","du",3,"f001","1C","auditory"
"50","silence.wav",0,"B",NA,"",NA,"None","du",3,"f001","1C","auditory"
"51","silence.wav",0,"B",NA,"",NA,"None","du",3,"f001","1C","auditory"
"52","silence.wav",0,"B",NA,"",NA,"None","du",3,"f001","1C","auditory"
"53","silence.wav",0,"B",NA,"",NA,"None","du",3,"f001","1C","auditory"
"54","silence.wav",0,"B",NA,"",NA,"None","du",3,"f001","1C","auditory"
"55","silence.wav",0,"B",NA,"",NA,"None","du",3,"f001","1C","auditory"
"56","silence.wav",0,"B",NA,"",NA,"None","du",3,"f001","1C","auditory"
"57","silence.wav",0,"B",NA,"",NA,"None","du",3,"f001","1C","auditory"
"58","silence.wav",0,"B",NA,"",NA,"None","du",3,"f001","1C","auditory"
"59","silence.wav",0,"B",NA,"",NA,"None","du",3,"f001","1C","auditory"
"60","silence.wav",0,"B",NA,"",NA,"None","du",3,"f001","1C","auditory"
"61","2C.wav",385,"R",NA,"None",NA,"","du",3,"f001","1C","auditory"
"62","1B.wav",386,"R",NA,"None",NA,"","du",3,"f001","1C","auditory"
"63","3C.wav",387,"R",NA,"None",NA,"","du",3,"f001","1C","auditory"
"64","2B.wav",388,"R",NA,"None",NA,"","du",3,"f001","1C","auditory"
"65","3A.wav",389,"R",NA,"None",NA,"","du",3,"f001","1C","auditory"
"66","2C.wav",390,"R",NA,"None",NA,"","du",3,"f001","1C","auditory"
"67","3B.wav",391,"R",NA,"None",NA,"","du",3,"f001","1C","auditory"
"68","3C.wav",392,"R",NA,"None",NA,"","du",3,"f001","1C","auditory"
"69","2A.wav",393,"R",NA,"None",NA,"","du",3,"f001","1C","auditory"
"70","3B.wav",394,"R",NA,"None",NA,"","du",3,"f001","1C","auditory"
"71","4A.wav",395,"R",NA,"None",NA,"","du",3,"f001","1C","auditory"
"72","3A.wav",396,"R",NA,"None",NA,"","du",3,"f001","1C","auditory"
"73","2B.wav",397,"R",NA,"None",NA,"","du",3,"f001","1C","auditory"
"74","4A.wav",398,"R",NA,"None",NA,"","du",3,"f001","1C","auditory"
"75","3C.wav",399,"R",0.191978272982,"3",NA,"","du",3,"f001","1C","auditory"
"76","1C.wav",400,"R",NA,"None",NA,"","du",3,"f001","1C","auditory"
"77","4C.wav",401,"R",NA,"None",NA,"","du",3,"f001","1C","auditory"
"78","4B.wav",402,"R",NA,"None",NA,"","du",3,"f001","1C","auditory"
"79","3B.wav",403,"R",NA,"None",NA,"","du",3,"f001","1C","auditory"
"80","4B.wav",404,"R",NA,"None",NA,"","du",3,"f001","1C","auditory"
"81","2A.wav",405,"R",NA,"None",NA,"","du",3,"f001","1C","auditory"
"82","3A.wav",406,"R",NA,"None",NA,"","du",3,"f001","1C","auditory"
"83","1A.wav",407,"R",NA,"None",NA,"","du",3,"f001","1C","auditory"
"84","4C.wav",408,"R",NA,"None",NA,"","du",3,"f001","1C","auditory"
"85","silence.wav",0,"B",NA,"None",NA,"","du",3,"f001","1C","auditory"
"86","silence.wav",0,"B",NA,"None",NA,"","du",3,"f001","1C","auditory"
"87","silence.wav",0,"B",NA,"None",NA,"","du",3,"f001","1C","auditory"
"88","silence.wav",0,"B",NA,"None",NA,"","du",3,"f001","1C","auditory"
"89","silence.wav",0,"B",NA,"None",NA,"","du",3,"f001","1C","auditory"
"90","silence.wav",0,"B",NA,"None",NA,"","du",3,"f001","1C","auditory"
"91","silence.wav",0,"B",NA,"None",NA,"","du",3,"f001","1C","auditory"
"92","silence.wav",0,"B",NA,"None",NA,"","du",3,"f001","1C","auditory"
"93","silence.wav",0,"B",NA,"None",NA,"","du",3,"f001","1C","auditory"
"94","silence.wav",0,"B",NA,"None",NA,"","du",3,"f001","1C","auditory"
"95","silence.wav",0,"B",NA,"None",NA,"","du",3,"f001","1C","auditory"
"96","silence.wav",0,"B",NA,"None",NA,"","du",3,"f001","1C","auditory"
"97","1A.wav",409,"R",NA,"None",NA,"","du",3,"f001","1C","auditory"
"98","4B.wav",410,"R",NA,"None",NA,"","du",3,"f001","1C","auditory"
"99","1A.wav",411,"R",NA,"None",NA,"","du",3,"f001","1C","auditory"
"100","4A.wav",412,"R",0.35034120502,"3",NA,"","du",3,"f001","1C","auditory"
"101","2A.wav",413,"R",NA,"None",NA,"","du",3,"f001","1C","auditory"
"102","4A.wav",414,"R",NA,"None",NA,"","du",3,"f001","1C","auditory"
"103","1B.wav",415,"R",NA,"None",NA,"","du",3,"f001","1C","auditory"
"104","2B.wav",416,"R",NA,"None",NA,"","du",3,"f001","1C","auditory"
"105","1C.wav",417,"R",NA,"None",NA,"","du",3,"f001","1C","auditory"
"106","1C.wav",418,"R",0.141847812571,"3",NA,"","du",3,"f001","1C","auditory"
"107","4B.wav",419,"R",NA,"None",NA,"","du",3,"f001","1C","auditory"
"108","2A.wav",420,"R",NA,"None",NA,"","du",3,"f001","1C","auditory"
"109","3B.wav",421,"R",NA,"None",NA,"","du",3,"f001","1C","auditory"
"110","1A.wav",422,"R",NA,"None",NA,"","du",3,"f001","1C","auditory"
"111","2B.wav",423,"R",NA,"None",NA,"","du",3,"f001","1C","auditory"
"112","3C.wav",424,"R",0.300200504716,"3",NA,"","du",3,"f001","1C","auditory"
"113","4C.wav",425,"R",NA,"None",NA,"","du",3,"f001","1C","auditory"
"114","3A.wav",426,"R",NA,"None",NA,"","du",3,"f001","1C","auditory"
"115","2C.wav",427,"R",NA,"None",NA,"","du",3,"f001","1C","auditory"
"116","1B.wav",428,"R",NA,"None",NA,"","du",3,"f001","1C","auditory"
"117","4C.wav",429,"R",NA,"None",NA,"","du",3,"f001","1C","auditory"
"118","2C.wav",430,"R",NA,"None",NA,"","du",3,"f001","1C","auditory"
"119","1B.wav",431,"R",NA,"None",NA,"","du",3,"f001","1C","auditory"
"120","1C.wav",432,"R",NA,"None",NA,"","du",3,"f001","1C","auditory"
"121","silence.wav",0,"B",0.369459843263,"3",NA,"","du",3,"f001","1C","auditory"
"122","silence.wav",0,"B",NA,"None",NA,"","du",3,"f001","1C","auditory"
"123","silence.wav",0,"B",NA,"None",NA,"","du",3,"f001","1C","auditory"
"124","silence.wav",0,"B",NA,"None",NA,"","du",3,"f001","1C","auditory"
"125","silence.wav",0,"B",NA,"None",NA,"","du",3,"f001","1C","auditory"
"126","silence.wav",0,"B",NA,"None",NA,"","du",3,"f001","1C","auditory"
"127","silence.wav",0,"B",NA,"None",NA,"","du",3,"f001","1C","auditory"
"128","silence.wav",0,"B",NA,"None",NA,"","du",3,"f001","1C","auditory"
"129","silence.wav",0,"B",NA,"None",NA,"","du",3,"f001","1C","auditory"
"130","silence.wav",0,"B",NA,"None",NA,"","du",3,"f001","1C","auditory"
"131","silence.wav",0,"B",NA,"None",NA,"","du",3,"f001","1C","auditory"
"132","silence.wav",0,"B",NA,"None",NA,"","du",3,"f001","1C","auditory"
"133","3C.wav",433,"R",NA,"None",NA,"","du",3,"f001","1C","auditory"
"134","3B.wav",434,"R",NA,"None",NA,"","du",3,"f001","1C","auditory"
"135","2A.wav",435,"R",0.0336011187173,"3",NA,"","du",3,"f001","1C","auditory"
"136","3B.wav",436,"R",NA,"None",NA,"","du",3,"f001","1C","auditory"
"137","1B.wav",437,"R",NA,"None",NA,"","du",3,"f001","1C","auditory"
"138","2B.wav",438,"R",NA,"None",NA,"","du",3,"f001","1C","auditory"
"139","3B.wav",439,"R",NA,"None",NA,"","du",3,"f001","1C","auditory"
"140","4A.wav",440,"R",NA,"None",NA,"","du",3,"f001","1C","auditory"
"141","2C.wav",441,"R",NA,"None",NA,"","du",3,"f001","1C","auditory"
"142","3A.wav",442,"R",NA,"None",NA,"","du",3,"f001","1C","auditory"
"143","1C.wav",443,"R",NA,"None",NA,"","du",3,"f001","1C","auditory"
"144","3C.wav",444,"R",NA,"None",NA,"","du",3,"f001","1C","auditory"
"145","2B.wav",445,"R",NA,"None",NA,"","du",3,"f001","1C","auditory"
"146","2C.wav",446,"R",NA,"None",NA,"","du",3,"f001","1C","auditory"
"147","3A.wav",447,"R",NA,"None",NA,"","du",3,"f001","1C","auditory"
"148","2A.wav",448,"R",NA,"None",NA,"","du",3,"f001","1C","auditory"
"149","3A.wav",449,"R",NA,"None",NA,"","du",3,"f001","1C","auditory"
"150","1C.wav",450,"R",NA,"None",NA,"","du",3,"f001","1C","auditory"
"151","4C.wav",451,"R",NA,"None",NA,"","du",3,"f001","1C","auditory"
"152","1B.wav",452,"R",NA,"None",NA,"","du",3,"f001","1C","auditory"
"153","1A.wav",453,"R",NA,"None",NA,"","du",3,"f001","1C","auditory"
"154","3C.wav",454,"R",NA,"None",NA,"","du",3,"f001","1C","auditory"
"155","4B.wav",455,"R",NA,"None",NA,"","du",3,"f001","1C","auditory"
"156","1A.wav",456,"R",NA,"None",NA,"","du",3,"f001","1C","auditory"
"157","silence.wav",0,"B",NA,"None",NA,"","du",3,"f001","1C","auditory"
"158","silence.wav",0,"B",NA,"None",NA,"","du",3,"f001","1C","auditory"
"159","silence.wav",0,"B",NA,"None",NA,"","du",3,"f001","1C","auditory"
"160","silence.wav",0,"B",NA,"None",NA,"","du",3,"f001","1C","auditory"
"161","silence.wav",0,"B",NA,"None",NA,"","du",3,"f001","1C","auditory"
"162","silence.wav",0,"B",NA,"None",NA,"","du",3,"f001","1C","auditory"
"163","silence.wav",0,"B",NA,"None",NA,"","du",3,"f001","1C","auditory"
"164","silence.wav",0,"B",NA,"None",NA,"","du",3,"f001","1C","auditory"
"165","silence.wav",0,"B",NA,"None",NA,"","du",3,"f001","1C","auditory"
"166","silence.wav",0,"B",NA,"None",NA,"","du",3,"f001","1C","auditory"
"167","silence.wav",0,"B",NA,"None",NA,"","du",3,"f001","1C","auditory"
"168","silence.wav",0,"B",NA,"None",NA,"","du",3,"f001","1C","auditory"
"169","pi.wav",433,"S",NA,"",NA,"None","du",3,"f001","1C","auditory"
"170","tu.wav",434,"S",NA,"",NA,"None","du",3,"f001","1C","auditory"
"171","bi.wav",435,"S",NA,"",NA,"None","du",3,"f001","1C","auditory"
"172","ta.wav",436,"S",NA,"",NA,"None","du",3,"f001","1C","auditory"
"173","ti.wav",437,"S",NA,"",NA,"None","du",3,"f001","1C","auditory"
"174","du.wav",438,"S",NA,"",NA,"None","du",3,"f001","1C","auditory"
"175","pi.wav",439,"S",NA,"",0.0253070080653,"3","du",3,"f001","1C","auditory"
"176","tu.wav",440,"S",NA,"",NA,"None","du",3,"f001","1C","auditory"
"177","bi.wav",441,"S",NA,"",NA,"None","du",3,"f001","1C","auditory"
"178","bu.wav",442,"S",NA,"",NA,"None","du",3,"f001","1C","auditory"
"179","pa.wav",443,"S",NA,"",NA,"None","du",3,"f001","1C","auditory"
"180","da.wav",444,"S",NA,"",NA,"None","du",3,"f001","1C","auditory"
"181","di.wav",445,"S",NA,"",NA,"None","du",3,"f001","1C","auditory"
"182","ba.wav",446,"S",NA,"",NA,"None","du",3,"f001","1C","auditory"
"183","pu.wav",447,"S",NA,"",NA,"None","du",3,"f001","1C","auditory"
"184","pi.wav",448,"S",NA,"",NA,"None","du",3,"f001","1C","auditory"
"185","tu.wav",449,"S",NA,"",NA,"None","du",3,"f001","1C","auditory"
"186","bi.wav",450,"S",NA,"",NA,"None","du",3,"f001","1C","auditory"
"187","bu.wav",451,"S",NA,"",NA,"None","du",3,"f001","1C","auditory"
"188","pa.wav",452,"S",NA,"",NA,"None","du",3,"f001","1C","auditory"
"189","da.wav",453,"S",NA,"",NA,"None","du",3,"f001","1C","auditory"
"190","di.wav",454,"S",NA,"",NA,"None","du",3,"f001","1C","auditory"
"191","ba.wav",455,"S",NA,"",NA,"None","du",3,"f001","1C","auditory"
"192","pu.wav",456,"S",NA,"",NA,"None","du",3,"f001","1C","auditory"
"193","silence.wav",0,"B",NA,"",NA,"None","du",3,"f001","1C","auditory"
"194","silence.wav",0,"B",NA,"",NA,"None","du",3,"f001","1C","auditory"
"195","silence.wav",0,"B",NA,"",NA,"None","du",3,"f001","1C","auditory"
"196","silence.wav",0,"B",NA,"",NA,"None","du",3,"f001","1C","auditory"
"197","silence.wav",0,"B",NA,"",NA,"None","du",3,"f001","1C","auditory"
"198","silence.wav",0,"B",NA,"",NA,"None","du",3,"f001","1C","auditory"
"199","silence.wav",0,"B",NA,"",NA,"None","du",3,"f001","1C","auditory"
"200","silence.wav",0,"B",NA,"",NA,"None","du",3,"f001","1C","auditory"
"201","silence.wav",0,"B",NA,"",NA,"None","du",3,"f001","1C","auditory"
"202","silence.wav",0,"B",NA,"",NA,"None","du",3,"f001","1C","auditory"
"203","silence.wav",0,"B",NA,"",NA,"None","du",3,"f001","1C","auditory"
"204","silence.wav",0,"B",NA,"",NA,"None","du",3,"f001","1C","auditory"
"205","ta.wav",457,"S",NA,"",NA,"None","du",3,"f001","1C","auditory"
"206","ti.wav",458,"S",NA,"",NA,"None","du",3,"f001","1C","auditory"
"207","du.wav",459,"S",NA,"",NA,"None","du",3,"f001","1C","auditory"
"208","di.wav",460,"S",NA,"",0.0671396595426,"3","du",3,"f001","1C","auditory"
"209","ba.wav",461,"S",NA,"",NA,"None","du",3,"f001","1C","auditory"
"210","pu.wav",462,"S",NA,"",NA,"None","du",3,"f001","1C","auditory"
"211","pi.wav",463,"S",NA,"",NA,"None","du",3,"f001","1C","auditory"
"212","tu.wav",464,"S",NA,"",NA,"None","du",3,"f001","1C","auditory"
"213","bi.wav",465,"S",NA,"",NA,"None","du",3,"f001","1C","auditory"
"214","ta.wav",466,"S",NA,"",NA,"None","du",3,"f001","1C","auditory"
"215","ti.wav",467,"S",NA,"",NA,"None","du",3,"f001","1C","auditory"
"216","du.wav",468,"S",NA,"",NA,"None","du",3,"f001","1C","auditory"
"217","bu.wav",469,"S",NA,"",0.125239964575,"3","du",3,"f001","1C","auditory"
"218","pa.wav",470,"S",NA,"",NA,"None","du",3,"f001","1C","auditory"
"219","da.wav",471,"S",NA,"",NA,"None","du",3,"f001","1C","auditory"
"220","ta.wav",472,"S",NA,"",NA,"None","du",3,"f001","1C","auditory"
"221","ti.wav",473,"S",NA,"",NA,"None","du",3,"f001","1C","auditory"
"222","du.wav",474,"S",NA,"",NA,"None","du",3,"f001","1C","auditory"
"223","di.wav",475,"S",NA,"",0.0335521940142,"3","du",3,"f001","1C","auditory"
"224","ba.wav",476,"S",NA,"",NA,"None","du",3,"f001","1C","auditory"
"225","pu.wav",477,"S",NA,"",NA,"None","du",3,"f001","1C","auditory"
"226","bu.wav",478,"S",NA,"",NA,"None","du",3,"f001","1C","auditory"
"227","pa.wav",479,"S",NA,"",NA,"None","du",3,"f001","1C","auditory"
"228","da.wav",480,"S",NA,"",NA,"None","du",3,"f001","1C","auditory"
"229","pi.wav",481,"S",NA,"",NA,"None","du",3,"f001","1C","auditory"
"230","tu.wav",482,"S",NA,"",NA,"None","du",3,"f001","1C","auditory"
"231","bi.wav",483,"S",NA,"",NA,"None","du",3,"f001","1C","auditory"
"232","bu.wav",484,"S",NA,"",NA,"None","du",3,"f001","1C","auditory"
"233","pa.wav",485,"S",NA,"",NA,"None","du",3,"f001","1C","auditory"
"234","da.wav",486,"S",NA,"",NA,"None","du",3,"f001","1C","auditory"
"235","di.wav",487,"S",NA,"",NA,"None","du",3,"f001","1C","auditory"
"236","ba.wav",488,"S",NA,"",NA,"None","du",3,"f001","1C","auditory"
"237","pu.wav",489,"S",NA,"",NA,"None","du",3,"f001","1C","auditory"
"238","ta.wav",490,"S",NA,"",NA,"None","du",3,"f001","1C","auditory"
"239","ti.wav",491,"S",NA,"",NA,"None","du",3,"f001","1C","auditory"
"240","du.wav",492,"S",NA,"",NA,"None","du",3,"f001","1C","auditory"
"241","bu.wav",493,"S",NA,"",0.000424106605351,"3","du",3,"f001","1C","auditory"
"242","pa.wav",494,"S",NA,"",NA,"None","du",3,"f001","1C","auditory"
"243","da.wav",495,"S",NA,"",NA,"None","du",3,"f001","1C","auditory"
"244","pi.wav",496,"S",NA,"",NA,"None","du",3,"f001","1C","auditory"
"245","tu.wav",497,"S",NA,"",NA,"None","du",3,"f001","1C","auditory"
"246","bi.wav",498,"S",NA,"",NA,"None","du",3,"f001","1C","auditory"
"247","di.wav",499,"S",NA,"",NA,"None","du",3,"f001","1C","auditory"
"248","ba.wav",500,"S",NA,"",NA,"None","du",3,"f001","1C","auditory"
"249","pu.wav",501,"S",NA,"",NA,"None","du",3,"f001","1C","auditory"
"250","ta.wav",502,"S",NA,"",NA,"None","du",3,"f001","1C","auditory"
"251","ti.wav",503,"S",NA,"",NA,"None","du",3,"f001","1C","auditory"
"252","du.wav",504,"S",NA,"",NA,"None","du",3,"f001","1C","auditory"
"253","silence.wav",0,"B",NA,"",0.0169875817373,"3","du",3,"f001","1C","auditory"
"254","silence.wav",0,"B",NA,"",NA,"None","du",3,"f001","1C","auditory"
"255","silence.wav",0,"B",NA,"",NA,"None","du",3,"f001","1C","auditory"
"256","silence.wav",0,"B",NA,"",NA,"None","du",3,"f001","1C","auditory"
"257","silence.wav",0,"B",NA,"",NA,"None","du",3,"f001","1C","auditory"
"258","silence.wav",0,"B",NA,"",NA,"None","du",3,"f001","1C","auditory"
"259","silence.wav",0,"B",NA,"",NA,"None","du",3,"f001","1C","auditory"
"260","silence.wav",0,"B",NA,"",NA,"None","du",3,"f001","1C","auditory"
"261","silence.wav",0,"B",NA,"",NA,"None","du",3,"f001","1C","auditory"
"262","silence.wav",0,"B",NA,"",NA,"None","du",3,"f001","1C","auditory"
"263","silence.wav",0,"B",NA,"",NA,"None","du",3,"f001","1C","auditory"
"264","silence.wav",0,"B",NA,"",NA,"None","du",3,"f001","1C","auditory"
"265","pi.wav",505,"S",NA,"",NA,"None","du",3,"f001","1C","auditory"
"266","tu.wav",506,"S",NA,"",NA,"None","du",3,"f001","1C","auditory"
"267","bi.wav",507,"S",NA,"",NA,"None","du",3,"f001","1C","auditory"
"268","ta.wav",508,"S",NA,"",NA,"None","du",3,"f001","1C","auditory"
"269","ti.wav",509,"S",NA,"",NA,"None","du",3,"f001","1C","auditory"
"270","du.wav",510,"S",NA,"",NA,"None","du",3,"f001","1C","auditory"
"271","bu.wav",511,"S",NA,"",0.0252825454809,"3","du",3,"f001","1C","auditory"
"272","pa.wav",512,"S",NA,"",NA,"None","du",3,"f001","1C","auditory"
"273","da.wav",513,"S",NA,"",NA,"None","du",3,"f001","1C","auditory"
"274","di.wav",514,"S",NA,"",NA,"None","du",3,"f001","1C","auditory"
"275","ba.wav",515,"S",NA,"",NA,"None","du",3,"f001","1C","auditory"
"276","pu.wav",516,"S",NA,"",NA,"None","du",3,"f001","1C","auditory"
"277","bu.wav",517,"S",NA,"",NA,"None","du",3,"f001","1C","auditory"
"278","pa.wav",518,"S",NA,"",NA,"None","du",3,"f001","1C","auditory"
"279","da.wav",519,"S",NA,"",NA,"None","du",3,"f001","1C","auditory"
"280","ta.wav",520,"S",NA,"",NA,"None","du",3,"f001","1C","auditory"
"281","ti.wav",521,"S",NA,"",NA,"None","du",3,"f001","1C","auditory"
"282","du.wav",522,"S",NA,"",NA,"None","du",3,"f001","1C","auditory"
"283","pi.wav",523,"S",NA,"",0.0336221675389,"3","du",3,"f001","1C","auditory"
"284","tu.wav",524,"S",NA,"",NA,"None","du",3,"f001","1C","auditory"
"285","bi.wav",525,"S",NA,"",NA,"None","du",3,"f001","1C","auditory"
"286","di.wav",526,"S",NA,"",NA,"None","du",3,"f001","1C","auditory"
"287","ba.wav",527,"S",NA,"",NA,"None","du",3,"f001","1C","auditory"
"288","pu.wav",528,"S",NA,"",NA,"None","du",3,"f001","1C","auditory"
"289","2A.wav",457,"R",NA,"None",NA,"","du",3,"f001","1C","auditory"
"290","1B.wav",458,"R",NA,"None",NA,"","du",3,"f001","1C","auditory"
"291","4C.wav",459,"R",NA,"None",NA,"","du",3,"f001","1C","auditory"
"292","1B.wav",460,"R",NA,"None",NA,"","du",3,"f001","1C","auditory"
"293","3B.wav",461,"R",NA,"None",NA,"","du",3,"f001","1C","auditory"
"294","4B.wav",462,"R",NA,"None",NA,"","du",3,"f001","1C","auditory"
"295","2B.wav",463,"R",NA,"None",NA,"","du",3,"f001","1C","auditory"
"296","4A.wav",464,"R",0.234075458255,"3",NA,"","du",3,"f001","1C","auditory"
"297","4B.wav",465,"R",NA,"None",NA,"","du",3,"f001","1C","auditory"
"298","2A.wav",466,"R",NA,"None",NA,"","du",3,"f001","1C","auditory"
"299","4C.wav",467,"R",NA,"None",NA,"","du",3,"f001","1C","auditory"
"300","4A.wav",468,"R",NA,"None",NA,"","du",3,"f001","1C","auditory"
"301","1A.wav",469,"R",NA,"None",NA,"","du",3,"f001","1C","auditory"
"302","4C.wav",470,"R",NA,"None",NA,"","du",3,"f001","1C","auditory"
"303","3C.wav",471,"R",NA,"None",NA,"","du",3,"f001","1C","auditory"
"304","1A.wav",472,"R",NA,"None",NA,"","du",3,"f001","1C","auditory"
"305","4A.wav",473,"R",NA,"None",NA,"","du",3,"f001","1C","auditory"
"306","4B.wav",474,"R",NA,"None",NA,"","du",3,"f001","1C","auditory"
"307","2C.wav",475,"R",NA,"None",NA,"","du",3,"f001","1C","auditory"
"308","1C.wav",476,"R",NA,"None",NA,"","du",3,"f001","1C","auditory"
"309","2B.wav",477,"R",0.250173866749,"3",NA,"","du",3,"f001","1C","auditory"
"310","2C.wav",478,"R",NA,"None",NA,"","du",3,"f001","1C","auditory"
"311","1C.wav",479,"R",NA,"None",NA,"","du",3,"f001","1C","auditory"
"312","3A.wav",480,"R",NA,"None",NA,"","du",3,"f001","1C","auditory"
"313","silence.wav",0,"B",NA,"None",NA,"","du",3,"f001","1C","auditory"
"314","silence.wav",0,"B",0.383614643943,"3",NA,"","du",3,"f001","1C","auditory"
"315","silence.wav",0,"B",NA,"None",NA,"","du",3,"f001","1C","auditory"
"316","silence.wav",0,"B",NA,"None",NA,"","du",3,"f001","1C","auditory"
"317","silence.wav",0,"B",NA,"None",NA,"","du",3,"f001","1C","auditory"
"318","silence.wav",0,"B",NA,"None",NA,"","du",3,"f001","1C","auditory"
"319","silence.wav",0,"B",NA,"None",NA,"","du",3,"f001","1C","auditory"
"320","silence.wav",0,"B",NA,"None",NA,"","du",3,"f001","1C","auditory"
"321","silence.wav",0,"B",NA,"None",NA,"","du",3,"f001","1C","auditory"
"322","silence.wav",0,"B",NA,"None",NA,"","du",3,"f001","1C","auditory"
"323","silence.wav",0,"B",NA,"None",NA,"","du",3,"f001","1C","auditory"
"324","silence.wav",0,"B",NA,"None",NA,"","du",3,"f001","1C","auditory"
"325","4A.wav",481,"R",NA,"None",NA,"","du",3,"f001","1C","auditory"
"326","2B.wav",482,"R",NA,"None",NA,"","du",3,"f001","1C","auditory"
"327","4B.wav",483,"R",NA,"None",NA,"","du",3,"f001","1C","auditory"
"328","1A.wav",484,"R",NA,"None",NA,"","du",3,"f001","1C","auditory"
"329","2C.wav",485,"R",NA,"None",NA,"","du",3,"f001","1C","auditory"
"330","3B.wav",486,"R",NA,"None",NA,"","du",3,"f001","1C","auditory"
"331","3A.wav",487,"R",NA,"None",NA,"","du",3,"f001","1C","auditory"
"332","3C.wav",488,"R",NA,"None",NA,"","du",3,"f001","1C","auditory"
"333","4C.wav",489,"R",NA,"None",NA,"","du",3,"f001","1C","auditory"
"334","4A.wav",490,"R",NA,"None",NA,"","du",3,"f001","1C","auditory"
"335","1C.wav",491,"R",NA,"None",NA,"","du",3,"f001","1C","auditory"
"336","2A.wav",492,"R",NA,"None",NA,"","du",3,"f001","1C","auditory"
"337","2A.wav",493,"R",NA,"None",NA,"","du",3,"f001","1C","auditory"
"338","1B.wav",494,"R",NA,"None",NA,"","du",3,"f001","1C","auditory"
"339","3B.wav",495,"R",NA,"None",NA,"","du",3,"f001","1C","auditory"
"340","4C.wav",496,"R",NA,"None",NA,"","du",3,"f001","1C","auditory"
"341","3A.wav",497,"R",NA,"None",NA,"","du",3,"f001","1C","auditory"
"342","1B.wav",498,"R",0.108712613583,"3",NA,"","du",3,"f001","1C","auditory"
"343","4B.wav",499,"R",NA,"None",NA,"","du",3,"f001","1C","auditory"
"344","1A.wav",500,"R",NA,"None",NA,"","du",3,"f001","1C","auditory"
"345","1C.wav",501,"R",NA,"None",NA,"","du",3,"f001","1C","auditory"
"346","2C.wav",502,"R",NA,"None",NA,"","du",3,"f001","1C","auditory"
"347","2B.wav",503,"R",NA,"None",NA,"","du",3,"f001","1C","auditory"
"348","3C.wav",504,"R",NA,"None",NA,"","du",3,"f001","1C","auditory"
"349","silence.wav",0,"B",NA,"None",NA,"","du",3,"f001","1C","auditory"
"350","silence.wav",0,"B",NA,"None",NA,"","du",3,"f001","1C","auditory"
"351","silence.wav",0,"B",NA,"None",NA,"","du",3,"f001","1C","auditory"
"352","silence.wav",0,"B",NA,"None",NA,"","du",3,"f001","1C","auditory"
"353","silence.wav",0,"B",NA,"None",NA,"","du",3,"f001","1C","auditory"
"354","silence.wav",0,"B",NA,"None",NA,"","du",3,"f001","1C","auditory"
"355","silence.wav",0,"B",NA,"None",NA,"","du",3,"f001","1C","auditory"
"356","silence.wav",0,"B",NA,"None",NA,"","du",3,"f001","1C","auditory"
"357","silence.wav",0,"B",NA,"None",NA,"","du",3,"f001","1C","auditory"
"358","silence.wav",0,"B",NA,"None",NA,"","du",3,"f001","1C","auditory"
"359","silence.wav",0,"B",NA,"None",NA,"","du",3,"f001","1C","auditory"
"360","silence.wav",0,"B",NA,"None",NA,"","du",3,"f001","1C","auditory"
"361","3B.wav",505,"R",NA,"None",NA,"","du",3,"f001","1C","auditory"
"362","3B.wav",506,"R",NA,"None",NA,"","du",3,"f001","1C","auditory"
"363","4A.wav",507,"R",NA,"None",NA,"","du",3,"f001","1C","auditory"
"364","4A.wav",508,"R",NA,"None",NA,"","du",3,"f001","1C","auditory"
"365","1B.wav",509,"R",NA,"None",NA,"","du",3,"f001","1C","auditory"
"366","2C.wav",510,"R",NA,"None",NA,"","du",3,"f001","1C","auditory"
"367","1A.wav",511,"R",NA,"None",NA,"","du",3,"f001","1C","auditory"
"368","3C.wav",512,"R",NA,"None",NA,"","du",3,"f001","1C","auditory"
"369","1C.wav",513,"R",NA,"None",NA,"","du",3,"f001","1C","auditory"
"370","4C.wav",514,"R",NA,"None",NA,"","du",3,"f001","1C","auditory"
"371","2B.wav",515,"R",NA,"None",NA,"","du",3,"f001","1C","auditory"
"372","1A.wav",516,"R",NA,"None",NA,"","du",3,"f001","1C","auditory"
"373","1B.wav",517,"R",NA,"None",NA,"","du",3,"f001","1C","auditory"
"374","2B.wav",518,"R",NA,"None",NA,"","du",3,"f001","1C","auditory"
"375","2A.wav",519,"R",0.155777618289,"3",NA,"","du",3,"f001","1C","auditory"
"376","3A.wav",520,"R",NA,"None",NA,"","du",3,"f001","1C","auditory"
"377","4B.wav",521,"R",0.392011438962,"3",NA,"","du",3,"f001","1C","auditory"
"378","2C.wav",522,"R",NA,"None",NA,"","du",3,"f001","1C","auditory"
"379","3C.wav",523,"R",NA,"None",NA,"","du",3,"f001","1C","auditory"
"380","4C.wav",524,"R",NA,"None",NA,"","du",3,"f001","1C","auditory"
"381","1C.wav",525,"R",NA,"None",NA,"","du",3,"f001","1C","auditory"
"382","3A.wav",526,"R",NA,"None",NA,"","du",3,"f001","1C","auditory"
"383","4B.wav",527,"R",NA,"None",NA,"","du",3,"f001","1C","auditory"
"384","2A.wav",528,"R",NA,"None",NA,"","du",3,"f001","1C","auditory"
"385","4A.wav",529,"R",NA,"None",NA,"","du",3,"f001","1C","auditory"
"386","3A.wav",530,"R",NA,"None",NA,"","du",3,"f001","1C","auditory"
"387","2A.wav",531,"R",NA,"None",NA,"","du",3,"f001","1C","auditory"
"388","4B.wav",532,"R",NA,"None",NA,"","du",3,"f001","1C","auditory"
"389","2A.wav",533,"R",NA,"None",NA,"","du",3,"f001","1C","auditory"
"390","2B.wav",534,"R",NA,"None",NA,"","du",3,"f001","1C","auditory"
"391","2B.wav",535,"R",0.317015713081,"3",NA,"","du",3,"f001","1C","auditory"
"392","2C.wav",536,"R",NA,"None",NA,"","du",3,"f001","1C","auditory"
"393","4B.wav",537,"R",0.0419802782126,"3",NA,"","du",3,"f001","1C","auditory"
"394","3B.wav",538,"R",NA,"None",NA,"","du",3,"f001","1C","auditory"
"395","2B.wav",539,"R",NA,"None",NA,"","du",3,"f001","1C","auditory"
"396","4A.wav",540,"R",0.442020441871,"3",NA,"","du",3,"f001","1C","auditory"
"397","3C.wav",541,"R",NA,"None",NA,"","du",3,"f001","1C","auditory"
"398","2C.wav",542,"R",NA,"None",NA,"","du",3,"f001","1C","auditory"
"399","4C.wav",543,"R",NA,"None",NA,"","du",3,"f001","1C","auditory"
"400","3C.wav",544,"R",NA,"None",NA,"","du",3,"f001","1C","auditory"
"401","1A.wav",545,"R",0.266942141112,"3",NA,"","du",3,"f001","1C","auditory"
"402","4C.wav",546,"R",NA,"None",NA,"","du",3,"f001","1C","auditory"
"403","2C.wav",547,"R",NA,"None",NA,"","du",3,"f001","1C","auditory"
"404","1C.wav",548,"R",NA,"None",NA,"","du",3,"f001","1C","auditory"
"405","1B.wav",549,"R",0.292009362951,"3",NA,"","du",3,"f001","1C","auditory"
"406","2A.wav",550,"R",NA,"None",NA,"","du",3,"f001","1C","auditory"
"407","3A.wav",551,"R",NA,"None",NA,"","du",3,"f001","1C","auditory"
"408","3B.wav",552,"R",0.283522967249,"3",NA,"","du",3,"f001","1C","auditory"
"409","bu.wav",529,"S",NA,"",NA,"None","du",3,"f001","1C","auditory"
"410","pa.wav",530,"S",NA,"",NA,"None","du",3,"f001","1C","auditory"
"411","da.wav",531,"S",NA,"",NA,"None","du",3,"f001","1C","auditory"
"412","pi.wav",532,"S",NA,"",NA,"None","du",3,"f001","1C","auditory"
"413","tu.wav",533,"S",NA,"",NA,"None","du",3,"f001","1C","auditory"
"414","bi.wav",534,"S",NA,"",NA,"None","du",3,"f001","1C","auditory"
"415","ta.wav",535,"S",NA,"",NA,"None","du",3,"f001","1C","auditory"
"416","ti.wav",536,"S",NA,"",NA,"None","du",3,"f001","1C","auditory"
"417","du.wav",537,"S",NA,"",0.458802938927,"3","du",3,"f001","1C","auditory"
"418","bu.wav",538,"S",NA,"",NA,"None","du",3,"f001","1C","auditory"
"419","pa.wav",539,"S",NA,"",NA,"None","du",3,"f001","1C","auditory"
"420","da.wav",540,"S",NA,"",NA,"None","du",3,"f001","1C","auditory"
"421","pi.wav",541,"S",NA,"",NA,"None","du",3,"f001","1C","auditory"
"422","tu.wav",542,"S",NA,"",NA,"None","du",3,"f001","1C","auditory"
"423","bi.wav",543,"S",NA,"",NA,"None","du",3,"f001","1C","auditory"
"424","ta.wav",544,"S",NA,"",NA,"None","du",3,"f001","1C","auditory"
"425","ti.wav",545,"S",NA,"",NA,"None","du",3,"f001","1C","auditory"
"426","du.wav",546,"S",NA,"",NA,"None","du",3,"f001","1C","auditory"
"427","di.wav",547,"S",NA,"",0.0252825454809,"3","du",3,"f001","1C","auditory"
"428","ba.wav",548,"S",NA,"",NA,"None","du",3,"f001","1C","auditory"
"429","pu.wav",549,"S",NA,"",NA,"None","du",3,"f001","1C","auditory"
"430","bu.wav",550,"S",NA,"",NA,"None","du",3,"f001","1C","auditory"
"431","pa.wav",551,"S",NA,"",NA,"None","du",3,"f001","1C","auditory"
"432","da.wav",552,"S",NA,"",NA,"None","du",3,"f001","1C","auditory"
"433","di.wav",553,"S",NA,"",NA,"None","du",3,"f001","1C","auditory"
"434","ba.wav",554,"S",NA,"",NA,"None","du",3,"f001","1C","auditory"
"435","pu.wav",555,"S",NA,"",NA,"None","du",3,"f001","1C","auditory"
"436","ta.wav",556,"S",NA,"",NA,"None","du",3,"f001","1C","auditory"
"437","ti.wav",557,"S",NA,"",NA,"None","du",3,"f001","1C","auditory"
"438","du.wav",558,"S",NA,"",0.320200920105,"3","du",3,"f001","1C","auditory"
"439","pi.wav",559,"S",NA,"",NA,"None","du",3,"f001","1C","auditory"
"440","tu.wav",560,"S",NA,"",NA,"None","du",3,"f001","1C","auditory"
"441","bi.wav",561,"S",NA,"",NA,"None","du",3,"f001","1C","auditory"
"442","di.wav",562,"S",NA,"",NA,"None","du",3,"f001","1C","auditory"
"443","ba.wav",563,"S",NA,"",NA,"None","du",3,"f001","1C","auditory"
"444","pu.wav",564,"S",NA,"",NA,"None","du",3,"f001","1C","auditory"
"445","ta.wav",565,"S",NA,"",NA,"None","du",3,"f001","1C","auditory"
"446","ti.wav",566,"S",NA,"",NA,"None","du",3,"f001","1C","auditory"
"447","du.wav",567,"S",NA,"",0.411662272643,"3","du",3,"f001","1C","auditory"
"448","bu.wav",568,"S",NA,"",NA,"None","du",3,"f001","1C","auditory"
"449","pa.wav",569,"S",NA,"",NA,"None","du",3,"f001","1C","auditory"
"450","da.wav",570,"S",NA,"",NA,"None","du",3,"f001","1C","auditory"
"451","pi.wav",571,"S",NA,"",NA,"None","du",3,"f001","1C","auditory"
"452","tu.wav",572,"S",NA,"",NA,"None","du",3,"f001","1C","auditory"
"453","bi.wav",573,"S",NA,"",NA,"None","du",3,"f001","1C","auditory"
"454","di.wav",574,"S",NA,"",NA,"None","du",3,"f001","1C","auditory"
"455","ba.wav",575,"S",NA,"",NA,"None","du",3,"f001","1C","auditory"
"456","pu.wav",576,"S",NA,"",NA,"None","du",3,"f001","1C","auditory"
"457","1A.wav",553,"R",NA,"None",NA,"","du",3,"f001","1C","auditory"
"458","2C.wav",554,"R",NA,"None",NA,"","du",3,"f001","1C","auditory"
"459","2B.wav",555,"R",NA,"None",NA,"","du",3,"f001","1C","auditory"
"460","4B.wav",556,"R",NA,"None",NA,"","du",3,"f001","1C","auditory"
"461","1B.wav",557,"R",NA,"None",NA,"","du",3,"f001","1C","auditory"
"462","4B.wav",558,"R",NA,"None",NA,"","du",3,"f001","1C","auditory"
"463","1B.wav",559,"R",NA,"None",NA,"","du",3,"f001","1C","auditory"
"464","4A.wav",560,"R",NA,"None",NA,"","du",3,"f001","1C","auditory"
"465","3A.wav",561,"R",NA,"None",NA,"","du",3,"f001","1C","auditory"
"466","2A.wav",562,"R",NA,"None",NA,"","du",3,"f001","1C","auditory"
"467","4A.wav",563,"R",NA,"None",NA,"","du",3,"f001","1C","auditory"
"468","3B.wav",564,"R",NA,"None",NA,"","du",3,"f001","1C","auditory"
"469","4C.wav",565,"R",NA,"None",NA,"","du",3,"f001","1C","auditory"
"470","1A.wav",566,"R",NA,"None",NA,"","du",3,"f001","1C","auditory"
"471","1C.wav",567,"R",NA,"None",NA,"","du",3,"f001","1C","auditory"
"472","3B.wav",568,"R",NA,"None",NA,"","du",3,"f001","1C","auditory"
"473","4C.wav",569,"R",NA,"None",NA,"","du",3,"f001","1C","auditory"
"474","3C.wav",570,"R",NA,"None",NA,"","du",3,"f001","1C","auditory"
"475","1C.wav",571,"R",NA,"None",NA,"","du",3,"f001","1C","auditory"
"476","3A.wav",572,"R",NA,"None",NA,"","du",3,"f001","1C","auditory"
"477","1C.wav",573,"R",NA,"None",NA,"","du",3,"f001","1C","auditory"
"478","1B.wav",574,"R",NA,"None",NA,"","du",3,"f001","1C","auditory"
"479","3C.wav",575,"R",NA,"None",NA,"","du",3,"f001","1C","auditory"
"480","1A.wav",576,"R",NA,"None",NA,"","du",3,"f001","1C","auditory"
"481","",NA,"",NA,"",NA,"","du",3,"f001","1C","auditory"
"482","",NA,"",NA,"",NA,"","du",3,"f001","1C","auditory"
"483","",NA,"",NA,"",NA,"","du",3,"f001","1C","auditory"
"484","",NA,"",NA,"",NA,"","du",3,"f001","1C","auditory"
"485","",NA,"",NA,"",NA,"","du",3,"f001","1C","auditory"
"486","",NA,"",NA,"",NA,"","du",3,"f001","1C","auditory"
"487","",NA,"",NA,"",NA,"","du",3,"f001","1C","auditory"
"488","",NA,"",NA,"",NA,"","du",3,"f001","1C","auditory"
"489","",NA,"",NA,"",NA,"","du",3,"f001","1C","auditory"
"490","",NA,"",NA,"",NA,"","du",3,"f001","1C","auditory"
"491","",NA,"",NA,"",NA,"","du",3,"f001","1C","auditory"
"492","",NA,"",NA,"",NA,"","du",3,"f001","1C","auditory"
"493","",NA,"",NA,"",NA,"","du",3,"f001","1C","auditory"
"494","",NA,"",NA,"",NA,"","du",3,"f001","1C","auditory"
"495","",NA,"",NA,"",NA,"","du",3,"f001","1C","auditory"
"496","",NA,"",NA,"",NA,"","du",3,"f001","1C","auditory"
"497","",NA,"",NA,"",NA,"","du",3,"f001","1C","auditory"
"498","",NA,"",NA,"",NA,"","du",3,"f001","1C","auditory"
"499","",NA,"",NA,"",NA,"","du",3,"f001","1C","auditory"
"500","",NA,"",NA,"",NA,"","du",3,"f001","1C","auditory"
"501","",NA,"",NA,"",NA,"","du",3,"f001","1C","auditory"
"502","",NA,"",NA,"",NA,"","du",3,"f001","1C","auditory"
"503","",NA,"",NA,"",NA,"","du",3,"f001","1C","auditory"
"504","",NA,"",NA,"",NA,"","du",3,"f001","1C","auditory"
"505","",NA,"",NA,"",NA,"","du",3,"f001","1C","auditory"
"506","",NA,"",NA,"",NA,"","du",3,"f001","1C","auditory"
"507","",NA,"",NA,"",NA,"","du",3,"f001","1C","auditory"
"508","",NA,"",NA,"",NA,"","du",3,"f001","1C","auditory"
"509","",NA,"",NA,"",NA,"","du",3,"f001","1C","auditory"
"510","",NA,"",NA,"",NA,"","du",3,"f001","1C","auditory"
"511","",NA,"",NA,"",NA,"","du",3,"f001","1C","auditory"
"512","",NA,"",NA,"",NA,"","du",3,"f001","1C","auditory"
"513","",NA,"",NA,"",NA,"","du",3,"f001","1C","auditory"
"514","",NA,"",NA,"",NA,"","du",3,"f001","1C","auditory"
"515","",NA,"",NA,"",NA,"","du",3,"f001","1C","auditory"
