"","soundFile","trialnum","condition","random_block_key_resp.rt","random_block_key_resp.keys","structured_block_key_resp.rt","structured_block_key_resp.keys","starget","Run","PartID","ttarget","expName"
"1","bi.wav",193,"R",NA,"None",NA,"","pu",5,"f002","2C","auditory"
"2","ba.wav",194,"R",NA,"None",NA,"","pu",5,"f002","2C","auditory"
"3","bi.wav",195,"R",NA,"None",NA,"","pu",5,"f002","2C","auditory"
"4","ta.wav",196,"R",NA,"None",NA,"","pu",5,"f002","2C","auditory"
"5","pa.wav",197,"R",NA,"None",NA,"","pu",5,"f002","2C","auditory"
"6","du.wav",198,"R",NA,"None",NA,"","pu",5,"f002","2C","auditory"
"7","da.wav",199,"R",NA,"None",NA,"","pu",5,"f002","2C","auditory"
"8","tu.wav",200,"R",NA,"None",NA,"","pu",5,"f002","2C","auditory"
"9","bu.wav",201,"R",NA,"None",NA,"","pu",5,"f002","2C","auditory"
"10","pu.wav",202,"R",0.358805982396,"3",NA,"","pu",5,"f002","2C","auditory"
"11","ti.wav",203,"R",NA,"None",NA,"","pu",5,"f002","2C","auditory"
"12","pi.wav",204,"R",0.000235235318542,"3",NA,"","pu",5,"f002","2C","auditory"
"13","bu.wav",205,"R",NA,"None",NA,"","pu",5,"f002","2C","auditory"
"14","tu.wav",206,"R",NA,"None",NA,"","pu",5,"f002","2C","auditory"
"15","ba.wav",207,"R",NA,"None",NA,"","pu",5,"f002","2C","auditory"
"16","pi.wav",208,"R",NA,"None",NA,"","pu",5,"f002","2C","auditory"
"17","di.wav",209,"R",NA,"None",NA,"","pu",5,"f002","2C","auditory"
"18","da.wav",210,"R",NA,"None",NA,"","pu",5,"f002","2C","auditory"
"19","du.wav",211,"R",NA,"None",NA,"","pu",5,"f002","2C","auditory"
"20","di.wav",212,"R",NA,"None",NA,"","pu",5,"f002","2C","auditory"
"21","pu.wav",213,"R",NA,"None",NA,"","pu",5,"f002","2C","auditory"
"22","ti.wav",214,"R",0.233719902579,"3",NA,"","pu",5,"f002","2C","auditory"
"23","pa.wav",215,"R",NA,"None",NA,"","pu",5,"f002","2C","auditory"
"24","ta.wav",216,"R",NA,"None",NA,"","pu",5,"f002","2C","auditory"
"25","bi.wav",217,"R",NA,"None",NA,"","pu",5,"f002","2C","auditory"
"26","du.wav",218,"R",NA,"None",NA,"","pu",5,"f002","2C","auditory"
"27","ti.wav",219,"R",NA,"None",NA,"","pu",5,"f002","2C","auditory"
"28","du.wav",220,"R",NA,"None",NA,"","pu",5,"f002","2C","auditory"
"29","pi.wav",221,"R",NA,"None",NA,"","pu",5,"f002","2C","auditory"
"30","ba.wav",222,"R",NA,"None",NA,"","pu",5,"f002","2C","auditory"
"31","bu.wav",223,"R",NA,"None",NA,"","pu",5,"f002","2C","auditory"
"32","pa.wav",224,"R",0.333847987466,"3",NA,"","pu",5,"f002","2C","auditory"
"33","pi.wav",225,"R",NA,"None",NA,"","pu",5,"f002","2C","auditory"
"34","pa.wav",226,"R",NA,"None",NA,"","pu",5,"f002","2C","auditory"
"35","ti.wav",227,"R",NA,"None",NA,"","pu",5,"f002","2C","auditory"
"36","da.wav",228,"R",NA,"None",NA,"","pu",5,"f002","2C","auditory"
"37","pu.wav",229,"R",NA,"None",NA,"","pu",5,"f002","2C","auditory"
"38","bu.wav",230,"R",0.267040274572,"3",NA,"","pu",5,"f002","2C","auditory"
"39","bi.wav",231,"R",0.333701214753,"3",NA,"","pu",5,"f002","2C","auditory"
"40","di.wav",232,"R",NA,"None",NA,"","pu",5,"f002","2C","auditory"
"41","da.wav",233,"R",NA,"None",NA,"","pu",5,"f002","2C","auditory"
"42","pa.wav",234,"R",NA,"None",NA,"","pu",5,"f002","2C","auditory"
"43","ta.wav",235,"R",NA,"None",NA,"","pu",5,"f002","2C","auditory"
"44","da.wav",236,"R",NA,"None",NA,"","pu",5,"f002","2C","auditory"
"45","ta.wav",237,"R",NA,"None",NA,"","pu",5,"f002","2C","auditory"
"46","tu.wav",238,"R",NA,"None",NA,"","pu",5,"f002","2C","auditory"
"47","bu.wav",239,"R",NA,"None",NA,"","pu",5,"f002","2C","auditory"
"48","tu.wav",240,"R",0.333679881413,"3",NA,"","pu",5,"f002","2C","auditory"
"49","3A.wav",193,"S",NA,"",NA,"None","pu",5,"f002","2C","auditory"
"50","3B.wav",194,"S",NA,"",NA,"None","pu",5,"f002","2C","auditory"
"51","3C.wav",195,"S",NA,"",NA,"None","pu",5,"f002","2C","auditory"
"52","2A.wav",196,"S",NA,"",NA,"None","pu",5,"f002","2C","auditory"
"53","2B.wav",197,"S",NA,"",NA,"None","pu",5,"f002","2C","auditory"
"54","2C.wav",198,"S",NA,"",NA,"None","pu",5,"f002","2C","auditory"
"55","1A.wav",199,"S",NA,"",0.125550293364,"3","pu",5,"f002","2C","auditory"
"56","1B.wav",200,"S",NA,"",NA,"None","pu",5,"f002","2C","auditory"
"57","1C.wav",201,"S",NA,"",NA,"None","pu",5,"f002","2C","auditory"
"58","4A.wav",202,"S",NA,"",NA,"None","pu",5,"f002","2C","auditory"
"59","4B.wav",203,"S",NA,"",NA,"None","pu",5,"f002","2C","auditory"
"60","4C.wav",204,"S",NA,"",NA,"None","pu",5,"f002","2C","auditory"
"61","2A.wav",205,"S",NA,"",0.200438214932,"3","pu",5,"f002","2C","auditory"
"62","2B.wav",206,"S",NA,"",NA,"None","pu",5,"f002","2C","auditory"
"63","2C.wav",207,"S",NA,"",NA,"None","pu",5,"f002","2C","auditory"
"64","3A.wav",208,"S",NA,"",0.167026820593,"3","pu",5,"f002","2C","auditory"
"65","3B.wav",209,"S",NA,"",NA,"None","pu",5,"f002","2C","auditory"
"66","3C.wav",210,"S",NA,"",NA,"None","pu",5,"f002","2C","auditory"
"67","1A.wav",211,"S",NA,"",NA,"None","pu",5,"f002","2C","auditory"
"68","1B.wav",212,"S",NA,"",NA,"None","pu",5,"f002","2C","auditory"
"69","1C.wav",213,"S",NA,"",NA,"None","pu",5,"f002","2C","auditory"
"70","4A.wav",214,"S",NA,"",NA,"None","pu",5,"f002","2C","auditory"
"71","4B.wav",215,"S",NA,"",NA,"None","pu",5,"f002","2C","auditory"
"72","4C.wav",216,"S",NA,"",NA,"None","pu",5,"f002","2C","auditory"
"73","3A.wav",217,"S",NA,"",0.181133550592,"3","pu",5,"f002","2C","auditory"
"74","3B.wav",218,"S",NA,"",NA,"None","pu",5,"f002","2C","auditory"
"75","3C.wav",219,"S",NA,"",NA,"None","pu",5,"f002","2C","auditory"
"76","4A.wav",220,"S",NA,"",NA,"None","pu",5,"f002","2C","auditory"
"77","4B.wav",221,"S",NA,"",NA,"None","pu",5,"f002","2C","auditory"
"78","4C.wav",222,"S",NA,"",NA,"None","pu",5,"f002","2C","auditory"
"79","2A.wav",223,"S",NA,"",0.208704450168,"3","pu",5,"f002","2C","auditory"
"80","2B.wav",224,"S",NA,"",NA,"None","pu",5,"f002","2C","auditory"
"81","2C.wav",225,"S",NA,"",NA,"None","pu",5,"f002","2C","auditory"
"82","1A.wav",226,"S",NA,"",0.142159563489,"3","pu",5,"f002","2C","auditory"
"83","1B.wav",227,"S",NA,"",NA,"None","pu",5,"f002","2C","auditory"
"84","1C.wav",228,"S",NA,"",NA,"None","pu",5,"f002","2C","auditory"
"85","2A.wav",229,"S",NA,"",NA,"None","pu",5,"f002","2C","auditory"
"86","2B.wav",230,"S",NA,"",NA,"None","pu",5,"f002","2C","auditory"
"87","2C.wav",231,"S",NA,"",0.351101240143,"3","pu",5,"f002","2C","auditory"
"88","4A.wav",232,"S",NA,"",NA,"None","pu",5,"f002","2C","auditory"
"89","4B.wav",233,"S",NA,"",NA,"None","pu",5,"f002","2C","auditory"
"90","4C.wav",234,"S",NA,"",0.0336014027707,"3","pu",5,"f002","2C","auditory"
"91","3A.wav",235,"S",NA,"",NA,"None","pu",5,"f002","2C","auditory"
"92","3B.wav",236,"S",NA,"",NA,"None","pu",5,"f002","2C","auditory"
"93","3C.wav",237,"S",NA,"",NA,"None","pu",5,"f002","2C","auditory"
"94","1A.wav",238,"S",NA,"",NA,"None","pu",5,"f002","2C","auditory"
"95","1B.wav",239,"S",NA,"",NA,"None","pu",5,"f002","2C","auditory"
"96","1C.wav",240,"S",NA,"",NA,"None","pu",5,"f002","2C","auditory"
"97","silence.wav",0,"B",NA,"",NA,"None","pu",5,"f002","2C","auditory"
"98","silence.wav",0,"B",NA,"",NA,"None","pu",5,"f002","2C","auditory"
"99","silence.wav",0,"B",NA,"",NA,"None","pu",5,"f002","2C","auditory"
"100","silence.wav",0,"B",NA,"",NA,"None","pu",5,"f002","2C","auditory"
"101","silence.wav",0,"B",NA,"",NA,"None","pu",5,"f002","2C","auditory"
"102","silence.wav",0,"B",NA,"",NA,"None","pu",5,"f002","2C","auditory"
"103","silence.wav",0,"B",NA,"",NA,"None","pu",5,"f002","2C","auditory"
"104","silence.wav",0,"B",NA,"",NA,"None","pu",5,"f002","2C","auditory"
"105","silence.wav",0,"B",NA,"",NA,"None","pu",5,"f002","2C","auditory"
"106","silence.wav",0,"B",NA,"",NA,"None","pu",5,"f002","2C","auditory"
"107","silence.wav",0,"B",NA,"",NA,"None","pu",5,"f002","2C","auditory"
"108","silence.wav",0,"B",NA,"",NA,"None","pu",5,"f002","2C","auditory"
"109","ti.wav",241,"R",NA,"None",NA,"","pu",5,"f002","2C","auditory"
"110","ba.wav",242,"R",NA,"None",NA,"","pu",5,"f002","2C","auditory"
"111","di.wav",243,"R",NA,"None",NA,"","pu",5,"f002","2C","auditory"
"112","pu.wav",244,"R",NA,"None",NA,"","pu",5,"f002","2C","auditory"
"113","pu.wav",245,"R",0.242060377728,"3",NA,"","pu",5,"f002","2C","auditory"
"114","ba.wav",246,"R",0.291962713934,"3",NA,"","pu",5,"f002","2C","auditory"
"115","du.wav",247,"R",NA,"None",NA,"","pu",5,"f002","2C","auditory"
"116","bi.wav",248,"R",NA,"None",NA,"","pu",5,"f002","2C","auditory"
"117","bi.wav",249,"R",NA,"None",NA,"","pu",5,"f002","2C","auditory"
"118","ta.wav",250,"R",NA,"None",NA,"","pu",5,"f002","2C","auditory"
"119","ta.wav",251,"R",NA,"None",NA,"","pu",5,"f002","2C","auditory"
"120","ba.wav",252,"R",NA,"None",NA,"","pu",5,"f002","2C","auditory"
"121","da.wav",253,"R",NA,"None",NA,"","pu",5,"f002","2C","auditory"
"122","tu.wav",254,"R",NA,"None",NA,"","pu",5,"f002","2C","auditory"
"123","di.wav",255,"R",NA,"None",NA,"","pu",5,"f002","2C","auditory"
"124","ti.wav",256,"R",NA,"None",NA,"","pu",5,"f002","2C","auditory"
"125","pi.wav",257,"R",NA,"None",NA,"","pu",5,"f002","2C","auditory"
"126","pu.wav",258,"R",NA,"None",NA,"","pu",5,"f002","2C","auditory"
"127","pi.wav",259,"R",0.308715628926,"3",NA,"","pu",5,"f002","2C","auditory"
"128","du.wav",260,"R",NA,"None",NA,"","pu",5,"f002","2C","auditory"
"129","di.wav",261,"R",NA,"None",NA,"","pu",5,"f002","2C","auditory"
"130","bu.wav",262,"R",NA,"None",NA,"","pu",5,"f002","2C","auditory"
"131","pa.wav",263,"R",0.258830074687,"3",NA,"","pu",5,"f002","2C","auditory"
"132","tu.wav",264,"R",NA,"None",NA,"","pu",5,"f002","2C","auditory"
"133","pi.wav",265,"R",NA,"None",NA,"","pu",5,"f002","2C","auditory"
"134","ta.wav",266,"R",NA,"None",NA,"","pu",5,"f002","2C","auditory"
"135","da.wav",267,"R",NA,"None",NA,"","pu",5,"f002","2C","auditory"
"136","ta.wav",268,"R",NA,"None",NA,"","pu",5,"f002","2C","auditory"
"137","tu.wav",269,"R",NA,"None",NA,"","pu",5,"f002","2C","auditory"
"138","tu.wav",270,"R",NA,"None",NA,"","pu",5,"f002","2C","auditory"
"139","ba.wav",271,"R",NA,"None",NA,"","pu",5,"f002","2C","auditory"
"140","pu.wav",272,"R",NA,"None",NA,"","pu",5,"f002","2C","auditory"
"141","pa.wav",273,"R",NA,"None",NA,"","pu",5,"f002","2C","auditory"
"142","bi.wav",274,"R",0.083605570253,"3",NA,"","pu",5,"f002","2C","auditory"
"143","pu.wav",275,"R",NA,"None",NA,"","pu",5,"f002","2C","auditory"
"144","bu.wav",276,"R",0.283730043098,"3",NA,"","pu",5,"f002","2C","auditory"
"145","ti.wav",277,"R",0.355564455502,"3",NA,"","pu",5,"f002","2C","auditory"
"146","du.wav",278,"R",NA,"None",NA,"","pu",5,"f002","2C","auditory"
"147","tu.wav",279,"R",NA,"None",NA,"","pu",5,"f002","2C","auditory"
"148","du.wav",280,"R",NA,"None",NA,"","pu",5,"f002","2C","auditory"
"149","di.wav",281,"R",NA,"None",NA,"","pu",5,"f002","2C","auditory"
"150","bi.wav",282,"R",NA,"None",NA,"","pu",5,"f002","2C","auditory"
"151","ti.wav",283,"R",NA,"None",NA,"","pu",5,"f002","2C","auditory"
"152","di.wav",284,"R",NA,"None",NA,"","pu",5,"f002","2C","auditory"
"153","bi.wav",285,"R",NA,"None",NA,"","pu",5,"f002","2C","auditory"
"154","ba.wav",286,"R",NA,"None",NA,"","pu",5,"f002","2C","auditory"
"155","pi.wav",287,"R",NA,"None",NA,"","pu",5,"f002","2C","auditory"
"156","pi.wav",288,"R",NA,"None",NA,"","pu",5,"f002","2C","auditory"
"157","silence.wav",0,"B",NA,"None",NA,"","pu",5,"f002","2C","auditory"
"158","silence.wav",0,"B",NA,"None",NA,"","pu",5,"f002","2C","auditory"
"159","silence.wav",0,"B",NA,"None",NA,"","pu",5,"f002","2C","auditory"
"160","silence.wav",0,"B",NA,"None",NA,"","pu",5,"f002","2C","auditory"
"161","silence.wav",0,"B",NA,"None",NA,"","pu",5,"f002","2C","auditory"
"162","silence.wav",0,"B",NA,"None",NA,"","pu",5,"f002","2C","auditory"
"163","silence.wav",0,"B",NA,"None",NA,"","pu",5,"f002","2C","auditory"
"164","silence.wav",0,"B",NA,"None",NA,"","pu",5,"f002","2C","auditory"
"165","silence.wav",0,"B",NA,"None",NA,"","pu",5,"f002","2C","auditory"
"166","silence.wav",0,"B",NA,"None",NA,"","pu",5,"f002","2C","auditory"
"167","silence.wav",0,"B",NA,"None",NA,"","pu",5,"f002","2C","auditory"
"168","silence.wav",0,"B",NA,"None",NA,"","pu",5,"f002","2C","auditory"
"169","ba.wav",289,"R",NA,"None",NA,"","pu",5,"f002","2C","auditory"
"170","tu.wav",290,"R",NA,"None",NA,"","pu",5,"f002","2C","auditory"
"171","pi.wav",291,"R",NA,"None",NA,"","pu",5,"f002","2C","auditory"
"172","du.wav",292,"R",NA,"None",NA,"","pu",5,"f002","2C","auditory"
"173","ti.wav",293,"R",NA,"None",NA,"","pu",5,"f002","2C","auditory"
"174","bi.wav",294,"R",NA,"None",NA,"","pu",5,"f002","2C","auditory"
"175","pu.wav",295,"R",NA,"None",NA,"","pu",5,"f002","2C","auditory"
"176","di.wav",296,"R",0.392087670509,"3",NA,"","pu",5,"f002","2C","auditory"
"177","tu.wav",297,"R",NA,"None",NA,"","pu",5,"f002","2C","auditory"
"178","da.wav",298,"R",NA,"None",NA,"","pu",5,"f002","2C","auditory"
"179","da.wav",299,"R",NA,"None",NA,"","pu",5,"f002","2C","auditory"
"180","bi.wav",300,"R",NA,"None",NA,"","pu",5,"f002","2C","auditory"
"181","du.wav",301,"R",NA,"None",NA,"","pu",5,"f002","2C","auditory"
"182","bu.wav",302,"R",NA,"None",NA,"","pu",5,"f002","2C","auditory"
"183","pa.wav",303,"R",0.450794125441,"3",NA,"","pu",5,"f002","2C","auditory"
"184","ti.wav",304,"R",NA,"None",NA,"","pu",5,"f002","2C","auditory"
"185","pi.wav",305,"R",NA,"None",NA,"","pu",5,"f002","2C","auditory"
"186","pa.wav",306,"R",NA,"None",NA,"","pu",5,"f002","2C","auditory"
"187","ta.wav",307,"R",NA,"None",NA,"","pu",5,"f002","2C","auditory"
"188","pa.wav",308,"R",NA,"None",NA,"","pu",5,"f002","2C","auditory"
"189","bu.wav",309,"R",NA,"None",NA,"","pu",5,"f002","2C","auditory"
"190","ta.wav",310,"R",0.458758850116,"3",NA,"","pu",5,"f002","2C","auditory"
"191","bu.wav",311,"R",NA,"None",NA,"","pu",5,"f002","2C","auditory"
"192","da.wav",312,"R",0.392045003362,"3",NA,"","pu",5,"f002","2C","auditory"
"193","silence.wav",0,"B",NA,"None",NA,"","pu",5,"f002","2C","auditory"
"194","silence.wav",0,"B",NA,"None",NA,"","pu",5,"f002","2C","auditory"
"195","silence.wav",0,"B",NA,"None",NA,"","pu",5,"f002","2C","auditory"
"196","silence.wav",0,"B",NA,"None",NA,"","pu",5,"f002","2C","auditory"
"197","silence.wav",0,"B",NA,"None",NA,"","pu",5,"f002","2C","auditory"
"198","silence.wav",0,"B",NA,"None",NA,"","pu",5,"f002","2C","auditory"
"199","silence.wav",0,"B",NA,"None",NA,"","pu",5,"f002","2C","auditory"
"200","silence.wav",0,"B",NA,"None",NA,"","pu",5,"f002","2C","auditory"
"201","silence.wav",0,"B",NA,"None",NA,"","pu",5,"f002","2C","auditory"
"202","silence.wav",0,"B",NA,"None",NA,"","pu",5,"f002","2C","auditory"
"203","silence.wav",0,"B",NA,"None",NA,"","pu",5,"f002","2C","auditory"
"204","silence.wav",0,"B",NA,"None",NA,"","pu",5,"f002","2C","auditory"
"205","2A.wav",241,"S",NA,"",NA,"None","pu",5,"f002","2C","auditory"
"206","2B.wav",242,"S",NA,"",NA,"None","pu",5,"f002","2C","auditory"
"207","2C.wav",243,"S",NA,"",NA,"None","pu",5,"f002","2C","auditory"
"208","3A.wav",244,"S",NA,"",0.308686615434,"3","pu",5,"f002","2C","auditory"
"209","3B.wav",245,"S",NA,"",NA,"None","pu",5,"f002","2C","auditory"
"210","3C.wav",246,"S",NA,"",NA,"None","pu",5,"f002","2C","auditory"
"211","4A.wav",247,"S",NA,"",NA,"None","pu",5,"f002","2C","auditory"
"212","4B.wav",248,"S",NA,"",NA,"None","pu",5,"f002","2C","auditory"
"213","4C.wav",249,"S",NA,"",0.191976850852,"3","pu",5,"f002","2C","auditory"
"214","2A.wav",250,"S",NA,"",NA,"None","pu",5,"f002","2C","auditory"
"215","2B.wav",251,"S",NA,"",NA,"None","pu",5,"f002","2C","auditory"
"216","2C.wav",252,"S",NA,"",NA,"None","pu",5,"f002","2C","auditory"
"217","3A.wav",253,"S",NA,"",0.108696684707,"3","pu",5,"f002","2C","auditory"
"218","3B.wav",254,"S",NA,"",NA,"None","pu",5,"f002","2C","auditory"
"219","3C.wav",255,"S",NA,"",NA,"None","pu",5,"f002","2C","auditory"
"220","4A.wav",256,"S",NA,"",NA,"None","pu",5,"f002","2C","auditory"
"221","4B.wav",257,"S",NA,"",NA,"None","pu",5,"f002","2C","auditory"
"222","4C.wav",258,"S",NA,"",0.233653057832,"3","pu",5,"f002","2C","auditory"
"223","1A.wav",259,"S",NA,"",NA,"None","pu",5,"f002","2C","auditory"
"224","1B.wav",260,"S",NA,"",NA,"None","pu",5,"f002","2C","auditory"
"225","1C.wav",261,"S",NA,"",0.225366627332,"3","pu",5,"f002","2C","auditory"
"226","2A.wav",262,"S",NA,"",NA,"None","pu",5,"f002","2C","auditory"
"227","2B.wav",263,"S",NA,"",NA,"None","pu",5,"f002","2C","auditory"
"228","2C.wav",264,"S",NA,"",0.00859931996092,"3","pu",5,"f002","2C","auditory"
"229","silence.wav",0,"B",NA,"",0.317134610843,"3","pu",5,"f002","2C","auditory"
"230","silence.wav",0,"B",NA,"",NA,"None","pu",5,"f002","2C","auditory"
"231","silence.wav",0,"B",NA,"",NA,"None","pu",5,"f002","2C","auditory"
"232","silence.wav",0,"B",NA,"",NA,"None","pu",5,"f002","2C","auditory"
"233","silence.wav",0,"B",NA,"",NA,"None","pu",5,"f002","2C","auditory"
"234","silence.wav",0,"B",NA,"",NA,"None","pu",5,"f002","2C","auditory"
"235","silence.wav",0,"B",NA,"",NA,"None","pu",5,"f002","2C","auditory"
"236","silence.wav",0,"B",NA,"",NA,"None","pu",5,"f002","2C","auditory"
"237","silence.wav",0,"B",NA,"",NA,"None","pu",5,"f002","2C","auditory"
"238","silence.wav",0,"B",NA,"",NA,"None","pu",5,"f002","2C","auditory"
"239","silence.wav",0,"B",NA,"",NA,"None","pu",5,"f002","2C","auditory"
"240","silence.wav",0,"B",NA,"",NA,"None","pu",5,"f002","2C","auditory"
"241","1A.wav",265,"S",NA,"",NA,"None","pu",5,"f002","2C","auditory"
"242","1B.wav",266,"S",NA,"",NA,"None","pu",5,"f002","2C","auditory"
"243","1C.wav",267,"S",NA,"",NA,"None","pu",5,"f002","2C","auditory"
"244","4A.wav",268,"S",NA,"",NA,"None","pu",5,"f002","2C","auditory"
"245","4B.wav",269,"S",NA,"",NA,"None","pu",5,"f002","2C","auditory"
"246","4C.wav",270,"S",NA,"",NA,"None","pu",5,"f002","2C","auditory"
"247","3A.wav",271,"S",NA,"",NA,"None","pu",5,"f002","2C","auditory"
"248","3B.wav",272,"S",NA,"",NA,"None","pu",5,"f002","2C","auditory"
"249","3C.wav",273,"S",NA,"",NA,"None","pu",5,"f002","2C","auditory"
"250","1A.wav",274,"S",NA,"",NA,"None","pu",5,"f002","2C","auditory"
"251","1B.wav",275,"S",NA,"",NA,"None","pu",5,"f002","2C","auditory"
"252","1C.wav",276,"S",NA,"",NA,"None","pu",5,"f002","2C","auditory"
"253","4A.wav",277,"S",NA,"",NA,"None","pu",5,"f002","2C","auditory"
"254","4B.wav",278,"S",NA,"",NA,"None","pu",5,"f002","2C","auditory"
"255","4C.wav",279,"S",NA,"",0.225349276327,"3","pu",5,"f002","2C","auditory"
"256","2A.wav",280,"S",NA,"",NA,"None","pu",5,"f002","2C","auditory"
"257","2B.wav",281,"S",NA,"",0.218465155456,"3","pu",5,"f002","2C","auditory"
"258","2C.wav",282,"S",NA,"",NA,"None","pu",5,"f002","2C","auditory"
"259","3A.wav",283,"S",NA,"",0.327480418142,"3","pu",5,"f002","2C","auditory"
"260","3B.wav",284,"S",NA,"",NA,"None","pu",5,"f002","2C","auditory"
"261","3C.wav",285,"S",NA,"",NA,"None","pu",5,"f002","2C","auditory"
"262","1A.wav",286,"S",NA,"",NA,"None","pu",5,"f002","2C","auditory"
"263","1B.wav",287,"S",NA,"",NA,"None","pu",5,"f002","2C","auditory"
"264","1C.wav",288,"S",NA,"",NA,"None","pu",5,"f002","2C","auditory"
"265","silence.wav",0,"B",NA,"",NA,"None","pu",5,"f002","2C","auditory"
"266","silence.wav",0,"B",NA,"",NA,"None","pu",5,"f002","2C","auditory"
"267","silence.wav",0,"B",NA,"",NA,"None","pu",5,"f002","2C","auditory"
"268","silence.wav",0,"B",NA,"",NA,"None","pu",5,"f002","2C","auditory"
"269","silence.wav",0,"B",NA,"",NA,"None","pu",5,"f002","2C","auditory"
"270","silence.wav",0,"B",NA,"",NA,"None","pu",5,"f002","2C","auditory"
"271","silence.wav",0,"B",NA,"",NA,"None","pu",5,"f002","2C","auditory"
"272","silence.wav",0,"B",NA,"",NA,"None","pu",5,"f002","2C","auditory"
"273","silence.wav",0,"B",NA,"",NA,"None","pu",5,"f002","2C","auditory"
"274","silence.wav",0,"B",NA,"",NA,"None","pu",5,"f002","2C","auditory"
"275","silence.wav",0,"B",NA,"",NA,"None","pu",5,"f002","2C","auditory"
"276","silence.wav",0,"B",NA,"",NA,"None","pu",5,"f002","2C","auditory"
"277","3A.wav",289,"S",NA,"",NA,"None","pu",5,"f002","2C","auditory"
"278","3B.wav",290,"S",NA,"",NA,"None","pu",5,"f002","2C","auditory"
"279","3C.wav",291,"S",NA,"",NA,"None","pu",5,"f002","2C","auditory"
"280","1A.wav",292,"S",NA,"",NA,"None","pu",5,"f002","2C","auditory"
"281","1B.wav",293,"S",NA,"",NA,"None","pu",5,"f002","2C","auditory"
"282","1C.wav",294,"S",NA,"",NA,"None","pu",5,"f002","2C","auditory"
"283","4A.wav",295,"S",NA,"",NA,"None","pu",5,"f002","2C","auditory"
"284","4B.wav",296,"S",NA,"",NA,"None","pu",5,"f002","2C","auditory"
"285","4C.wav",297,"S",NA,"",0.241921568755,"3","pu",5,"f002","2C","auditory"
"286","3A.wav",298,"S",NA,"",NA,"None","pu",5,"f002","2C","auditory"
"287","3B.wav",299,"S",NA,"",NA,"None","pu",5,"f002","2C","auditory"
"288","3C.wav",300,"S",NA,"",NA,"None","pu",5,"f002","2C","auditory"
"289","2A.wav",301,"S",NA,"",NA,"None","pu",5,"f002","2C","auditory"
"290","2B.wav",302,"S",NA,"",0.310989760794,"3","pu",5,"f002","2C","auditory"
"291","2C.wav",303,"S",NA,"",NA,"None","pu",5,"f002","2C","auditory"
"292","1A.wav",304,"S",NA,"",0.217065121047,"3","pu",5,"f002","2C","auditory"
"293","1B.wav",305,"S",NA,"",NA,"None","pu",5,"f002","2C","auditory"
"294","1C.wav",306,"S",NA,"",NA,"None","pu",5,"f002","2C","auditory"
"295","4A.wav",307,"S",NA,"",NA,"None","pu",5,"f002","2C","auditory"
"296","4B.wav",308,"S",NA,"",NA,"None","pu",5,"f002","2C","auditory"
"297","4C.wav",309,"S",NA,"",0.267052506097,"3","pu",5,"f002","2C","auditory"
"298","3A.wav",310,"S",NA,"",NA,"None","pu",5,"f002","2C","auditory"
"299","3B.wav",311,"S",NA,"",NA,"None","pu",5,"f002","2C","auditory"
"300","3C.wav",312,"S",NA,"",NA,"None","pu",5,"f002","2C","auditory"
"301","2A.wav",313,"S",NA,"",NA,"None","pu",5,"f002","2C","auditory"
"302","2B.wav",314,"S",NA,"",0.169085628353,"3","pu",5,"f002","2C","auditory"
"303","2C.wav",315,"S",NA,"",NA,"None","pu",5,"f002","2C","auditory"
"304","1A.wav",316,"S",NA,"",0.158685776405,"3","pu",5,"f002","2C","auditory"
"305","1B.wav",317,"S",NA,"",NA,"None","pu",5,"f002","2C","auditory"
"306","1C.wav",318,"S",NA,"",NA,"None","pu",5,"f002","2C","auditory"
"307","2A.wav",319,"S",NA,"",NA,"None","pu",5,"f002","2C","auditory"
"308","2B.wav",320,"S",NA,"",NA,"None","pu",5,"f002","2C","auditory"
"309","2C.wav",321,"S",NA,"",NA,"None","pu",5,"f002","2C","auditory"
"310","4A.wav",322,"S",NA,"",0.317061224021,"3","pu",5,"f002","2C","auditory"
"311","4B.wav",323,"S",NA,"",NA,"None","pu",5,"f002","2C","auditory"
"312","4C.wav",324,"S",NA,"",NA,"None","pu",5,"f002","2C","auditory"
"313","3A.wav",325,"S",NA,"",0.233765129,"3","pu",5,"f002","2C","auditory"
"314","3B.wav",326,"S",NA,"",NA,"None","pu",5,"f002","2C","auditory"
"315","3C.wav",327,"S",NA,"",NA,"None","pu",5,"f002","2C","auditory"
"316","4A.wav",328,"S",NA,"",NA,"None","pu",5,"f002","2C","auditory"
"317","4B.wav",329,"S",NA,"",NA,"None","pu",5,"f002","2C","auditory"
"318","4C.wav",330,"S",NA,"",0.148398280144,"3","pu",5,"f002","2C","auditory"
"319","3A.wav",331,"S",NA,"",NA,"None","pu",5,"f002","2C","auditory"
"320","3B.wav",332,"S",NA,"",NA,"None","pu",5,"f002","2C","auditory"
"321","3C.wav",333,"S",NA,"",NA,"None","pu",5,"f002","2C","auditory"
"322","2A.wav",334,"S",NA,"",NA,"None","pu",5,"f002","2C","auditory"
"323","2B.wav",335,"S",NA,"",NA,"None","pu",5,"f002","2C","auditory"
"324","2C.wav",336,"S",NA,"",NA,"None","pu",5,"f002","2C","auditory"
"325","silence.wav",0,"B",NA,"",0.192094610538,"3","pu",5,"f002","2C","auditory"
"326","silence.wav",0,"B",NA,"",NA,"None","pu",5,"f002","2C","auditory"
"327","silence.wav",0,"B",NA,"",NA,"None","pu",5,"f002","2C","auditory"
"328","silence.wav",0,"B",NA,"",NA,"None","pu",5,"f002","2C","auditory"
"329","silence.wav",0,"B",NA,"",NA,"None","pu",5,"f002","2C","auditory"
"330","silence.wav",0,"B",NA,"",NA,"None","pu",5,"f002","2C","auditory"
"331","silence.wav",0,"B",NA,"",NA,"None","pu",5,"f002","2C","auditory"
"332","silence.wav",0,"B",NA,"",NA,"None","pu",5,"f002","2C","auditory"
"333","silence.wav",0,"B",NA,"",NA,"None","pu",5,"f002","2C","auditory"
"334","silence.wav",0,"B",NA,"",NA,"None","pu",5,"f002","2C","auditory"
"335","silence.wav",0,"B",NA,"",NA,"None","pu",5,"f002","2C","auditory"
"336","silence.wav",0,"B",NA,"",NA,"None","pu",5,"f002","2C","auditory"
"337","du.wav",337,"R",NA,"None",NA,"","pu",5,"f002","2C","auditory"
"338","ba.wav",338,"R",NA,"None",NA,"","pu",5,"f002","2C","auditory"
"339","ti.wav",339,"R",NA,"None",NA,"","pu",5,"f002","2C","auditory"
"340","bu.wav",340,"R",NA,"None",NA,"","pu",5,"f002","2C","auditory"
"341","bi.wav",341,"R",0.292419531383,"3",NA,"","pu",5,"f002","2C","auditory"
"342","ti.wav",342,"R",NA,"None",NA,"","pu",5,"f002","2C","auditory"
"343","pu.wav",343,"R",NA,"None",NA,"","pu",5,"f002","2C","auditory"
"344","ba.wav",344,"R",0.308791859541,"3",NA,"","pu",5,"f002","2C","auditory"
"345","ta.wav",345,"R",NA,"None",NA,"","pu",5,"f002","2C","auditory"
"346","pa.wav",346,"R",NA,"None",NA,"","pu",5,"f002","2C","auditory"
"347","tu.wav",347,"R",NA,"None",NA,"","pu",5,"f002","2C","auditory"
"348","bu.wav",348,"R",NA,"None",NA,"","pu",5,"f002","2C","auditory"
"349","pu.wav",349,"R",0.31710588187,"3",NA,"","pu",5,"f002","2C","auditory"
"350","di.wav",350,"R",0.383803230245,"3",NA,"","pu",5,"f002","2C","auditory"
"351","pi.wav",351,"R",NA,"None",NA,"","pu",5,"f002","2C","auditory"
"352","du.wav",352,"R",NA,"None",NA,"","pu",5,"f002","2C","auditory"
"353","da.wav",353,"R",NA,"None",NA,"","pu",5,"f002","2C","auditory"
"354","pi.wav",354,"R",NA,"None",NA,"","pu",5,"f002","2C","auditory"
"355","di.wav",355,"R",NA,"None",NA,"","pu",5,"f002","2C","auditory"
"356","tu.wav",356,"R",NA,"None",NA,"","pu",5,"f002","2C","auditory"
"357","pa.wav",357,"R",NA,"None",NA,"","pu",5,"f002","2C","auditory"
"358","ta.wav",358,"R",NA,"None",NA,"","pu",5,"f002","2C","auditory"
"359","da.wav",359,"R",NA,"None",NA,"","pu",5,"f002","2C","auditory"
"360","bi.wav",360,"R",NA,"None",NA,"","pu",5,"f002","2C","auditory"
"361","ba.wav",313,"R",NA,"None",NA,"","pu",5,"f002","2C","auditory"
"362","di.wav",314,"R",NA,"None",NA,"","pu",5,"f002","2C","auditory"
"363","pu.wav",315,"R",NA,"None",NA,"","pu",5,"f002","2C","auditory"
"364","bu.wav",316,"R",NA,"None",NA,"","pu",5,"f002","2C","auditory"
"365","pu.wav",317,"R",0.108707493637,"3",NA,"","pu",5,"f002","2C","auditory"
"366","du.wav",318,"R",0.425388984848,"3",NA,"","pu",5,"f002","2C","auditory"
"367","da.wav",319,"R",NA,"None",NA,"","pu",5,"f002","2C","auditory"
"368","pa.wav",320,"R",NA,"None",NA,"","pu",5,"f002","2C","auditory"
"369","da.wav",321,"R",NA,"None",NA,"","pu",5,"f002","2C","auditory"
"370","ti.wav",322,"R",NA,"None",NA,"","pu",5,"f002","2C","auditory"
"371","ti.wav",323,"R",NA,"None",NA,"","pu",5,"f002","2C","auditory"
"372","bu.wav",324,"R",NA,"None",NA,"","pu",5,"f002","2C","auditory"
"373","di.wav",325,"R",0.342008125503,"3",NA,"","pu",5,"f002","2C","auditory"
"374","ta.wav",326,"R",NA,"None",NA,"","pu",5,"f002","2C","auditory"
"375","pa.wav",327,"R",NA,"None",NA,"","pu",5,"f002","2C","auditory"
"376","ta.wav",328,"R",NA,"None",NA,"","pu",5,"f002","2C","auditory"
"377","ba.wav",329,"R",NA,"None",NA,"","pu",5,"f002","2C","auditory"
"378","di.wav",330,"R",NA,"None",NA,"","pu",5,"f002","2C","auditory"
"379","tu.wav",331,"R",NA,"None",NA,"","pu",5,"f002","2C","auditory"
"380","pu.wav",332,"R",NA,"None",NA,"","pu",5,"f002","2C","auditory"
"381","bi.wav",333,"R",0.300389660522,"3",NA,"","pu",5,"f002","2C","auditory"
"382","ba.wav",334,"R",NA,"None",NA,"","pu",5,"f002","2C","auditory"
"383","du.wav",335,"R",NA,"None",NA,"","pu",5,"f002","2C","auditory"
"384","pi.wav",336,"R",NA,"None",NA,"","pu",5,"f002","2C","auditory"
"385","silence.wav",0,"B",NA,"None",NA,"","pu",5,"f002","2C","auditory"
"386","silence.wav",0,"B",NA,"None",NA,"","pu",5,"f002","2C","auditory"
"387","silence.wav",0,"B",NA,"None",NA,"","pu",5,"f002","2C","auditory"
"388","silence.wav",0,"B",NA,"None",NA,"","pu",5,"f002","2C","auditory"
"389","silence.wav",0,"B",NA,"None",NA,"","pu",5,"f002","2C","auditory"
"390","silence.wav",0,"B",NA,"None",NA,"","pu",5,"f002","2C","auditory"
"391","silence.wav",0,"B",NA,"None",NA,"","pu",5,"f002","2C","auditory"
"392","silence.wav",0,"B",NA,"None",NA,"","pu",5,"f002","2C","auditory"
"393","silence.wav",0,"B",NA,"None",NA,"","pu",5,"f002","2C","auditory"
"394","silence.wav",0,"B",NA,"None",NA,"","pu",5,"f002","2C","auditory"
"395","silence.wav",0,"B",NA,"None",NA,"","pu",5,"f002","2C","auditory"
"396","silence.wav",0,"B",NA,"None",NA,"","pu",5,"f002","2C","auditory"
"397","di.wav",361,"R",NA,"None",NA,"","pu",5,"f002","2C","auditory"
"398","pu.wav",362,"R",NA,"None",NA,"","pu",5,"f002","2C","auditory"
"399","ta.wav",363,"R",0.325214819517,"3",NA,"","pu",5,"f002","2C","auditory"
"400","pi.wav",364,"R",NA,"None",NA,"","pu",5,"f002","2C","auditory"
"401","ti.wav",365,"R",NA,"None",NA,"","pu",5,"f002","2C","auditory"
"402","pa.wav",366,"R",NA,"None",NA,"","pu",5,"f002","2C","auditory"
"403","pu.wav",367,"R",NA,"None",NA,"","pu",5,"f002","2C","auditory"
"404","di.wav",368,"R",0.317098770756,"3",NA,"","pu",5,"f002","2C","auditory"
"405","bu.wav",369,"R",NA,"None",NA,"","pu",5,"f002","2C","auditory"
"406","ta.wav",370,"R",0.442152139265,"3",NA,"","pu",5,"f002","2C","auditory"
"407","bi.wav",371,"R",NA,"None",NA,"","pu",5,"f002","2C","auditory"
"408","bu.wav",372,"R",NA,"None",NA,"","pu",5,"f002","2C","auditory"
"409","du.wav",373,"R",NA,"None",NA,"","pu",5,"f002","2C","auditory"
"410","da.wav",374,"R",NA,"None",NA,"","pu",5,"f002","2C","auditory"
"411","pi.wav",375,"R",NA,"None",NA,"","pu",5,"f002","2C","auditory"
"412","ba.wav",376,"R",NA,"None",NA,"","pu",5,"f002","2C","auditory"
"413","ba.wav",377,"R",NA,"None",NA,"","pu",5,"f002","2C","auditory"
"414","tu.wav",378,"R",NA,"None",NA,"","pu",5,"f002","2C","auditory"
"415","ti.wav",379,"R",NA,"None",NA,"","pu",5,"f002","2C","auditory"
"416","bi.wav",380,"R",NA,"None",NA,"","pu",5,"f002","2C","auditory"
"417","du.wav",381,"R",NA,"None",NA,"","pu",5,"f002","2C","auditory"
"418","pa.wav",382,"R",NA,"None",NA,"","pu",5,"f002","2C","auditory"
"419","da.wav",383,"R",NA,"None",NA,"","pu",5,"f002","2C","auditory"
"420","tu.wav",384,"R",NA,"None",NA,"","pu",5,"f002","2C","auditory"
"421","1A.wav",337,"S",NA,"",NA,"None","pu",5,"f002","2C","auditory"
"422","1B.wav",338,"S",NA,"",NA,"None","pu",5,"f002","2C","auditory"
"423","1C.wav",339,"S",NA,"",NA,"None","pu",5,"f002","2C","auditory"
"424","4A.wav",340,"S",NA,"",NA,"None","pu",5,"f002","2C","auditory"
"425","4B.wav",341,"S",NA,"",NA,"None","pu",5,"f002","2C","auditory"
"426","4C.wav",342,"S",NA,"",0.16695371829,"3","pu",5,"f002","2C","auditory"
"427","3A.wav",343,"S",NA,"",NA,"None","pu",5,"f002","2C","auditory"
"428","3B.wav",344,"S",NA,"",NA,"None","pu",5,"f002","2C","auditory"
"429","3C.wav",345,"S",NA,"",NA,"None","pu",5,"f002","2C","auditory"
"430","2A.wav",346,"S",NA,"",NA,"None","pu",5,"f002","2C","auditory"
"431","2B.wav",347,"S",NA,"",NA,"None","pu",5,"f002","2C","auditory"
"432","2C.wav",348,"S",NA,"",NA,"None","pu",5,"f002","2C","auditory"
"433","1A.wav",349,"S",NA,"",0.152600944508,"3","pu",5,"f002","2C","auditory"
"434","1B.wav",350,"S",NA,"",NA,"None","pu",5,"f002","2C","auditory"
"435","1C.wav",351,"S",NA,"",NA,"None","pu",5,"f002","2C","auditory"
"436","2A.wav",352,"S",NA,"",NA,"None","pu",5,"f002","2C","auditory"
"437","2B.wav",353,"S",NA,"",NA,"None","pu",5,"f002","2C","auditory"
"438","2C.wav",354,"S",NA,"",NA,"None","pu",5,"f002","2C","auditory"
"439","3A.wav",355,"S",NA,"",0.267096025869,"3","pu",5,"f002","2C","auditory"
"440","3B.wav",356,"S",NA,"",NA,"None","pu",5,"f002","2C","auditory"
"441","3C.wav",357,"S",NA,"",NA,"None","pu",5,"f002","2C","auditory"
"442","4A.wav",358,"S",NA,"",NA,"None","pu",5,"f002","2C","auditory"
"443","4B.wav",359,"S",NA,"",NA,"None","pu",5,"f002","2C","auditory"
"444","4C.wav",360,"S",NA,"",NA,"None","pu",5,"f002","2C","auditory"
"445","silence.wav",0,"B",NA,"",NA,"None","pu",5,"f002","2C","auditory"
"446","silence.wav",0,"B",NA,"",NA,"None","pu",5,"f002","2C","auditory"
"447","silence.wav",0,"B",NA,"",NA,"None","pu",5,"f002","2C","auditory"
"448","silence.wav",0,"B",NA,"",NA,"None","pu",5,"f002","2C","auditory"
"449","silence.wav",0,"B",NA,"",NA,"None","pu",5,"f002","2C","auditory"
"450","silence.wav",0,"B",NA,"",NA,"None","pu",5,"f002","2C","auditory"
"451","silence.wav",0,"B",NA,"",NA,"None","pu",5,"f002","2C","auditory"
"452","silence.wav",0,"B",NA,"",NA,"None","pu",5,"f002","2C","auditory"
"453","silence.wav",0,"B",NA,"",NA,"None","pu",5,"f002","2C","auditory"
"454","silence.wav",0,"B",NA,"",NA,"None","pu",5,"f002","2C","auditory"
"455","silence.wav",0,"B",NA,"",NA,"None","pu",5,"f002","2C","auditory"
"456","silence.wav",0,"B",NA,"",NA,"None","pu",5,"f002","2C","auditory"
"457","1A.wav",361,"S",NA,"",NA,"None","pu",5,"f002","2C","auditory"
"458","1B.wav",362,"S",NA,"",NA,"None","pu",5,"f002","2C","auditory"
"459","1C.wav",363,"S",NA,"",NA,"None","pu",5,"f002","2C","auditory"
"460","3A.wav",364,"S",NA,"",NA,"None","pu",5,"f002","2C","auditory"
"461","3B.wav",365,"S",NA,"",NA,"None","pu",5,"f002","2C","auditory"
"462","3C.wav",366,"S",NA,"",NA,"None","pu",5,"f002","2C","auditory"
"463","2A.wav",367,"S",NA,"",NA,"None","pu",5,"f002","2C","auditory"
"464","2B.wav",368,"S",NA,"",0.18366140686,"3","pu",5,"f002","2C","auditory"
"465","2C.wav",369,"S",NA,"",NA,"None","pu",5,"f002","2C","auditory"
"466","4A.wav",370,"S",NA,"",0.17537981132,"3","pu",5,"f002","2C","auditory"
"467","4B.wav",371,"S",NA,"",NA,"None","pu",5,"f002","2C","auditory"
"468","4C.wav",372,"S",NA,"",0.350392404944,"3","pu",5,"f002","2C","auditory"
"469","1A.wav",373,"S",NA,"",NA,"None","pu",5,"f002","2C","auditory"
"470","1B.wav",374,"S",NA,"",NA,"None","pu",5,"f002","2C","auditory"
"471","1C.wav",375,"S",NA,"",NA,"None","pu",5,"f002","2C","auditory"
"472","2A.wav",376,"S",NA,"",NA,"None","pu",5,"f002","2C","auditory"
"473","2B.wav",377,"S",NA,"",0.0670514819212,"3","pu",5,"f002","2C","auditory"
"474","2C.wav",378,"S",NA,"",NA,"None","pu",5,"f002","2C","auditory"
"475","4A.wav",382,"S",NA,"",0.225318556186,"3","pu",5,"f002","2C","auditory"
"476","4B.wav",383,"S",NA,"",NA,"None","pu",5,"f002","2C","auditory"
"477","4C.wav",384,"S",NA,"",NA,"None","pu",5,"f002","2C","auditory"
"478","1A.wav",388,"S",NA,"",0.191958077252,"3","pu",5,"f002","2C","auditory"
"479","1B.wav",389,"S",NA,"",NA,"None","pu",5,"f002","2C","auditory"
"480","1C.wav",390,"S",NA,"",NA,"None","pu",5,"f002","2C","auditory"
