"","soundFile","trialnum","condition","random_block_key_resp.rt","random_block_key_resp.keys","structured_block_key_resp.rt","structured_block_key_resp.keys","starget","Run","PartID","ttarget","expName"
"1","pi.wav",1,"S",NA,"",0.423695119098,"3","da",1,"f003","1C","auditory"
"2","tu.wav",2,"S",NA,"",NA,"None","da",1,"f003","1C","auditory"
"3","bi.wav",3,"S",NA,"",NA,"None","da",1,"f003","1C","auditory"
"4","di.wav",4,"S",NA,"",NA,"None","da",1,"f003","1C","auditory"
"5","ba.wav",5,"S",NA,"",NA,"None","da",1,"f003","1C","auditory"
"6","pu.wav",6,"S",NA,"",NA,"None","da",1,"f003","1C","auditory"
"7","ta.wav",7,"S",NA,"",NA,"None","da",1,"f003","1C","auditory"
"8","ti.wav",8,"S",NA,"",NA,"None","da",1,"f003","1C","auditory"
"9","du.wav",9,"S",NA,"",NA,"None","da",1,"f003","1C","auditory"
"10","pi.wav",10,"S",NA,"",NA,"None","da",1,"f003","1C","auditory"
"11","tu.wav",11,"S",NA,"",NA,"None","da",1,"f003","1C","auditory"
"12","bi.wav",12,"S",NA,"",NA,"None","da",1,"f003","1C","auditory"
"13","bu.wav",13,"S",NA,"",NA,"None","da",1,"f003","1C","auditory"
"14","pa.wav",14,"S",NA,"",NA,"None","da",1,"f003","1C","auditory"
"15","da.wav",15,"S",NA,"",NA,"None","da",1,"f003","1C","auditory"
"16","di.wav",16,"S",NA,"",0.40041932743,"3","da",1,"f003","1C","auditory"
"17","ba.wav",17,"S",NA,"",NA,"None","da",1,"f003","1C","auditory"
"18","pu.wav",18,"S",NA,"",NA,"None","da",1,"f003","1C","auditory"
"19","ta.wav",19,"S",NA,"",NA,"None","da",1,"f003","1C","auditory"
"20","ti.wav",20,"S",NA,"",NA,"None","da",1,"f003","1C","auditory"
"21","du.wav",21,"S",NA,"",NA,"None","da",1,"f003","1C","auditory"
"22","pi.wav",22,"S",NA,"",NA,"None","da",1,"f003","1C","auditory"
"23","tu.wav",23,"S",NA,"",NA,"None","da",1,"f003","1C","auditory"
"24","bi.wav",24,"S",NA,"",NA,"None","da",1,"f003","1C","auditory"
"25","bu.wav",25,"S",NA,"",NA,"None","da",1,"f003","1C","auditory"
"26","pa.wav",26,"S",NA,"",NA,"None","da",1,"f003","1C","auditory"
"27","da.wav",27,"S",NA,"",NA,"None","da",1,"f003","1C","auditory"
"28","di.wav",28,"S",NA,"",0.258747870568,"3","da",1,"f003","1C","auditory"
"29","ba.wav",29,"S",NA,"",NA,"None","da",1,"f003","1C","auditory"
"30","pu.wav",30,"S",NA,"",NA,"None","da",1,"f003","1C","auditory"
"31","bu.wav",31,"S",NA,"",NA,"None","da",1,"f003","1C","auditory"
"32","pa.wav",32,"S",NA,"",NA,"None","da",1,"f003","1C","auditory"
"33","da.wav",33,"S",NA,"",NA,"None","da",1,"f003","1C","auditory"
"34","ta.wav",34,"S",NA,"",0.342051645741,"3","da",1,"f003","1C","auditory"
"35","ti.wav",35,"S",NA,"",NA,"None","da",1,"f003","1C","auditory"
"36","du.wav",36,"S",NA,"",NA,"None","da",1,"f003","1C","auditory"
"37","pi.wav",37,"S",NA,"",NA,"None","da",1,"f003","1C","auditory"
"38","tu.wav",38,"S",NA,"",NA,"None","da",1,"f003","1C","auditory"
"39","bi.wav",39,"S",NA,"",NA,"None","da",1,"f003","1C","auditory"
"40","ta.wav",40,"S",NA,"",NA,"None","da",1,"f003","1C","auditory"
"41","ti.wav",41,"S",NA,"",NA,"None","da",1,"f003","1C","auditory"
"42","du.wav",42,"S",NA,"",0.125342363957,"3","da",1,"f003","1C","auditory"
"43","pi.wav",43,"S",NA,"",NA,"None","da",1,"f003","1C","auditory"
"44","tu.wav",44,"S",NA,"",NA,"None","da",1,"f003","1C","auditory"
"45","bi.wav",45,"S",NA,"",NA,"None","da",1,"f003","1C","auditory"
"46","bu.wav",46,"S",NA,"",NA,"None","da",1,"f003","1C","auditory"
"47","pa.wav",47,"S",NA,"",NA,"None","da",1,"f003","1C","auditory"
"48","da.wav",48,"S",NA,"",NA,"None","da",1,"f003","1C","auditory"
"49","silence.wav",0,"B",NA,"",0.217015627772,"3","da",1,"f003","1C","auditory"
"50","silence.wav",0,"B",NA,"",NA,"None","da",1,"f003","1C","auditory"
"51","silence.wav",0,"B",NA,"",NA,"None","da",1,"f003","1C","auditory"
"52","silence.wav",0,"B",NA,"",NA,"None","da",1,"f003","1C","auditory"
"53","silence.wav",0,"B",NA,"",NA,"None","da",1,"f003","1C","auditory"
"54","silence.wav",0,"B",NA,"",NA,"None","da",1,"f003","1C","auditory"
"55","silence.wav",0,"B",NA,"",NA,"None","da",1,"f003","1C","auditory"
"56","silence.wav",0,"B",NA,"",NA,"None","da",1,"f003","1C","auditory"
"57","silence.wav",0,"B",NA,"",NA,"None","da",1,"f003","1C","auditory"
"58","silence.wav",0,"B",NA,"",NA,"None","da",1,"f003","1C","auditory"
"59","silence.wav",0,"B",NA,"",NA,"None","da",1,"f003","1C","auditory"
"60","silence.wav",0,"B",NA,"",NA,"None","da",1,"f003","1C","auditory"
"61","di.wav",49,"S",NA,"",NA,"None","da",1,"f003","1C","auditory"
"62","ba.wav",50,"S",NA,"",NA,"None","da",1,"f003","1C","auditory"
"63","pu.wav",51,"S",NA,"",NA,"None","da",1,"f003","1C","auditory"
"64","ta.wav",52,"S",NA,"",NA,"None","da",1,"f003","1C","auditory"
"65","ti.wav",53,"S",NA,"",NA,"None","da",1,"f003","1C","auditory"
"66","du.wav",54,"S",NA,"",NA,"None","da",1,"f003","1C","auditory"
"67","pi.wav",55,"S",NA,"",NA,"None","da",1,"f003","1C","auditory"
"68","tu.wav",56,"S",NA,"",NA,"None","da",1,"f003","1C","auditory"
"69","bi.wav",57,"S",NA,"",NA,"None","da",1,"f003","1C","auditory"
"70","bu.wav",58,"S",NA,"",NA,"None","da",1,"f003","1C","auditory"
"71","pa.wav",59,"S",NA,"",NA,"None","da",1,"f003","1C","auditory"
"72","da.wav",60,"S",NA,"",NA,"None","da",1,"f003","1C","auditory"
"73","di.wav",61,"S",NA,"",0.210181569215,"3","da",1,"f003","1C","auditory"
"74","ba.wav",62,"S",NA,"",NA,"None","da",1,"f003","1C","auditory"
"75","pu.wav",63,"S",NA,"",NA,"None","da",1,"f003","1C","auditory"
"76","bu.wav",64,"S",NA,"",NA,"None","da",1,"f003","1C","auditory"
"77","pa.wav",65,"S",NA,"",NA,"None","da",1,"f003","1C","auditory"
"78","da.wav",66,"S",NA,"",NA,"None","da",1,"f003","1C","auditory"
"79","pi.wav",67,"S",NA,"",0.325522588566,"3","da",1,"f003","1C","auditory"
"80","tu.wav",68,"S",NA,"",NA,"None","da",1,"f003","1C","auditory"
"81","bi.wav",69,"S",NA,"",NA,"None","da",1,"f003","1C","auditory"
"82","ta.wav",70,"S",NA,"",NA,"None","da",1,"f003","1C","auditory"
"83","ti.wav",71,"S",NA,"",NA,"None","da",1,"f003","1C","auditory"
"84","du.wav",72,"S",NA,"",NA,"None","da",1,"f003","1C","auditory"
"85","1A.wav",1,"R",NA,"None",NA,"","da",1,"f003","1C","auditory"
"86","1B.wav",2,"R",NA,"None",NA,"","da",1,"f003","1C","auditory"
"87","4A.wav",3,"R",NA,"None",NA,"","da",1,"f003","1C","auditory"
"88","1C.wav",4,"R",NA,"None",NA,"","da",1,"f003","1C","auditory"
"89","3C.wav",5,"R",0.325426445808,"3",NA,"","da",1,"f003","1C","auditory"
"90","2C.wav",6,"R",NA,"None",NA,"","da",1,"f003","1C","auditory"
"91","2A.wav",7,"R",NA,"None",NA,"","da",1,"f003","1C","auditory"
"92","3B.wav",8,"R",NA,"None",NA,"","da",1,"f003","1C","auditory"
"93","2B.wav",9,"R",NA,"None",NA,"","da",1,"f003","1C","auditory"
"94","1C.wav",10,"R",0.218416515738,"3",NA,"","da",1,"f003","1C","auditory"
"95","4C.wav",11,"R",NA,"None",NA,"","da",1,"f003","1C","auditory"
"96","3B.wav",12,"R",NA,"None",NA,"","da",1,"f003","1C","auditory"
"97","4B.wav",13,"R",NA,"None",NA,"","da",1,"f003","1C","auditory"
"98","3A.wav",14,"R",NA,"None",NA,"","da",1,"f003","1C","auditory"
"99","3C.wav",15,"R",NA,"None",NA,"","da",1,"f003","1C","auditory"
"100","3B.wav",16,"R",NA,"None",NA,"","da",1,"f003","1C","auditory"
"101","3A.wav",17,"R",NA,"None",NA,"","da",1,"f003","1C","auditory"
"102","4A.wav",18,"R",0.283705011941,"3",NA,"","da",1,"f003","1C","auditory"
"103","3A.wav",19,"R",NA,"None",NA,"","da",1,"f003","1C","auditory"
"104","4C.wav",20,"R",0.400390883442,"3",NA,"","da",1,"f003","1C","auditory"
"105","3C.wav",21,"R",NA,"None",NA,"","da",1,"f003","1C","auditory"
"106","4B.wav",22,"R",NA,"None",NA,"","da",1,"f003","1C","auditory"
"107","1A.wav",23,"R",NA,"None",NA,"","da",1,"f003","1C","auditory"
"108","1B.wav",24,"R",NA,"None",NA,"","da",1,"f003","1C","auditory"
"109","3B.wav",25,"R",NA,"None",NA,"","da",1,"f003","1C","auditory"
"110","4C.wav",26,"R",NA,"None",NA,"","da",1,"f003","1C","auditory"
"111","3B.wav",27,"R",NA,"None",NA,"","da",1,"f003","1C","auditory"
"112","2B.wav",28,"R",NA,"None",NA,"","da",1,"f003","1C","auditory"
"113","4A.wav",29,"R",NA,"None",NA,"","da",1,"f003","1C","auditory"
"114","1C.wav",30,"R",NA,"None",NA,"","da",1,"f003","1C","auditory"
"115","1A.wav",31,"R",0.425478584599,"3",NA,"","da",1,"f003","1C","auditory"
"116","4B.wav",32,"R",NA,"None",NA,"","da",1,"f003","1C","auditory"
"117","2A.wav",33,"R",NA,"None",NA,"","da",1,"f003","1C","auditory"
"118","2B.wav",34,"R",NA,"None",NA,"","da",1,"f003","1C","auditory"
"119","3C.wav",35,"R",0.225366627332,"3",NA,"","da",1,"f003","1C","auditory"
"120","2C.wav",36,"R",NA,"None",NA,"","da",1,"f003","1C","auditory"
"121","2A.wav",37,"R",NA,"None",NA,"","da",1,"f003","1C","auditory"
"122","1B.wav",38,"R",NA,"None",NA,"","da",1,"f003","1C","auditory"
"123","4C.wav",39,"R",NA,"None",NA,"","da",1,"f003","1C","auditory"
"124","3A.wav",40,"R",NA,"None",NA,"","da",1,"f003","1C","auditory"
"125","3C.wav",41,"R",0.100261489395,"3",NA,"","da",1,"f003","1C","auditory"
"126","3A.wav",42,"R",NA,"None",NA,"","da",1,"f003","1C","auditory"
"127","4A.wav",43,"R",0.300467597786,"3",NA,"","da",1,"f003","1C","auditory"
"128","2C.wav",44,"R",NA,"None",NA,"","da",1,"f003","1C","auditory"
"129","2C.wav",45,"R",NA,"None",NA,"","da",1,"f003","1C","auditory"
"130","2A.wav",46,"R",NA,"None",NA,"","da",1,"f003","1C","auditory"
"131","4B.wav",47,"R",NA,"None",NA,"","da",1,"f003","1C","auditory"
"132","2B.wav",48,"R",NA,"None",NA,"","da",1,"f003","1C","auditory"
"133","silence.wav",0,"B",0.142094994895,"3",NA,"","da",1,"f003","1C","auditory"
"134","silence.wav",0,"B",NA,"None",NA,"","da",1,"f003","1C","auditory"
"135","silence.wav",0,"B",NA,"None",NA,"","da",1,"f003","1C","auditory"
"136","silence.wav",0,"B",NA,"None",NA,"","da",1,"f003","1C","auditory"
"137","silence.wav",0,"B",NA,"None",NA,"","da",1,"f003","1C","auditory"
"138","silence.wav",0,"B",NA,"None",NA,"","da",1,"f003","1C","auditory"
"139","silence.wav",0,"B",NA,"None",NA,"","da",1,"f003","1C","auditory"
"140","silence.wav",0,"B",NA,"None",NA,"","da",1,"f003","1C","auditory"
"141","silence.wav",0,"B",NA,"None",NA,"","da",1,"f003","1C","auditory"
"142","silence.wav",0,"B",NA,"None",NA,"","da",1,"f003","1C","auditory"
"143","silence.wav",0,"B",NA,"None",NA,"","da",1,"f003","1C","auditory"
"144","silence.wav",0,"B",NA,"None",NA,"","da",1,"f003","1C","auditory"
"145","3C.wav",49,"R",NA,"None",NA,"","da",1,"f003","1C","auditory"
"146","1B.wav",50,"R",NA,"None",NA,"","da",1,"f003","1C","auditory"
"147","2B.wav",51,"R",NA,"None",NA,"","da",1,"f003","1C","auditory"
"148","2C.wav",52,"R",NA,"None",NA,"","da",1,"f003","1C","auditory"
"149","3B.wav",53,"R",NA,"None",NA,"","da",1,"f003","1C","auditory"
"150","3B.wav",54,"R",NA,"None",NA,"","da",1,"f003","1C","auditory"
"151","3A.wav",55,"R",NA,"None",NA,"","da",1,"f003","1C","auditory"
"152","1C.wav",56,"R",NA,"None",NA,"","da",1,"f003","1C","auditory"
"153","1C.wav",57,"R",NA,"None",NA,"","da",1,"f003","1C","auditory"
"154","4B.wav",58,"R",NA,"None",NA,"","da",1,"f003","1C","auditory"
"155","4C.wav",59,"R",NA,"None",NA,"","da",1,"f003","1C","auditory"
"156","1A.wav",60,"R",NA,"None",NA,"","da",1,"f003","1C","auditory"
"157","4B.wav",61,"R",0.367107773665,"3",NA,"","da",1,"f003","1C","auditory"
"158","4A.wav",62,"R",NA,"None",NA,"","da",1,"f003","1C","auditory"
"159","3C.wav",63,"R",NA,"None",NA,"","da",1,"f003","1C","auditory"
"160","2C.wav",64,"R",NA,"None",NA,"","da",1,"f003","1C","auditory"
"161","4A.wav",65,"R",NA,"None",NA,"","da",1,"f003","1C","auditory"
"162","1A.wav",66,"R",0.433729175478,"3",NA,"","da",1,"f003","1C","auditory"
"163","2B.wav",67,"R",NA,"None",NA,"","da",1,"f003","1C","auditory"
"164","2A.wav",68,"R",NA,"None",NA,"","da",1,"f003","1C","auditory"
"165","2A.wav",69,"R",NA,"None",NA,"","da",1,"f003","1C","auditory"
"166","4C.wav",70,"R",NA,"None",NA,"","da",1,"f003","1C","auditory"
"167","1B.wav",71,"R",NA,"None",NA,"","da",1,"f003","1C","auditory"
"168","3A.wav",72,"R",NA,"None",NA,"","da",1,"f003","1C","auditory"
"169","di.wav",73,"S",NA,"",NA,"None","da",1,"f003","1C","auditory"
"170","ba.wav",74,"S",NA,"",NA,"None","da",1,"f003","1C","auditory"
"171","pu.wav",75,"S",NA,"",NA,"None","da",1,"f003","1C","auditory"
"172","pi.wav",76,"S",NA,"",NA,"None","da",1,"f003","1C","auditory"
"173","tu.wav",77,"S",NA,"",NA,"None","da",1,"f003","1C","auditory"
"174","bi.wav",78,"S",NA,"",NA,"None","da",1,"f003","1C","auditory"
"175","bu.wav",79,"S",NA,"",NA,"None","da",1,"f003","1C","auditory"
"176","pa.wav",80,"S",NA,"",NA,"None","da",1,"f003","1C","auditory"
"177","da.wav",81,"S",NA,"",NA,"None","da",1,"f003","1C","auditory"
"178","ta.wav",82,"S",NA,"",0.192067303695,"3","da",1,"f003","1C","auditory"
"179","ti.wav",83,"S",NA,"",NA,"None","da",1,"f003","1C","auditory"
"180","du.wav",84,"S",NA,"",NA,"None","da",1,"f003","1C","auditory"
"181","di.wav",85,"S",NA,"",NA,"None","da",1,"f003","1C","auditory"
"182","ba.wav",86,"S",NA,"",NA,"None","da",1,"f003","1C","auditory"
"183","pu.wav",87,"S",NA,"",0.0920086228289,"3","da",1,"f003","1C","auditory"
"184","bu.wav",88,"S",NA,"",NA,"None","da",1,"f003","1C","auditory"
"185","pa.wav",89,"S",NA,"",NA,"None","da",1,"f003","1C","auditory"
"186","da.wav",90,"S",NA,"",NA,"None","da",1,"f003","1C","auditory"
"187","pi.wav",91,"S",NA,"",0.417181913741,"3","da",1,"f003","1C","auditory"
"188","tu.wav",92,"S",NA,"",NA,"None","da",1,"f003","1C","auditory"
"189","bi.wav",93,"S",NA,"",NA,"None","da",1,"f003","1C","auditory"
"190","ta.wav",94,"S",NA,"",NA,"None","da",1,"f003","1C","auditory"
"191","ti.wav",95,"S",NA,"",NA,"None","da",1,"f003","1C","auditory"
"192","du.wav",96,"S",NA,"",NA,"None","da",1,"f003","1C","auditory"
"193","silence.wav",0,"B",NA,"",NA,"None","da",1,"f003","1C","auditory"
"194","silence.wav",0,"B",NA,"",NA,"None","da",1,"f003","1C","auditory"
"195","silence.wav",0,"B",NA,"",NA,"None","da",1,"f003","1C","auditory"
"196","silence.wav",0,"B",NA,"",NA,"None","da",1,"f003","1C","auditory"
"197","silence.wav",0,"B",NA,"",NA,"None","da",1,"f003","1C","auditory"
"198","silence.wav",0,"B",NA,"",NA,"None","da",1,"f003","1C","auditory"
"199","silence.wav",0,"B",NA,"",NA,"None","da",1,"f003","1C","auditory"
"200","silence.wav",0,"B",NA,"",NA,"None","da",1,"f003","1C","auditory"
"201","silence.wav",0,"B",NA,"",NA,"None","da",1,"f003","1C","auditory"
"202","silence.wav",0,"B",NA,"",NA,"None","da",1,"f003","1C","auditory"
"203","silence.wav",0,"B",NA,"",NA,"None","da",1,"f003","1C","auditory"
"204","silence.wav",0,"B",NA,"",NA,"None","da",1,"f003","1C","auditory"
"205","pi.wav",97,"S",NA,"",NA,"None","da",1,"f003","1C","auditory"
"206","tu.wav",98,"S",NA,"",NA,"None","da",1,"f003","1C","auditory"
"207","bi.wav",99,"S",NA,"",NA,"None","da",1,"f003","1C","auditory"
"208","di.wav",100,"S",NA,"",NA,"None","da",1,"f003","1C","auditory"
"209","ba.wav",101,"S",NA,"",NA,"None","da",1,"f003","1C","auditory"
"210","pu.wav",102,"S",NA,"",NA,"None","da",1,"f003","1C","auditory"
"211","bu.wav",103,"S",NA,"",NA,"None","da",1,"f003","1C","auditory"
"212","pa.wav",104,"S",NA,"",NA,"None","da",1,"f003","1C","auditory"
"213","da.wav",105,"S",NA,"",NA,"None","da",1,"f003","1C","auditory"
"214","ta.wav",106,"S",NA,"",0.450356081594,"3","da",1,"f003","1C","auditory"
"215","ti.wav",107,"S",NA,"",NA,"None","da",1,"f003","1C","auditory"
"216","du.wav",108,"S",NA,"",NA,"None","da",1,"f003","1C","auditory"
"217","di.wav",109,"S",NA,"",NA,"None","da",1,"f003","1C","auditory"
"218","ba.wav",110,"S",NA,"",NA,"None","da",1,"f003","1C","auditory"
"219","pu.wav",111,"S",NA,"",NA,"None","da",1,"f003","1C","auditory"
"220","pi.wav",112,"S",NA,"",NA,"None","da",1,"f003","1C","auditory"
"221","tu.wav",113,"S",NA,"",NA,"None","da",1,"f003","1C","auditory"
"222","bi.wav",114,"S",NA,"",NA,"None","da",1,"f003","1C","auditory"
"223","ta.wav",115,"S",NA,"",NA,"None","da",1,"f003","1C","auditory"
"224","ti.wav",116,"S",NA,"",NA,"None","da",1,"f003","1C","auditory"
"225","du.wav",117,"S",NA,"",NA,"None","da",1,"f003","1C","auditory"
"226","bu.wav",118,"S",NA,"",0.3253789437,"3","da",1,"f003","1C","auditory"
"227","pa.wav",119,"S",NA,"",NA,"None","da",1,"f003","1C","auditory"
"228","da.wav",120,"S",NA,"",NA,"None","da",1,"f003","1C","auditory"
"229","2B.wav",73,"R",NA,"None",NA,"","da",1,"f003","1C","auditory"
"230","3C.wav",74,"R",NA,"None",NA,"","da",1,"f003","1C","auditory"
"231","1A.wav",75,"R",NA,"None",NA,"","da",1,"f003","1C","auditory"
"232","1C.wav",76,"R",NA,"None",NA,"","da",1,"f003","1C","auditory"
"233","2B.wav",77,"R",NA,"None",NA,"","da",1,"f003","1C","auditory"
"234","1C.wav",78,"R",0.242051844485,"3",NA,"","da",1,"f003","1C","auditory"
"235","3B.wav",79,"R",NA,"None",NA,"","da",1,"f003","1C","auditory"
"236","1B.wav",80,"R",NA,"None",NA,"","da",1,"f003","1C","auditory"
"237","3C.wav",81,"R",NA,"None",NA,"","da",1,"f003","1C","auditory"
"238","4C.wav",82,"R",NA,"None",NA,"","da",1,"f003","1C","auditory"
"239","2A.wav",83,"R",NA,"None",NA,"","da",1,"f003","1C","auditory"
"240","4B.wav",84,"R",NA,"None",NA,"","da",1,"f003","1C","auditory"
"241","4B.wav",85,"R",NA,"None",NA,"","da",1,"f003","1C","auditory"
"242","4C.wav",86,"R",NA,"None",NA,"","da",1,"f003","1C","auditory"
"243","2C.wav",87,"R",NA,"None",NA,"","da",1,"f003","1C","auditory"
"244","1B.wav",88,"R",NA,"None",NA,"","da",1,"f003","1C","auditory"
"245","3B.wav",89,"R",NA,"None",NA,"","da",1,"f003","1C","auditory"
"246","4A.wav",90,"R",NA,"None",NA,"","da",1,"f003","1C","auditory"
"247","2A.wav",91,"R",NA,"None",NA,"","da",1,"f003","1C","auditory"
"248","4A.wav",92,"R",NA,"None",NA,"","da",1,"f003","1C","auditory"
"249","3A.wav",93,"R",NA,"None",NA,"","da",1,"f003","1C","auditory"
"250","2C.wav",94,"R",NA,"None",NA,"","da",1,"f003","1C","auditory"
"251","3A.wav",95,"R",NA,"None",NA,"","da",1,"f003","1C","auditory"
"252","1A.wav",96,"R",0.392147687729,"3",NA,"","da",1,"f003","1C","auditory"
"253","2B.wav",97,"R",NA,"None",NA,"","da",1,"f003","1C","auditory"
"254","3C.wav",98,"R",NA,"None",NA,"","da",1,"f003","1C","auditory"
"255","4A.wav",99,"R",0.400379220955,"3",NA,"","da",1,"f003","1C","auditory"
"256","2B.wav",100,"R",NA,"None",NA,"","da",1,"f003","1C","auditory"
"257","4B.wav",101,"R",NA,"None",NA,"","da",1,"f003","1C","auditory"
"258","4A.wav",102,"R",0.150363505352,"3",NA,"","da",1,"f003","1C","auditory"
"259","2C.wav",103,"R",NA,"None",NA,"","da",1,"f003","1C","auditory"
"260","3B.wav",104,"R",NA,"None",NA,"","da",1,"f003","1C","auditory"
"261","2A.wav",105,"R",NA,"None",NA,"","da",1,"f003","1C","auditory"
"262","3A.wav",106,"R",NA,"None",NA,"","da",1,"f003","1C","auditory"
"263","2B.wav",107,"R",0.277303024195,"3",NA,"","da",1,"f003","1C","auditory"
"264","1C.wav",108,"R",NA,"None",NA,"","da",1,"f003","1C","auditory"
"265","2A.wav",109,"R",NA,"None",NA,"","da",1,"f003","1C","auditory"
"266","4C.wav",110,"R",NA,"None",NA,"","da",1,"f003","1C","auditory"
"267","2C.wav",111,"R",NA,"None",NA,"","da",1,"f003","1C","auditory"
"268","4C.wav",112,"R",NA,"None",NA,"","da",1,"f003","1C","auditory"
"269","1A.wav",113,"R",NA,"None",NA,"","da",1,"f003","1C","auditory"
"270","3B.wav",114,"R",0.2753784745,"3",NA,"","da",1,"f003","1C","auditory"
"271","2A.wav",115,"R",NA,"None",NA,"","da",1,"f003","1C","auditory"
"272","3A.wav",116,"R",NA,"None",NA,"","da",1,"f003","1C","auditory"
"273","2C.wav",117,"R",0.283806274179,"3",NA,"","da",1,"f003","1C","auditory"
"274","1B.wav",118,"R",NA,"None",NA,"","da",1,"f003","1C","auditory"
"275","4B.wav",119,"R",NA,"None",NA,"","da",1,"f003","1C","auditory"
"276","3C.wav",120,"R",NA,"None",NA,"","da",1,"f003","1C","auditory"
"277","silence.wav",0,"B",NA,"None",NA,"","da",1,"f003","1C","auditory"
"278","silence.wav",0,"B",0.0670247441158,"3",NA,"","da",1,"f003","1C","auditory"
"279","silence.wav",0,"B",NA,"None",NA,"","da",1,"f003","1C","auditory"
"280","silence.wav",0,"B",NA,"None",NA,"","da",1,"f003","1C","auditory"
"281","silence.wav",0,"B",NA,"None",NA,"","da",1,"f003","1C","auditory"
"282","silence.wav",0,"B",NA,"None",NA,"","da",1,"f003","1C","auditory"
"283","silence.wav",0,"B",NA,"None",NA,"","da",1,"f003","1C","auditory"
"284","silence.wav",0,"B",NA,"None",NA,"","da",1,"f003","1C","auditory"
"285","silence.wav",0,"B",NA,"None",NA,"","da",1,"f003","1C","auditory"
"286","silence.wav",0,"B",NA,"None",NA,"","da",1,"f003","1C","auditory"
"287","silence.wav",0,"B",NA,"None",NA,"","da",1,"f003","1C","auditory"
"288","silence.wav",0,"B",NA,"None",NA,"","da",1,"f003","1C","auditory"
"289","di.wav",121,"S",NA,"",NA,"None","da",1,"f003","1C","auditory"
"290","ba.wav",122,"S",NA,"",NA,"None","da",1,"f003","1C","auditory"
"291","pu.wav",123,"S",NA,"",NA,"None","da",1,"f003","1C","auditory"
"292","pi.wav",124,"S",NA,"",NA,"None","da",1,"f003","1C","auditory"
"293","tu.wav",125,"S",NA,"",NA,"None","da",1,"f003","1C","auditory"
"294","bi.wav",126,"S",NA,"",NA,"None","da",1,"f003","1C","auditory"
"295","di.wav",127,"S",NA,"",NA,"None","da",1,"f003","1C","auditory"
"296","ba.wav",128,"S",NA,"",NA,"None","da",1,"f003","1C","auditory"
"297","pu.wav",129,"S",NA,"",NA,"None","da",1,"f003","1C","auditory"
"298","bu.wav",130,"S",NA,"",NA,"None","da",1,"f003","1C","auditory"
"299","pa.wav",131,"S",NA,"",NA,"None","da",1,"f003","1C","auditory"
"300","da.wav",132,"S",NA,"",NA,"None","da",1,"f003","1C","auditory"
"301","ta.wav",133,"S",NA,"",0.342070703395,"3","da",1,"f003","1C","auditory"
"302","ti.wav",134,"S",NA,"",NA,"None","da",1,"f003","1C","auditory"
"303","du.wav",135,"S",NA,"",NA,"None","da",1,"f003","1C","auditory"
"304","bu.wav",136,"S",NA,"",NA,"None","da",1,"f003","1C","auditory"
"305","pa.wav",137,"S",NA,"",NA,"None","da",1,"f003","1C","auditory"
"306","da.wav",138,"S",NA,"",NA,"None","da",1,"f003","1C","auditory"
"307","ta.wav",139,"S",NA,"",0.283715820871,"3","da",1,"f003","1C","auditory"
"308","ti.wav",140,"S",NA,"",NA,"None","da",1,"f003","1C","auditory"
"309","du.wav",141,"S",NA,"",NA,"None","da",1,"f003","1C","auditory"
"310","di.wav",142,"S",NA,"",NA,"None","da",1,"f003","1C","auditory"
"311","ba.wav",143,"S",NA,"",NA,"None","da",1,"f003","1C","auditory"
"312","pu.wav",144,"S",NA,"",NA,"None","da",1,"f003","1C","auditory"
"313","pi.wav",145,"S",NA,"",NA,"None","da",1,"f003","1C","auditory"
"314","tu.wav",146,"S",NA,"",NA,"None","da",1,"f003","1C","auditory"
"315","bi.wav",147,"S",NA,"",NA,"None","da",1,"f003","1C","auditory"
"316","ta.wav",148,"S",NA,"",NA,"None","da",1,"f003","1C","auditory"
"317","ti.wav",149,"S",NA,"",NA,"None","da",1,"f003","1C","auditory"
"318","du.wav",150,"S",NA,"",NA,"None","da",1,"f003","1C","auditory"
"319","pi.wav",151,"S",NA,"",NA,"None","da",1,"f003","1C","auditory"
"320","tu.wav",152,"S",NA,"",NA,"None","da",1,"f003","1C","auditory"
"321","bi.wav",153,"S",NA,"",NA,"None","da",1,"f003","1C","auditory"
"322","bu.wav",154,"S",NA,"",NA,"None","da",1,"f003","1C","auditory"
"323","pa.wav",155,"S",NA,"",NA,"None","da",1,"f003","1C","auditory"
"324","da.wav",156,"S",NA,"",NA,"None","da",1,"f003","1C","auditory"
"325","di.wav",157,"S",NA,"",0.191996762063,"3","da",1,"f003","1C","auditory"
"326","ba.wav",158,"S",NA,"",NA,"None","da",1,"f003","1C","auditory"
"327","pu.wav",159,"S",NA,"",NA,"None","da",1,"f003","1C","auditory"
"328","pi.wav",160,"S",NA,"",NA,"None","da",1,"f003","1C","auditory"
"329","tu.wav",161,"S",NA,"",NA,"None","da",1,"f003","1C","auditory"
"330","bi.wav",162,"S",NA,"",NA,"None","da",1,"f003","1C","auditory"
"331","bu.wav",163,"S",NA,"",NA,"None","da",1,"f003","1C","auditory"
"332","pa.wav",164,"S",NA,"",NA,"None","da",1,"f003","1C","auditory"
"333","da.wav",165,"S",NA,"",NA,"None","da",1,"f003","1C","auditory"
"334","di.wav",166,"S",NA,"",NA,"None","da",1,"f003","1C","auditory"
"335","ba.wav",167,"S",NA,"",0.000314026605338,"3","da",1,"f003","1C","auditory"
"336","pu.wav",168,"S",NA,"",NA,"None","da",1,"f003","1C","auditory"
"337","silence.wav",0,"B",NA,"",NA,"None","da",1,"f003","1C","auditory"
"338","silence.wav",0,"B",NA,"",NA,"None","da",1,"f003","1C","auditory"
"339","silence.wav",0,"B",NA,"",NA,"None","da",1,"f003","1C","auditory"
"340","silence.wav",0,"B",NA,"",NA,"None","da",1,"f003","1C","auditory"
"341","silence.wav",0,"B",NA,"",NA,"None","da",1,"f003","1C","auditory"
"342","silence.wav",0,"B",NA,"",NA,"None","da",1,"f003","1C","auditory"
"343","silence.wav",0,"B",NA,"",NA,"None","da",1,"f003","1C","auditory"
"344","silence.wav",0,"B",NA,"",NA,"None","da",1,"f003","1C","auditory"
"345","silence.wav",0,"B",NA,"",NA,"None","da",1,"f003","1C","auditory"
"346","silence.wav",0,"B",NA,"",NA,"None","da",1,"f003","1C","auditory"
"347","silence.wav",0,"B",NA,"",NA,"None","da",1,"f003","1C","auditory"
"348","silence.wav",0,"B",NA,"",NA,"None","da",1,"f003","1C","auditory"
"349","ta.wav",169,"S",NA,"",NA,"None","da",1,"f003","1C","auditory"
"350","ti.wav",170,"S",NA,"",NA,"None","da",1,"f003","1C","auditory"
"351","du.wav",171,"S",NA,"",NA,"None","da",1,"f003","1C","auditory"
"352","di.wav",172,"S",NA,"",NA,"None","da",1,"f003","1C","auditory"
"353","ba.wav",173,"S",NA,"",NA,"None","da",1,"f003","1C","auditory"
"354","pu.wav",174,"S",NA,"",NA,"None","da",1,"f003","1C","auditory"
"355","pi.wav",175,"S",NA,"",NA,"None","da",1,"f003","1C","auditory"
"356","tu.wav",176,"S",NA,"",NA,"None","da",1,"f003","1C","auditory"
"357","bi.wav",177,"S",NA,"",NA,"None","da",1,"f003","1C","auditory"
"358","ta.wav",178,"S",NA,"",NA,"None","da",1,"f003","1C","auditory"
"359","ti.wav",179,"S",NA,"",NA,"None","da",1,"f003","1C","auditory"
"360","du.wav",180,"S",NA,"",NA,"None","da",1,"f003","1C","auditory"
"361","bu.wav",181,"S",NA,"",NA,"None","da",1,"f003","1C","auditory"
"362","pa.wav",182,"S",NA,"",NA,"None","da",1,"f003","1C","auditory"
"363","da.wav",183,"S",NA,"",NA,"None","da",1,"f003","1C","auditory"
"364","ta.wav",184,"S",NA,"",0.400369550101,"3","da",1,"f003","1C","auditory"
"365","ti.wav",185,"S",NA,"",NA,"None","da",1,"f003","1C","auditory"
"366","du.wav",186,"S",NA,"",NA,"None","da",1,"f003","1C","auditory"
"367","di.wav",187,"S",NA,"",NA,"None","da",1,"f003","1C","auditory"
"368","ba.wav",188,"S",NA,"",NA,"None","da",1,"f003","1C","auditory"
"369","pu.wav",189,"S",NA,"",NA,"None","da",1,"f003","1C","auditory"
"370","bu.wav",190,"S",NA,"",NA,"None","da",1,"f003","1C","auditory"
"371","pa.wav",191,"S",NA,"",NA,"None","da",1,"f003","1C","auditory"
"372","da.wav",192,"S",NA,"",NA,"None","da",1,"f003","1C","auditory"
"373","silence.wav",0,"B",NA,"",0.367095257621,"3","da",1,"f003","1C","auditory"
"374","silence.wav",0,"B",NA,"",NA,"None","da",1,"f003","1C","auditory"
"375","silence.wav",0,"B",NA,"",NA,"None","da",1,"f003","1C","auditory"
"376","silence.wav",0,"B",NA,"",NA,"None","da",1,"f003","1C","auditory"
"377","silence.wav",0,"B",NA,"",NA,"None","da",1,"f003","1C","auditory"
"378","silence.wav",0,"B",NA,"",NA,"None","da",1,"f003","1C","auditory"
"379","silence.wav",0,"B",NA,"",NA,"None","da",1,"f003","1C","auditory"
"380","silence.wav",0,"B",NA,"",NA,"None","da",1,"f003","1C","auditory"
"381","silence.wav",0,"B",NA,"",NA,"None","da",1,"f003","1C","auditory"
"382","silence.wav",0,"B",NA,"",NA,"None","da",1,"f003","1C","auditory"
"383","silence.wav",0,"B",NA,"",NA,"None","da",1,"f003","1C","auditory"
"384","silence.wav",0,"B",NA,"",NA,"None","da",1,"f003","1C","auditory"
"385","1B.wav",121,"R",NA,"None",NA,"","da",1,"f003","1C","auditory"
"386","3C.wav",122,"R",NA,"None",NA,"","da",1,"f003","1C","auditory"
"387","2B.wav",123,"R",NA,"None",NA,"","da",1,"f003","1C","auditory"
"388","4C.wav",124,"R",NA,"None",NA,"","da",1,"f003","1C","auditory"
"389","2A.wav",125,"R",0.016963403672,"3",NA,"","da",1,"f003","1C","auditory"
"390","1B.wav",126,"R",NA,"None",NA,"","da",1,"f003","1C","auditory"
"391","1A.wav",127,"R",NA,"None",NA,"","da",1,"f003","1C","auditory"
"392","4A.wav",128,"R",NA,"None",NA,"","da",1,"f003","1C","auditory"
"393","3A.wav",129,"R",NA,"None",NA,"","da",1,"f003","1C","auditory"
"394","1C.wav",130,"R",NA,"None",NA,"","da",1,"f003","1C","auditory"
"395","1C.wav",131,"R",0.100358485244,"3",NA,"","da",1,"f003","1C","auditory"
"396","4B.wav",132,"R",NA,"None",NA,"","da",1,"f003","1C","auditory"
"397","2B.wav",133,"R",NA,"None",NA,"","da",1,"f003","1C","auditory"
"398","2A.wav",134,"R",NA,"None",NA,"","da",1,"f003","1C","auditory"
"399","4C.wav",135,"R",0.175397731364,"3",NA,"","da",1,"f003","1C","auditory"
"400","1A.wav",136,"R",NA,"None",NA,"","da",1,"f003","1C","auditory"
"401","1A.wav",137,"R",NA,"None",NA,"","da",1,"f003","1C","auditory"
"402","3B.wav",138,"R",NA,"None",NA,"","da",1,"f003","1C","auditory"
"403","2C.wav",139,"R",NA,"None",NA,"","da",1,"f003","1C","auditory"
"404","4A.wav",140,"R",NA,"None",NA,"","da",1,"f003","1C","auditory"
"405","1B.wav",141,"R",NA,"None",NA,"","da",1,"f003","1C","auditory"
"406","1C.wav",142,"R",NA,"None",NA,"","da",1,"f003","1C","auditory"
"407","2C.wav",143,"R",NA,"None",NA,"","da",1,"f003","1C","auditory"
"408","4B.wav",144,"R",0.102343337145,"3",NA,"","da",1,"f003","1C","auditory"
"409","silence.wav",0,"B",NA,"None",NA,"","da",1,"f003","1C","auditory"
"410","silence.wav",0,"B",NA,"None",NA,"","da",1,"f003","1C","auditory"
"411","silence.wav",0,"B",NA,"None",NA,"","da",1,"f003","1C","auditory"
"412","silence.wav",0,"B",NA,"None",NA,"","da",1,"f003","1C","auditory"
"413","silence.wav",0,"B",NA,"None",NA,"","da",1,"f003","1C","auditory"
"414","silence.wav",0,"B",NA,"None",NA,"","da",1,"f003","1C","auditory"
"415","silence.wav",0,"B",NA,"None",NA,"","da",1,"f003","1C","auditory"
"416","silence.wav",0,"B",NA,"None",NA,"","da",1,"f003","1C","auditory"
"417","silence.wav",0,"B",NA,"None",NA,"","da",1,"f003","1C","auditory"
"418","silence.wav",0,"B",NA,"None",NA,"","da",1,"f003","1C","auditory"
"419","silence.wav",0,"B",NA,"None",NA,"","da",1,"f003","1C","auditory"
"420","silence.wav",0,"B",NA,"None",NA,"","da",1,"f003","1C","auditory"
"421","2A.wav",145,"R",NA,"None",NA,"","da",1,"f003","1C","auditory"
"422","3A.wav",146,"R",NA,"None",NA,"","da",1,"f003","1C","auditory"
"423","3B.wav",147,"R",NA,"None",NA,"","da",1,"f003","1C","auditory"
"424","2B.wav",148,"R",NA,"None",NA,"","da",1,"f003","1C","auditory"
"425","4C.wav",149,"R",0.333696947899,"3",NA,"","da",1,"f003","1C","auditory"
"426","2A.wav",150,"R",NA,"None",NA,"","da",1,"f003","1C","auditory"
"427","2C.wav",151,"R",NA,"None",NA,"","da",1,"f003","1C","auditory"
"428","1A.wav",152,"R",NA,"None",NA,"","da",1,"f003","1C","auditory"
"429","3C.wav",153,"R",NA,"None",NA,"","da",1,"f003","1C","auditory"
"430","1B.wav",154,"R",NA,"None",NA,"","da",1,"f003","1C","auditory"
"431","1A.wav",155,"R",NA,"None",NA,"","da",1,"f003","1C","auditory"
"432","1B.wav",156,"R",NA,"None",NA,"","da",1,"f003","1C","auditory"
"433","2C.wav",157,"R",NA,"None",NA,"","da",1,"f003","1C","auditory"
"434","3C.wav",158,"R",NA,"None",NA,"","da",1,"f003","1C","auditory"
"435","1C.wav",159,"R",NA,"None",NA,"","da",1,"f003","1C","auditory"
"436","3A.wav",160,"R",0.0252014794387,"3",NA,"","da",1,"f003","1C","auditory"
"437","4B.wav",161,"R",NA,"None",NA,"","da",1,"f003","1C","auditory"
"438","3B.wav",162,"R",NA,"None",NA,"","da",1,"f003","1C","auditory"
"439","3C.wav",163,"R",NA,"None",NA,"","da",1,"f003","1C","auditory"
"440","2B.wav",164,"R",NA,"None",NA,"","da",1,"f003","1C","auditory"
"441","1C.wav",165,"R",0.24200348882,"3",NA,"","da",1,"f003","1C","auditory"
"442","3B.wav",166,"R",NA,"None",NA,"","da",1,"f003","1C","auditory"
"443","3A.wav",167,"R",NA,"None",NA,"","da",1,"f003","1C","auditory"
"444","4A.wav",168,"R",0.433790900279,"3",NA,"","da",1,"f003","1C","auditory"
"445","2C.wav",169,"R",NA,"None",NA,"","da",1,"f003","1C","auditory"
"446","1A.wav",170,"R",NA,"None",NA,"","da",1,"f003","1C","auditory"
"447","2B.wav",171,"R",NA,"None",NA,"","da",1,"f003","1C","auditory"
"448","2C.wav",172,"R",0.300519935787,"3",NA,"","da",1,"f003","1C","auditory"
"449","4B.wav",173,"R",NA,"None",NA,"","da",1,"f003","1C","auditory"
"450","1C.wav",174,"R",NA,"None",NA,"","da",1,"f003","1C","auditory"
"451","1B.wav",175,"R",0.400478207506,"3",NA,"","da",1,"f003","1C","auditory"
"452","1B.wav",176,"R",NA,"None",NA,"","da",1,"f003","1C","auditory"
"453","4C.wav",177,"R",NA,"None",NA,"","da",1,"f003","1C","auditory"
"454","4A.wav",178,"R",NA,"None",NA,"","da",1,"f003","1C","auditory"
"455","4A.wav",179,"R",NA,"None",NA,"","da",1,"f003","1C","auditory"
"456","4C.wav",180,"R",0.275381887797,"3",NA,"","da",1,"f003","1C","auditory"
"457","4C.wav",181,"R",NA,"None",NA,"","da",1,"f003","1C","auditory"
"458","4B.wav",182,"R",NA,"None",NA,"","da",1,"f003","1C","auditory"
"459","4A.wav",183,"R",NA,"None",NA,"","da",1,"f003","1C","auditory"
"460","1C.wav",184,"R",NA,"None",NA,"","da",1,"f003","1C","auditory"
"461","3A.wav",185,"R",0.38375089271,"3",NA,"","da",1,"f003","1C","auditory"
"462","3C.wav",186,"R",NA,"None",NA,"","da",1,"f003","1C","auditory"
"463","4B.wav",187,"R",NA,"None",NA,"","da",1,"f003","1C","auditory"
"464","2B.wav",188,"R",NA,"None",NA,"","da",1,"f003","1C","auditory"
"465","2A.wav",189,"R",NA,"None",NA,"","da",1,"f003","1C","auditory"
"466","2A.wav",190,"R",NA,"None",NA,"","da",1,"f003","1C","auditory"
"467","3B.wav",191,"R",NA,"None",NA,"","da",1,"f003","1C","auditory"
"468","1A.wav",192,"R",NA,"None",NA,"","da",1,"f003","1C","auditory"
