"","soundFile","trialnum","condition","random_block_key_resp.rt","random_block_key_resp.keys","structured_block_key_resp.rt","structured_block_key_resp.keys","starget","Run","PartID","ttarget","expName"
"1","4A.wav",193,"R",NA,"None",NA,"","bi",2,"f004","2C","auditory"
"2","2B.wav",194,"R",NA,"None",NA,"","bi",2,"f004","2C","auditory"
"3","2C.wav",195,"R",NA,"None",NA,"","bi",2,"f004","2C","auditory"
"4","1C.wav",196,"R",0.111318108,"4",NA,"","bi",2,"f004","2C","auditory"
"5","3B.wav",197,"R",NA,"None",NA,"","bi",2,"f004","2C","auditory"
"6","4C.wav",198,"R",NA,"None",NA,"","bi",2,"f004","2C","auditory"
"7","2B.wav",199,"R",0.133659843,"4",NA,"","bi",2,"f004","2C","auditory"
"8","3A.wav",200,"R",NA,"None",NA,"","bi",2,"f004","2C","auditory"
"9","2A.wav",201,"R",NA,"None",NA,"","bi",2,"f004","2C","auditory"
"10","2C.wav",202,"R",0.300414646,"4",NA,"","bi",2,"f004","2C","auditory"
"11","3A.wav",203,"R",NA,"None",NA,"","bi",2,"f004","2C","auditory"
"12","1B.wav",204,"R",NA,"None",NA,"","bi",2,"f004","2C","auditory"
"13","3C.wav",205,"R",NA,"None",NA,"","bi",2,"f004","2C","auditory"
"14","1C.wav",206,"R",NA,"None",NA,"","bi",2,"f004","2C","auditory"
"15","1A.wav",207,"R",NA,"None",NA,"","bi",2,"f004","2C","auditory"
"16","3B.wav",208,"R",NA,"None",NA,"","bi",2,"f004","2C","auditory"
"17","4B.wav",209,"R",NA,"None",NA,"","bi",2,"f004","2C","auditory"
"18","1B.wav",210,"R",0.15006681,"4",NA,"","bi",2,"f004","2C","auditory"
"19","4A.wav",211,"R",NA,"None",NA,"","bi",2,"f004","2C","auditory"
"20","4C.wav",212,"R",NA,"None",NA,"","bi",2,"f004","2C","auditory"
"21","2A.wav",213,"R",0.166801983,"4",NA,"","bi",2,"f004","2C","auditory"
"22","1A.wav",214,"R",NA,"None",NA,"","bi",2,"f004","2C","auditory"
"23","4B.wav",215,"R",NA,"None",NA,"","bi",2,"f004","2C","auditory"
"24","3C.wav",216,"R",0.100371241,"4",NA,"","bi",2,"f004","2C","auditory"
"25","2C.wav",217,"R",NA,"None",NA,"","bi",2,"f004","2C","auditory"
"26","1C.wav",218,"R",0.350418318,"4",NA,"","bi",2,"f004","2C","auditory"
"27","3A.wav",219,"R",NA,"None",NA,"","bi",2,"f004","2C","auditory"
"28","3B.wav",220,"R",NA,"None",NA,"","bi",2,"f004","2C","auditory"
"29","3C.wav",221,"R",0.150390092,"4",NA,"","bi",2,"f004","2C","auditory"
"30","1A.wav",222,"R",NA,"None",NA,"","bi",2,"f004","2C","auditory"
"31","3B.wav",223,"R",NA,"None",NA,"","bi",2,"f004","2C","auditory"
"32","4A.wav",224,"R",NA,"None",NA,"","bi",2,"f004","2C","auditory"
"33","4C.wav",225,"R",NA,"None",NA,"","bi",2,"f004","2C","auditory"
"34","1B.wav",226,"R",NA,"None",NA,"","bi",2,"f004","2C","auditory"
"35","3A.wav",227,"R",NA,"None",NA,"","bi",2,"f004","2C","auditory"
"36","4C.wav",228,"R",NA,"None",NA,"","bi",2,"f004","2C","auditory"
"37","2C.wav",229,"R",NA,"None",NA,"","bi",2,"f004","2C","auditory"
"38","4B.wav",230,"R",NA,"None",NA,"","bi",2,"f004","2C","auditory"
"39","3C.wav",231,"R",NA,"None",NA,"","bi",2,"f004","2C","auditory"
"40","1A.wav",232,"R",NA,"None",NA,"","bi",2,"f004","2C","auditory"
"41","2A.wav",233,"R",NA,"None",NA,"","bi",2,"f004","2C","auditory"
"42","2A.wav",234,"R",0.00043282,"4",NA,"","bi",2,"f004","2C","auditory"
"43","4B.wav",235,"R",NA,"None",NA,"","bi",2,"f004","2C","auditory"
"44","4A.wav",236,"R",0.084129606,"4",NA,"","bi",2,"f004","2C","auditory"
"45","1B.wav",237,"R",NA,"None",NA,"","bi",2,"f004","2C","auditory"
"46","1C.wav",238,"R",0.294070443,"4",NA,"","bi",2,"f004","2C","auditory"
"47","2B.wav",239,"R",NA,"None",NA,"","bi",2,"f004","2C","auditory"
"48","2B.wav",240,"R",NA,"None",NA,"","bi",2,"f004","2C","auditory"
"49","pi.wav",193,"S",NA,"",0.064982538,"4","bi",2,"f004","2C","auditory"
"50","tu.wav",194,"S",NA,"",NA,"None","bi",2,"f004","2C","auditory"
"51","bi.wav",195,"S",NA,"",NA,"None","bi",2,"f004","2C","auditory"
"52","bu.wav",196,"S",NA,"",0.117275029,"4","bi",2,"f004","2C","auditory"
"53","pa.wav",197,"S",NA,"",NA,"None","bi",2,"f004","2C","auditory"
"54","da.wav",198,"S",NA,"",NA,"None","bi",2,"f004","2C","auditory"
"55","di.wav",199,"S",NA,"",NA,"None","bi",2,"f004","2C","auditory"
"56","ba.wav",200,"S",NA,"",NA,"None","bi",2,"f004","2C","auditory"
"57","pu.wav",201,"S",NA,"",NA,"None","bi",2,"f004","2C","auditory"
"58","ta.wav",202,"S",NA,"",NA,"None","bi",2,"f004","2C","auditory"
"59","ti.wav",203,"S",NA,"",NA,"None","bi",2,"f004","2C","auditory"
"60","du.wav",204,"S",NA,"",NA,"None","bi",2,"f004","2C","auditory"
"61","bu.wav",205,"S",NA,"",NA,"None","bi",2,"f004","2C","auditory"
"62","pa.wav",206,"S",NA,"",NA,"None","bi",2,"f004","2C","auditory"
"63","da.wav",207,"S",NA,"",NA,"None","bi",2,"f004","2C","auditory"
"64","pi.wav",208,"S",NA,"",NA,"None","bi",2,"f004","2C","auditory"
"65","tu.wav",209,"S",NA,"",NA,"None","bi",2,"f004","2C","auditory"
"66","bi.wav",210,"S",NA,"",NA,"None","bi",2,"f004","2C","auditory"
"67","di.wav",211,"S",NA,"",0.200433559,"4","bi",2,"f004","2C","auditory"
"68","ba.wav",212,"S",NA,"",NA,"None","bi",2,"f004","2C","auditory"
"69","pu.wav",213,"S",NA,"",NA,"None","bi",2,"f004","2C","auditory"
"70","ta.wav",214,"S",NA,"",NA,"None","bi",2,"f004","2C","auditory"
"71","ti.wav",215,"S",NA,"",NA,"None","bi",2,"f004","2C","auditory"
"72","du.wav",216,"S",NA,"",NA,"None","bi",2,"f004","2C","auditory"
"73","pi.wav",217,"S",NA,"",NA,"None","bi",2,"f004","2C","auditory"
"74","tu.wav",218,"S",NA,"",NA,"None","bi",2,"f004","2C","auditory"
"75","bi.wav",219,"S",NA,"",NA,"None","bi",2,"f004","2C","auditory"
"76","ta.wav",220,"S",NA,"",0.150684246,"4","bi",2,"f004","2C","auditory"
"77","ti.wav",221,"S",NA,"",NA,"None","bi",2,"f004","2C","auditory"
"78","du.wav",222,"S",NA,"",NA,"None","bi",2,"f004","2C","auditory"
"79","bu.wav",223,"S",NA,"",NA,"None","bi",2,"f004","2C","auditory"
"80","pa.wav",224,"S",NA,"",NA,"None","bi",2,"f004","2C","auditory"
"81","da.wav",225,"S",NA,"",NA,"None","bi",2,"f004","2C","auditory"
"82","di.wav",226,"S",NA,"",NA,"None","bi",2,"f004","2C","auditory"
"83","ba.wav",227,"S",NA,"",NA,"None","bi",2,"f004","2C","auditory"
"84","pu.wav",228,"S",NA,"",NA,"None","bi",2,"f004","2C","auditory"
"85","bu.wav",229,"S",NA,"",NA,"None","bi",2,"f004","2C","auditory"
"86","pa.wav",230,"S",NA,"",NA,"None","bi",2,"f004","2C","auditory"
"87","da.wav",231,"S",NA,"",NA,"None","bi",2,"f004","2C","auditory"
"88","ta.wav",232,"S",NA,"",NA,"None","bi",2,"f004","2C","auditory"
"89","ti.wav",233,"S",NA,"",NA,"None","bi",2,"f004","2C","auditory"
"90","du.wav",234,"S",NA,"",NA,"None","bi",2,"f004","2C","auditory"
"91","pi.wav",235,"S",NA,"",NA,"None","bi",2,"f004","2C","auditory"
"92","tu.wav",236,"S",NA,"",NA,"None","bi",2,"f004","2C","auditory"
"93","bi.wav",237,"S",NA,"",NA,"None","bi",2,"f004","2C","auditory"
"94","di.wav",238,"S",NA,"",0.23405693,"4","bi",2,"f004","2C","auditory"
"95","ba.wav",239,"S",NA,"",NA,"None","bi",2,"f004","2C","auditory"
"96","pu.wav",240,"S",NA,"",NA,"None","bi",2,"f004","2C","auditory"
"97","silence.wav",0,"B",NA,"",NA,"None","bi",2,"f004","2C","auditory"
"98","silence.wav",0,"B",NA,"",NA,"None","bi",2,"f004","2C","auditory"
"99","silence.wav",0,"B",NA,"",NA,"None","bi",2,"f004","2C","auditory"
"100","silence.wav",0,"B",NA,"",NA,"None","bi",2,"f004","2C","auditory"
"101","silence.wav",0,"B",NA,"",NA,"None","bi",2,"f004","2C","auditory"
"102","silence.wav",0,"B",NA,"",NA,"None","bi",2,"f004","2C","auditory"
"103","silence.wav",0,"B",NA,"",NA,"None","bi",2,"f004","2C","auditory"
"104","silence.wav",0,"B",NA,"",NA,"None","bi",2,"f004","2C","auditory"
"105","silence.wav",0,"B",NA,"",NA,"None","bi",2,"f004","2C","auditory"
"106","silence.wav",0,"B",NA,"",NA,"None","bi",2,"f004","2C","auditory"
"107","silence.wav",0,"B",NA,"",NA,"None","bi",2,"f004","2C","auditory"
"108","silence.wav",0,"B",NA,"",NA,"None","bi",2,"f004","2C","auditory"
"109","4C.wav",241,"R",NA,"None",NA,"","bi",2,"f004","2C","auditory"
"110","3C.wav",242,"R",NA,"None",NA,"","bi",2,"f004","2C","auditory"
"111","3B.wav",243,"R",NA,"None",NA,"","bi",2,"f004","2C","auditory"
"112","4B.wav",244,"R",NA,"None",NA,"","bi",2,"f004","2C","auditory"
"113","2C.wav",245,"R",0.080438941,"4",NA,"","bi",2,"f004","2C","auditory"
"114","2B.wav",246,"R",NA,"None",NA,"","bi",2,"f004","2C","auditory"
"115","1C.wav",247,"R",NA,"None",NA,"","bi",2,"f004","2C","auditory"
"116","1A.wav",248,"R",NA,"None",NA,"","bi",2,"f004","2C","auditory"
"117","4C.wav",249,"R",NA,"None",NA,"","bi",2,"f004","2C","auditory"
"118","3C.wav",250,"R",NA,"None",NA,"","bi",2,"f004","2C","auditory"
"119","4B.wav",251,"R",0.018178044,"4",NA,"","bi",2,"f004","2C","auditory"
"120","3A.wav",252,"R",NA,"None",NA,"","bi",2,"f004","2C","auditory"
"121","2C.wav",253,"R",NA,"None",NA,"","bi",2,"f004","2C","auditory"
"122","2C.wav",254,"R",NA,"None",NA,"","bi",2,"f004","2C","auditory"
"123","3B.wav",255,"R",NA,"None",NA,"","bi",2,"f004","2C","auditory"
"124","2A.wav",256,"R",NA,"None",NA,"","bi",2,"f004","2C","auditory"
"125","1B.wav",257,"R",NA,"None",NA,"","bi",2,"f004","2C","auditory"
"126","3A.wav",258,"R",NA,"None",NA,"","bi",2,"f004","2C","auditory"
"127","2A.wav",259,"R",NA,"None",NA,"","bi",2,"f004","2C","auditory"
"128","4A.wav",260,"R",NA,"None",NA,"","bi",2,"f004","2C","auditory"
"129","2A.wav",261,"R",NA,"None",NA,"","bi",2,"f004","2C","auditory"
"130","2B.wav",262,"R",NA,"None",NA,"","bi",2,"f004","2C","auditory"
"131","4A.wav",263,"R",0.316714537,"4",NA,"","bi",2,"f004","2C","auditory"
"132","2B.wav",264,"R",NA,"None",NA,"","bi",2,"f004","2C","auditory"
"133","3C.wav",265,"R",0.194337151,"4",NA,"","bi",2,"f004","2C","auditory"
"134","1A.wav",266,"R",NA,"None",NA,"","bi",2,"f004","2C","auditory"
"135","4C.wav",267,"R",NA,"None",NA,"","bi",2,"f004","2C","auditory"
"136","4B.wav",268,"R",NA,"None",NA,"","bi",2,"f004","2C","auditory"
"137","1A.wav",269,"R",NA,"None",NA,"","bi",2,"f004","2C","auditory"
"138","3B.wav",270,"R",NA,"None",NA,"","bi",2,"f004","2C","auditory"
"139","2B.wav",271,"R",NA,"None",NA,"","bi",2,"f004","2C","auditory"
"140","1C.wav",272,"R",0.394405172,"4",NA,"","bi",2,"f004","2C","auditory"
"141","3C.wav",273,"R",NA,"None",NA,"","bi",2,"f004","2C","auditory"
"142","2C.wav",274,"R",NA,"None",NA,"","bi",2,"f004","2C","auditory"
"143","4B.wav",275,"R",NA,"None",NA,"","bi",2,"f004","2C","auditory"
"144","1B.wav",276,"R",NA,"None",NA,"","bi",2,"f004","2C","auditory"
"145","4C.wav",277,"R",NA,"None",NA,"","bi",2,"f004","2C","auditory"
"146","4A.wav",278,"R",NA,"None",NA,"","bi",2,"f004","2C","auditory"
"147","1C.wav",279,"R",0.367195747,"4",NA,"","bi",2,"f004","2C","auditory"
"148","1B.wav",280,"R",NA,"None",NA,"","bi",2,"f004","2C","auditory"
"149","1C.wav",281,"R",0.250698974,"4",NA,"","bi",2,"f004","2C","auditory"
"150","4A.wav",282,"R",NA,"None",NA,"","bi",2,"f004","2C","auditory"
"151","1A.wav",283,"R",NA,"None",NA,"","bi",2,"f004","2C","auditory"
"152","2A.wav",284,"R",NA,"None",NA,"","bi",2,"f004","2C","auditory"
"153","3B.wav",285,"R",NA,"None",NA,"","bi",2,"f004","2C","auditory"
"154","3A.wav",286,"R",NA,"None",NA,"","bi",2,"f004","2C","auditory"
"155","3A.wav",287,"R",0.350560266,"4",NA,"","bi",2,"f004","2C","auditory"
"156","1B.wav",288,"R",NA,"None",NA,"","bi",2,"f004","2C","auditory"
"157","silence.wav",0,"B",NA,"None",NA,"","bi",2,"f004","2C","auditory"
"158","silence.wav",0,"B",NA,"None",NA,"","bi",2,"f004","2C","auditory"
"159","silence.wav",0,"B",NA,"None",NA,"","bi",2,"f004","2C","auditory"
"160","silence.wav",0,"B",NA,"None",NA,"","bi",2,"f004","2C","auditory"
"161","silence.wav",0,"B",NA,"None",NA,"","bi",2,"f004","2C","auditory"
"162","silence.wav",0,"B",NA,"None",NA,"","bi",2,"f004","2C","auditory"
"163","silence.wav",0,"B",NA,"None",NA,"","bi",2,"f004","2C","auditory"
"164","silence.wav",0,"B",NA,"None",NA,"","bi",2,"f004","2C","auditory"
"165","silence.wav",0,"B",NA,"None",NA,"","bi",2,"f004","2C","auditory"
"166","silence.wav",0,"B",NA,"None",NA,"","bi",2,"f004","2C","auditory"
"167","silence.wav",0,"B",NA,"None",NA,"","bi",2,"f004","2C","auditory"
"168","silence.wav",0,"B",NA,"None",NA,"","bi",2,"f004","2C","auditory"
"169","3B.wav",289,"R",NA,"None",NA,"","bi",2,"f004","2C","auditory"
"170","1B.wav",290,"R",0.25967497,"4",NA,"","bi",2,"f004","2C","auditory"
"171","1C.wav",291,"R",NA,"None",NA,"","bi",2,"f004","2C","auditory"
"172","4C.wav",292,"R",NA,"None",NA,"","bi",2,"f004","2C","auditory"
"173","2A.wav",293,"R",NA,"None",NA,"","bi",2,"f004","2C","auditory"
"174","1B.wav",294,"R",NA,"None",NA,"","bi",2,"f004","2C","auditory"
"175","4A.wav",295,"R",NA,"None",NA,"","bi",2,"f004","2C","auditory"
"176","1A.wav",296,"R",0.11040816,"4",NA,"","bi",2,"f004","2C","auditory"
"177","3C.wav",297,"R",NA,"None",NA,"","bi",2,"f004","2C","auditory"
"178","3A.wav",298,"R",NA,"None",NA,"","bi",2,"f004","2C","auditory"
"179","3C.wav",299,"R",NA,"None",NA,"","bi",2,"f004","2C","auditory"
"180","4A.wav",300,"R",NA,"None",NA,"","bi",2,"f004","2C","auditory"
"181","3C.wav",301,"R",NA,"None",NA,"","bi",2,"f004","2C","auditory"
"182","2C.wav",302,"R",NA,"None",NA,"","bi",2,"f004","2C","auditory"
"183","3A.wav",303,"R",NA,"None",NA,"","bi",2,"f004","2C","auditory"
"184","3A.wav",304,"R",NA,"None",NA,"","bi",2,"f004","2C","auditory"
"185","2B.wav",305,"R",NA,"None",NA,"","bi",2,"f004","2C","auditory"
"186","4C.wav",306,"R",NA,"None",NA,"","bi",2,"f004","2C","auditory"
"187","1A.wav",307,"R",NA,"None",NA,"","bi",2,"f004","2C","auditory"
"188","3B.wav",308,"R",NA,"None",NA,"","bi",2,"f004","2C","auditory"
"189","4B.wav",309,"R",NA,"None",NA,"","bi",2,"f004","2C","auditory"
"190","1C.wav",310,"R",NA,"None",NA,"","bi",2,"f004","2C","auditory"
"191","3B.wav",311,"R",NA,"None",NA,"","bi",2,"f004","2C","auditory"
"192","4B.wav",312,"R",0.150532451,"4",NA,"","bi",2,"f004","2C","auditory"
"193","silence.wav",0,"B",NA,"None",NA,"","bi",2,"f004","2C","auditory"
"194","silence.wav",0,"B",NA,"None",NA,"","bi",2,"f004","2C","auditory"
"195","silence.wav",0,"B",NA,"None",NA,"","bi",2,"f004","2C","auditory"
"196","silence.wav",0,"B",NA,"None",NA,"","bi",2,"f004","2C","auditory"
"197","silence.wav",0,"B",NA,"None",NA,"","bi",2,"f004","2C","auditory"
"198","silence.wav",0,"B",NA,"None",NA,"","bi",2,"f004","2C","auditory"
"199","silence.wav",0,"B",NA,"None",NA,"","bi",2,"f004","2C","auditory"
"200","silence.wav",0,"B",NA,"None",NA,"","bi",2,"f004","2C","auditory"
"201","silence.wav",0,"B",NA,"None",NA,"","bi",2,"f004","2C","auditory"
"202","silence.wav",0,"B",NA,"None",NA,"","bi",2,"f004","2C","auditory"
"203","silence.wav",0,"B",NA,"None",NA,"","bi",2,"f004","2C","auditory"
"204","silence.wav",0,"B",NA,"None",NA,"","bi",2,"f004","2C","auditory"
"205","bu.wav",241,"S",NA,"",NA,"None","bi",2,"f004","2C","auditory"
"206","pa.wav",242,"S",NA,"",NA,"None","bi",2,"f004","2C","auditory"
"207","da.wav",243,"S",NA,"",NA,"None","bi",2,"f004","2C","auditory"
"208","pi.wav",244,"S",NA,"",NA,"None","bi",2,"f004","2C","auditory"
"209","tu.wav",245,"S",NA,"",NA,"None","bi",2,"f004","2C","auditory"
"210","bi.wav",246,"S",NA,"",NA,"None","bi",2,"f004","2C","auditory"
"211","ta.wav",247,"S",NA,"",NA,"None","bi",2,"f004","2C","auditory"
"212","ti.wav",248,"S",NA,"",NA,"None","bi",2,"f004","2C","auditory"
"213","du.wav",249,"S",NA,"",NA,"None","bi",2,"f004","2C","auditory"
"214","bu.wav",250,"S",NA,"",NA,"None","bi",2,"f004","2C","auditory"
"215","pa.wav",251,"S",NA,"",NA,"None","bi",2,"f004","2C","auditory"
"216","da.wav",252,"S",NA,"",NA,"None","bi",2,"f004","2C","auditory"
"217","pi.wav",253,"S",NA,"",NA,"None","bi",2,"f004","2C","auditory"
"218","tu.wav",254,"S",NA,"",0.202038071,"4","bi",2,"f004","2C","auditory"
"219","bi.wav",255,"S",NA,"",NA,"None","bi",2,"f004","2C","auditory"
"220","ta.wav",256,"S",NA,"",0.450045764,"4","bi",2,"f004","2C","auditory"
"221","ti.wav",257,"S",NA,"",NA,"None","bi",2,"f004","2C","auditory"
"222","du.wav",258,"S",NA,"",NA,"None","bi",2,"f004","2C","auditory"
"223","di.wav",259,"S",NA,"",NA,"None","bi",2,"f004","2C","auditory"
"224","ba.wav",260,"S",NA,"",NA,"None","bi",2,"f004","2C","auditory"
"225","pu.wav",261,"S",NA,"",NA,"None","bi",2,"f004","2C","auditory"
"226","bu.wav",262,"S",NA,"",NA,"None","bi",2,"f004","2C","auditory"
"227","pa.wav",263,"S",NA,"",NA,"None","bi",2,"f004","2C","auditory"
"228","da.wav",264,"S",NA,"",NA,"None","bi",2,"f004","2C","auditory"
"229","silence.wav",0,"B",NA,"",NA,"None","bi",2,"f004","2C","auditory"
"230","silence.wav",0,"B",NA,"",NA,"None","bi",2,"f004","2C","auditory"
"231","silence.wav",0,"B",NA,"",NA,"None","bi",2,"f004","2C","auditory"
"232","silence.wav",0,"B",NA,"",NA,"None","bi",2,"f004","2C","auditory"
"233","silence.wav",0,"B",NA,"",NA,"None","bi",2,"f004","2C","auditory"
"234","silence.wav",0,"B",NA,"",NA,"None","bi",2,"f004","2C","auditory"
"235","silence.wav",0,"B",NA,"",NA,"None","bi",2,"f004","2C","auditory"
"236","silence.wav",0,"B",NA,"",NA,"None","bi",2,"f004","2C","auditory"
"237","silence.wav",0,"B",NA,"",NA,"None","bi",2,"f004","2C","auditory"
"238","silence.wav",0,"B",NA,"",NA,"None","bi",2,"f004","2C","auditory"
"239","silence.wav",0,"B",NA,"",NA,"None","bi",2,"f004","2C","auditory"
"240","silence.wav",0,"B",NA,"",NA,"None","bi",2,"f004","2C","auditory"
"241","di.wav",265,"S",NA,"",NA,"None","bi",2,"f004","2C","auditory"
"242","ba.wav",266,"S",NA,"",NA,"None","bi",2,"f004","2C","auditory"
"243","pu.wav",267,"S",NA,"",NA,"None","bi",2,"f004","2C","auditory"
"244","ta.wav",268,"S",NA,"",NA,"None","bi",2,"f004","2C","auditory"
"245","ti.wav",269,"S",NA,"",NA,"None","bi",2,"f004","2C","auditory"
"246","du.wav",270,"S",NA,"",NA,"None","bi",2,"f004","2C","auditory"
"247","pi.wav",271,"S",NA,"",NA,"None","bi",2,"f004","2C","auditory"
"248","tu.wav",272,"S",NA,"",0.179908439,"4","bi",2,"f004","2C","auditory"
"249","bi.wav",273,"S",NA,"",NA,"None","bi",2,"f004","2C","auditory"
"250","di.wav",274,"S",NA,"",NA,"None","bi",2,"f004","2C","auditory"
"251","ba.wav",275,"S",NA,"",0.000392205,"4","bi",2,"f004","2C","auditory"
"252","pu.wav",276,"S",NA,"",NA,"None","bi",2,"f004","2C","auditory"
"253","ta.wav",277,"S",NA,"",NA,"None","bi",2,"f004","2C","auditory"
"254","ti.wav",278,"S",NA,"",NA,"None","bi",2,"f004","2C","auditory"
"255","du.wav",279,"S",NA,"",NA,"None","bi",2,"f004","2C","auditory"
"256","bu.wav",280,"S",NA,"",NA,"None","bi",2,"f004","2C","auditory"
"257","pa.wav",281,"S",NA,"",NA,"None","bi",2,"f004","2C","auditory"
"258","da.wav",282,"S",NA,"",NA,"None","bi",2,"f004","2C","auditory"
"259","pi.wav",283,"S",NA,"",NA,"None","bi",2,"f004","2C","auditory"
"260","tu.wav",284,"S",NA,"",NA,"None","bi",2,"f004","2C","auditory"
"261","bi.wav",285,"S",NA,"",NA,"None","bi",2,"f004","2C","auditory"
"262","di.wav",286,"S",NA,"",0.216948014,"4","bi",2,"f004","2C","auditory"
"263","ba.wav",287,"S",NA,"",NA,"None","bi",2,"f004","2C","auditory"
"264","pu.wav",288,"S",NA,"",NA,"None","bi",2,"f004","2C","auditory"
"265","silence.wav",0,"B",NA,"",NA,"None","bi",2,"f004","2C","auditory"
"266","silence.wav",0,"B",NA,"",NA,"None","bi",2,"f004","2C","auditory"
"267","silence.wav",0,"B",NA,"",NA,"None","bi",2,"f004","2C","auditory"
"268","silence.wav",0,"B",NA,"",NA,"None","bi",2,"f004","2C","auditory"
"269","silence.wav",0,"B",NA,"",NA,"None","bi",2,"f004","2C","auditory"
"270","silence.wav",0,"B",NA,"",NA,"None","bi",2,"f004","2C","auditory"
"271","silence.wav",0,"B",NA,"",NA,"None","bi",2,"f004","2C","auditory"
"272","silence.wav",0,"B",NA,"",NA,"None","bi",2,"f004","2C","auditory"
"273","silence.wav",0,"B",NA,"",NA,"None","bi",2,"f004","2C","auditory"
"274","silence.wav",0,"B",NA,"",NA,"None","bi",2,"f004","2C","auditory"
"275","silence.wav",0,"B",NA,"",NA,"None","bi",2,"f004","2C","auditory"
"276","silence.wav",0,"B",NA,"",NA,"None","bi",2,"f004","2C","auditory"
"277","pi.wav",289,"S",NA,"",NA,"None","bi",2,"f004","2C","auditory"
"278","tu.wav",290,"S",NA,"",NA,"None","bi",2,"f004","2C","auditory"
"279","bi.wav",291,"S",NA,"",NA,"None","bi",2,"f004","2C","auditory"
"280","di.wav",292,"S",NA,"",0.226206676,"4","bi",2,"f004","2C","auditory"
"281","ba.wav",293,"S",NA,"",NA,"None","bi",2,"f004","2C","auditory"
"282","pu.wav",294,"S",NA,"",NA,"None","bi",2,"f004","2C","auditory"
"283","ta.wav",295,"S",NA,"",NA,"None","bi",2,"f004","2C","auditory"
"284","ti.wav",296,"S",NA,"",NA,"None","bi",2,"f004","2C","auditory"
"285","du.wav",297,"S",NA,"",NA,"None","bi",2,"f004","2C","auditory"
"286","pi.wav",298,"S",NA,"",NA,"None","bi",2,"f004","2C","auditory"
"287","tu.wav",299,"S",NA,"",NA,"None","bi",2,"f004","2C","auditory"
"288","bi.wav",300,"S",NA,"",NA,"None","bi",2,"f004","2C","auditory"
"289","bu.wav",301,"S",NA,"",0.13588138,"4","bi",2,"f004","2C","auditory"
"290","pa.wav",302,"S",NA,"",NA,"None","bi",2,"f004","2C","auditory"
"291","da.wav",303,"S",NA,"",NA,"None","bi",2,"f004","2C","auditory"
"292","di.wav",304,"S",NA,"",NA,"None","bi",2,"f004","2C","auditory"
"293","ba.wav",305,"S",NA,"",NA,"None","bi",2,"f004","2C","auditory"
"294","pu.wav",306,"S",NA,"",NA,"None","bi",2,"f004","2C","auditory"
"295","ta.wav",307,"S",NA,"",NA,"None","bi",2,"f004","2C","auditory"
"296","ti.wav",308,"S",NA,"",NA,"None","bi",2,"f004","2C","auditory"
"297","du.wav",309,"S",NA,"",NA,"None","bi",2,"f004","2C","auditory"
"298","pi.wav",310,"S",NA,"",NA,"None","bi",2,"f004","2C","auditory"
"299","tu.wav",311,"S",NA,"",0.411643318,"4","bi",2,"f004","2C","auditory"
"300","bi.wav",312,"S",NA,"",NA,"None","bi",2,"f004","2C","auditory"
"301","bu.wav",313,"S",NA,"",NA,"None","bi",2,"f004","2C","auditory"
"302","pa.wav",314,"S",NA,"",0.033986037,"4","bi",2,"f004","2C","auditory"
"303","da.wav",315,"S",NA,"",NA,"None","bi",2,"f004","2C","auditory"
"304","di.wav",316,"S",NA,"",NA,"None","bi",2,"f004","2C","auditory"
"305","ba.wav",317,"S",NA,"",NA,"None","bi",2,"f004","2C","auditory"
"306","pu.wav",318,"S",NA,"",NA,"None","bi",2,"f004","2C","auditory"
"307","bu.wav",319,"S",NA,"",NA,"None","bi",2,"f004","2C","auditory"
"308","pa.wav",320,"S",NA,"",NA,"None","bi",2,"f004","2C","auditory"
"309","da.wav",321,"S",NA,"",NA,"None","bi",2,"f004","2C","auditory"
"310","ta.wav",322,"S",NA,"",NA,"None","bi",2,"f004","2C","auditory"
"311","ti.wav",323,"S",NA,"",NA,"None","bi",2,"f004","2C","auditory"
"312","du.wav",324,"S",NA,"",NA,"None","bi",2,"f004","2C","auditory"
"313","pi.wav",325,"S",NA,"",NA,"None","bi",2,"f004","2C","auditory"
"314","tu.wav",326,"S",NA,"",0.184157463,"4","bi",2,"f004","2C","auditory"
"315","bi.wav",327,"S",NA,"",NA,"None","bi",2,"f004","2C","auditory"
"316","ta.wav",328,"S",NA,"",NA,"None","bi",2,"f004","2C","auditory"
"317","ti.wav",329,"S",NA,"",0.083789094,"4","bi",2,"f004","2C","auditory"
"318","du.wav",330,"S",NA,"",NA,"None","bi",2,"f004","2C","auditory"
"319","pi.wav",331,"S",NA,"",NA,"None","bi",2,"f004","2C","auditory"
"320","tu.wav",332,"S",NA,"",NA,"None","bi",2,"f004","2C","auditory"
"321","bi.wav",333,"S",NA,"",NA,"None","bi",2,"f004","2C","auditory"
"322","bu.wav",334,"S",NA,"",0.162260446,"4","bi",2,"f004","2C","auditory"
"323","pa.wav",335,"S",NA,"",NA,"None","bi",2,"f004","2C","auditory"
"324","da.wav",336,"S",NA,"",NA,"None","bi",2,"f004","2C","auditory"
"325","silence.wav",0,"B",NA,"",NA,"None","bi",2,"f004","2C","auditory"
"326","silence.wav",0,"B",NA,"",NA,"None","bi",2,"f004","2C","auditory"
"327","silence.wav",0,"B",NA,"",NA,"None","bi",2,"f004","2C","auditory"
"328","silence.wav",0,"B",NA,"",NA,"None","bi",2,"f004","2C","auditory"
"329","silence.wav",0,"B",NA,"",NA,"None","bi",2,"f004","2C","auditory"
"330","silence.wav",0,"B",NA,"",NA,"None","bi",2,"f004","2C","auditory"
"331","silence.wav",0,"B",NA,"",NA,"None","bi",2,"f004","2C","auditory"
"332","silence.wav",0,"B",NA,"",NA,"None","bi",2,"f004","2C","auditory"
"333","silence.wav",0,"B",NA,"",NA,"None","bi",2,"f004","2C","auditory"
"334","silence.wav",0,"B",NA,"",NA,"None","bi",2,"f004","2C","auditory"
"335","silence.wav",0,"B",NA,"",NA,"None","bi",2,"f004","2C","auditory"
"336","silence.wav",0,"B",NA,"",NA,"None","bi",2,"f004","2C","auditory"
"337","4A.wav",337,"R",NA,"None",NA,"","bi",2,"f004","2C","auditory"
"338","3B.wav",338,"R",NA,"None",NA,"","bi",2,"f004","2C","auditory"
"339","1C.wav",339,"R",NA,"None",NA,"","bi",2,"f004","2C","auditory"
"340","3A.wav",340,"R",NA,"None",NA,"","bi",2,"f004","2C","auditory"
"341","2C.wav",341,"R",NA,"None",NA,"","bi",2,"f004","2C","auditory"
"342","4B.wav",342,"R",0.056922233,"4",NA,"","bi",2,"f004","2C","auditory"
"343","3A.wav",343,"R",NA,"None",NA,"","bi",2,"f004","2C","auditory"
"344","2A.wav",344,"R",NA,"None",NA,"","bi",2,"f004","2C","auditory"
"345","1B.wav",345,"R",NA,"None",NA,"","bi",2,"f004","2C","auditory"
"346","4A.wav",346,"R",NA,"None",NA,"","bi",2,"f004","2C","auditory"
"347","2A.wav",347,"R",NA,"None",NA,"","bi",2,"f004","2C","auditory"
"348","2B.wav",348,"R",NA,"None",NA,"","bi",2,"f004","2C","auditory"
"349","3C.wav",349,"R",NA,"None",NA,"","bi",2,"f004","2C","auditory"
"350","3C.wav",350,"R",NA,"None",NA,"","bi",2,"f004","2C","auditory"
"351","2A.wav",351,"R",NA,"None",NA,"","bi",2,"f004","2C","auditory"
"352","4B.wav",352,"R",0.217510065,"4",NA,"","bi",2,"f004","2C","auditory"
"353","4C.wav",353,"R",NA,"None",NA,"","bi",2,"f004","2C","auditory"
"354","2C.wav",354,"R",NA,"None",NA,"","bi",2,"f004","2C","auditory"
"355","2B.wav",355,"R",NA,"None",NA,"","bi",2,"f004","2C","auditory"
"356","1A.wav",356,"R",NA,"None",NA,"","bi",2,"f004","2C","auditory"
"357","2C.wav",357,"R",0.267844813,"4",NA,"","bi",2,"f004","2C","auditory"
"358","4C.wav",358,"R",NA,"None",NA,"","bi",2,"f004","2C","auditory"
"359","2B.wav",359,"R",NA,"None",NA,"","bi",2,"f004","2C","auditory"
"360","3B.wav",360,"R",NA,"None",NA,"","bi",2,"f004","2C","auditory"
"361","2A.wav",313,"R",NA,"None",NA,"","bi",2,"f004","2C","auditory"
"362","3A.wav",314,"R",NA,"None",NA,"","bi",2,"f004","2C","auditory"
"363","4A.wav",315,"R",NA,"None",NA,"","bi",2,"f004","2C","auditory"
"364","1B.wav",316,"R",NA,"None",NA,"","bi",2,"f004","2C","auditory"
"365","2B.wav",317,"R",0.250520513,"4",NA,"","bi",2,"f004","2C","auditory"
"366","1C.wav",318,"R",NA,"None",NA,"","bi",2,"f004","2C","auditory"
"367","1C.wav",319,"R",NA,"None",NA,"","bi",2,"f004","2C","auditory"
"368","1B.wav",320,"R",NA,"None",NA,"","bi",2,"f004","2C","auditory"
"369","2C.wav",321,"R",NA,"None",NA,"","bi",2,"f004","2C","auditory"
"370","4A.wav",322,"R",NA,"None",NA,"","bi",2,"f004","2C","auditory"
"371","4B.wav",323,"R",NA,"None",NA,"","bi",2,"f004","2C","auditory"
"372","3C.wav",324,"R",0.375512461,"4",NA,"","bi",2,"f004","2C","auditory"
"373","3B.wav",325,"R",NA,"None",NA,"","bi",2,"f004","2C","auditory"
"374","4C.wav",326,"R",NA,"None",NA,"","bi",2,"f004","2C","auditory"
"375","3C.wav",327,"R",0.316958229,"4",NA,"","bi",2,"f004","2C","auditory"
"376","4C.wav",328,"R",NA,"None",NA,"","bi",2,"f004","2C","auditory"
"377","2B.wav",329,"R",NA,"None",NA,"","bi",2,"f004","2C","auditory"
"378","1A.wav",330,"R",NA,"None",NA,"","bi",2,"f004","2C","auditory"
"379","1A.wav",331,"R",NA,"None",NA,"","bi",2,"f004","2C","auditory"
"380","2C.wav",332,"R",NA,"None",NA,"","bi",2,"f004","2C","auditory"
"381","2A.wav",333,"R",0.259927688,"4",NA,"","bi",2,"f004","2C","auditory"
"382","3A.wav",334,"R",NA,"None",NA,"","bi",2,"f004","2C","auditory"
"383","3B.wav",335,"R",NA,"None",NA,"","bi",2,"f004","2C","auditory"
"384","4B.wav",336,"R",0.284187371,"4",NA,"","bi",2,"f004","2C","auditory"
"385","silence.wav",0,"B",NA,"None",NA,"","bi",2,"f004","2C","auditory"
"386","silence.wav",0,"B",NA,"None",NA,"","bi",2,"f004","2C","auditory"
"387","silence.wav",0,"B",NA,"None",NA,"","bi",2,"f004","2C","auditory"
"388","silence.wav",0,"B",NA,"None",NA,"","bi",2,"f004","2C","auditory"
"389","silence.wav",0,"B",NA,"None",NA,"","bi",2,"f004","2C","auditory"
"390","silence.wav",0,"B",NA,"None",NA,"","bi",2,"f004","2C","auditory"
"391","silence.wav",0,"B",NA,"None",NA,"","bi",2,"f004","2C","auditory"
"392","silence.wav",0,"B",NA,"None",NA,"","bi",2,"f004","2C","auditory"
"393","silence.wav",0,"B",NA,"None",NA,"","bi",2,"f004","2C","auditory"
"394","silence.wav",0,"B",NA,"None",NA,"","bi",2,"f004","2C","auditory"
"395","silence.wav",0,"B",NA,"None",NA,"","bi",2,"f004","2C","auditory"
"396","silence.wav",0,"B",NA,"None",NA,"","bi",2,"f004","2C","auditory"
"397","4B.wav",361,"R",NA,"None",NA,"","bi",2,"f004","2C","auditory"
"398","4A.wav",362,"R",NA,"None",NA,"","bi",2,"f004","2C","auditory"
"399","2B.wav",363,"R",NA,"None",NA,"","bi",2,"f004","2C","auditory"
"400","1A.wav",364,"R",NA,"None",NA,"","bi",2,"f004","2C","auditory"
"401","4C.wav",365,"R",NA,"None",NA,"","bi",2,"f004","2C","auditory"
"402","2A.wav",366,"R",0.400770707,"4",NA,"","bi",2,"f004","2C","auditory"
"403","3C.wav",367,"R",NA,"None",NA,"","bi",2,"f004","2C","auditory"
"404","1B.wav",368,"R",NA,"None",NA,"","bi",2,"f004","2C","auditory"
"405","1B.wav",369,"R",NA,"None",NA,"","bi",2,"f004","2C","auditory"
"406","2C.wav",370,"R",NA,"None",NA,"","bi",2,"f004","2C","auditory"
"407","2A.wav",371,"R",0.044304392,"4",NA,"","bi",2,"f004","2C","auditory"
"408","4B.wav",372,"R",NA,"None",NA,"","bi",2,"f004","2C","auditory"
"409","1C.wav",373,"R",NA,"None",NA,"","bi",2,"f004","2C","auditory"
"410","2B.wav",374,"R",NA,"None",NA,"","bi",2,"f004","2C","auditory"
"411","1C.wav",375,"R",NA,"None",NA,"","bi",2,"f004","2C","auditory"
"412","4A.wav",376,"R",NA,"None",NA,"","bi",2,"f004","2C","auditory"
"413","1A.wav",377,"R",NA,"None",NA,"","bi",2,"f004","2C","auditory"
"414","3A.wav",378,"R",NA,"None",NA,"","bi",2,"f004","2C","auditory"
"415","1B.wav",379,"R",NA,"None",NA,"","bi",2,"f004","2C","auditory"
"416","1A.wav",380,"R",NA,"None",NA,"","bi",2,"f004","2C","auditory"
"417","2C.wav",381,"R",NA,"None",NA,"","bi",2,"f004","2C","auditory"
"418","3B.wav",382,"R",0.046941519,"4",NA,"","bi",2,"f004","2C","auditory"
"419","4C.wav",383,"R",NA,"None",NA,"","bi",2,"f004","2C","auditory"
"420","1C.wav",384,"R",0.28593137,"4",NA,"","bi",2,"f004","2C","auditory"
"421","di.wav",337,"S",NA,"",NA,"None","bi",2,"f004","2C","auditory"
"422","ba.wav",338,"S",NA,"",NA,"None","bi",2,"f004","2C","auditory"
"423","pu.wav",339,"S",NA,"",NA,"None","bi",2,"f004","2C","auditory"
"424","ta.wav",340,"S",NA,"",NA,"None","bi",2,"f004","2C","auditory"
"425","ti.wav",341,"S",NA,"",NA,"None","bi",2,"f004","2C","auditory"
"426","du.wav",342,"S",NA,"",NA,"None","bi",2,"f004","2C","auditory"
"427","pi.wav",343,"S",NA,"",NA,"None","bi",2,"f004","2C","auditory"
"428","tu.wav",344,"S",NA,"",NA,"None","bi",2,"f004","2C","auditory"
"429","bi.wav",345,"S",NA,"",NA,"None","bi",2,"f004","2C","auditory"
"430","bu.wav",346,"S",NA,"",0.153500655,"4","bi",2,"f004","2C","auditory"
"431","pa.wav",347,"S",NA,"",NA,"None","bi",2,"f004","2C","auditory"
"432","da.wav",348,"S",NA,"",NA,"None","bi",2,"f004","2C","auditory"
"433","di.wav",349,"S",NA,"",NA,"None","bi",2,"f004","2C","auditory"
"434","ba.wav",350,"S",NA,"",NA,"None","bi",2,"f004","2C","auditory"
"435","pu.wav",351,"S",NA,"",NA,"None","bi",2,"f004","2C","auditory"
"436","bu.wav",352,"S",NA,"",NA,"None","bi",2,"f004","2C","auditory"
"437","pa.wav",353,"S",NA,"",NA,"None","bi",2,"f004","2C","auditory"
"438","da.wav",354,"S",NA,"",NA,"None","bi",2,"f004","2C","auditory"
"439","pi.wav",355,"S",NA,"",NA,"None","bi",2,"f004","2C","auditory"
"440","tu.wav",356,"S",NA,"",NA,"None","bi",2,"f004","2C","auditory"
"441","bi.wav",357,"S",NA,"",NA,"None","bi",2,"f004","2C","auditory"
"442","ta.wav",358,"S",NA,"",0.133808766,"4","bi",2,"f004","2C","auditory"
"443","ti.wav",359,"S",NA,"",NA,"None","bi",2,"f004","2C","auditory"
"444","du.wav",360,"S",NA,"",NA,"None","bi",2,"f004","2C","auditory"
"445","silence.wav",0,"B",NA,"",NA,"None","bi",2,"f004","2C","auditory"
"446","silence.wav",0,"B",NA,"",NA,"None","bi",2,"f004","2C","auditory"
"447","silence.wav",0,"B",NA,"",NA,"None","bi",2,"f004","2C","auditory"
"448","silence.wav",0,"B",NA,"",NA,"None","bi",2,"f004","2C","auditory"
"449","silence.wav",0,"B",NA,"",NA,"None","bi",2,"f004","2C","auditory"
"450","silence.wav",0,"B",NA,"",NA,"None","bi",2,"f004","2C","auditory"
"451","silence.wav",0,"B",NA,"",NA,"None","bi",2,"f004","2C","auditory"
"452","silence.wav",0,"B",NA,"",NA,"None","bi",2,"f004","2C","auditory"
"453","silence.wav",0,"B",NA,"",NA,"None","bi",2,"f004","2C","auditory"
"454","silence.wav",0,"B",NA,"",NA,"None","bi",2,"f004","2C","auditory"
"455","silence.wav",0,"B",NA,"",NA,"None","bi",2,"f004","2C","auditory"
"456","silence.wav",0,"B",NA,"",NA,"None","bi",2,"f004","2C","auditory"
"457","di.wav",361,"S",NA,"",NA,"None","bi",2,"f004","2C","auditory"
"458","ba.wav",362,"S",NA,"",NA,"None","bi",2,"f004","2C","auditory"
"459","pu.wav",363,"S",NA,"",NA,"None","bi",2,"f004","2C","auditory"
"460","pi.wav",364,"S",NA,"",NA,"None","bi",2,"f004","2C","auditory"
"461","tu.wav",365,"S",NA,"",NA,"None","bi",2,"f004","2C","auditory"
"462","bi.wav",366,"S",NA,"",NA,"None","bi",2,"f004","2C","auditory"
"463","bu.wav",367,"S",NA,"",NA,"None","bi",2,"f004","2C","auditory"
"464","pa.wav",368,"S",NA,"",NA,"None","bi",2,"f004","2C","auditory"
"465","da.wav",369,"S",NA,"",NA,"None","bi",2,"f004","2C","auditory"
"466","ta.wav",370,"S",NA,"",NA,"None","bi",2,"f004","2C","auditory"
"467","ti.wav",371,"S",NA,"",NA,"None","bi",2,"f004","2C","auditory"
"468","du.wav",372,"S",NA,"",NA,"None","bi",2,"f004","2C","auditory"
"469","di.wav",373,"S",NA,"",NA,"None","bi",2,"f004","2C","auditory"
"470","ba.wav",374,"S",NA,"",NA,"None","bi",2,"f004","2C","auditory"
"471","pu.wav",375,"S",NA,"",NA,"None","bi",2,"f004","2C","auditory"
"472","bu.wav",376,"S",NA,"",NA,"None","bi",2,"f004","2C","auditory"
"473","pa.wav",377,"S",NA,"",NA,"None","bi",2,"f004","2C","auditory"
"474","da.wav",378,"S",NA,"",NA,"None","bi",2,"f004","2C","auditory"
"475","ta.wav",382,"S",NA,"",NA,"None","bi",2,"f004","2C","auditory"
"476","ti.wav",383,"S",NA,"",NA,"None","bi",2,"f004","2C","auditory"
"477","du.wav",384,"S",NA,"",NA,"None","bi",2,"f004","2C","auditory"
"478","di.wav",388,"S",NA,"",NA,"None","bi",2,"f004","2C","auditory"
"479","ba.wav",389,"S",NA,"",NA,"None","bi",2,"f004","2C","auditory"
"480","pu.wav",390,"S",NA,"",NA,"None","bi",2,"f004","2C","auditory"
