"","soundFile","trialnum","condition","random_block_key_resp.rt","random_block_key_resp.keys","structured_block_key_resp.rt","structured_block_key_resp.keys","starget","Run","PartID","ttarget","expName"
"1","3A.wav",1,"S",NA,"",NA,"None","pu",4,"f005","1C","auditory"
"2","3B.wav",2,"S",NA,"",NA,"None","pu",4,"f005","1C","auditory"
"3","3C.wav",3,"S",NA,"",NA,"None","pu",4,"f005","1C","auditory"
"4","1A.wav",4,"S",NA,"",NA,"None","pu",4,"f005","1C","auditory"
"5","1B.wav",5,"S",NA,"",NA,"None","pu",4,"f005","1C","auditory"
"6","1C.wav",6,"S",NA,"",NA,"None","pu",4,"f005","1C","auditory"
"7","4A.wav",7,"S",NA,"",NA,"None","pu",4,"f005","1C","auditory"
"8","4B.wav",8,"S",NA,"",NA,"None","pu",4,"f005","1C","auditory"
"9","4C.wav",9,"S",NA,"",NA,"None","pu",4,"f005","1C","auditory"
"10","3A.wav",10,"S",NA,"",NA,"None","pu",4,"f005","1C","auditory"
"11","3B.wav",11,"S",NA,"",NA,"None","pu",4,"f005","1C","auditory"
"12","3C.wav",12,"S",NA,"",NA,"None","pu",4,"f005","1C","auditory"
"13","2A.wav",13,"S",NA,"",NA,"None","pu",4,"f005","1C","auditory"
"14","2B.wav",14,"S",NA,"",NA,"None","pu",4,"f005","1C","auditory"
"15","2C.wav",15,"S",NA,"",NA,"None","pu",4,"f005","1C","auditory"
"16","1A.wav",16,"S",NA,"",NA,"None","pu",4,"f005","1C","auditory"
"17","1B.wav",17,"S",NA,"",NA,"None","pu",4,"f005","1C","auditory"
"18","1C.wav",18,"S",NA,"",NA,"None","pu",4,"f005","1C","auditory"
"19","4A.wav",19,"S",NA,"",NA,"None","pu",4,"f005","1C","auditory"
"20","4B.wav",20,"S",NA,"",NA,"None","pu",4,"f005","1C","auditory"
"21","4C.wav",21,"S",NA,"",NA,"None","pu",4,"f005","1C","auditory"
"22","3A.wav",22,"S",NA,"",0.350391836,"3","pu",4,"f005","1C","auditory"
"23","3B.wav",23,"S",NA,"",NA,"None","pu",4,"f005","1C","auditory"
"24","3C.wav",24,"S",NA,"",NA,"None","pu",4,"f005","1C","auditory"
"25","silence.wav",0,"B",NA,"",NA,"None","pu",4,"f005","1C","auditory"
"26","silence.wav",0,"B",NA,"",NA,"None","pu",4,"f005","1C","auditory"
"27","silence.wav",0,"B",NA,"",NA,"None","pu",4,"f005","1C","auditory"
"28","silence.wav",0,"B",NA,"",NA,"None","pu",4,"f005","1C","auditory"
"29","silence.wav",0,"B",NA,"",NA,"None","pu",4,"f005","1C","auditory"
"30","silence.wav",0,"B",NA,"",NA,"None","pu",4,"f005","1C","auditory"
"31","silence.wav",0,"B",NA,"",NA,"None","pu",4,"f005","1C","auditory"
"32","silence.wav",0,"B",NA,"",NA,"None","pu",4,"f005","1C","auditory"
"33","silence.wav",0,"B",NA,"",NA,"None","pu",4,"f005","1C","auditory"
"34","silence.wav",0,"B",NA,"",NA,"None","pu",4,"f005","1C","auditory"
"35","silence.wav",0,"B",NA,"",NA,"None","pu",4,"f005","1C","auditory"
"36","silence.wav",0,"B",NA,"",NA,"None","pu",4,"f005","1C","auditory"
"37","2A.wav",25,"S",NA,"",NA,"None","pu",4,"f005","1C","auditory"
"38","2B.wav",26,"S",NA,"",NA,"None","pu",4,"f005","1C","auditory"
"39","2C.wav",27,"S",NA,"",NA,"None","pu",4,"f005","1C","auditory"
"40","1A.wav",28,"S",NA,"",NA,"None","pu",4,"f005","1C","auditory"
"41","1B.wav",29,"S",NA,"",NA,"None","pu",4,"f005","1C","auditory"
"42","1C.wav",30,"S",NA,"",NA,"None","pu",4,"f005","1C","auditory"
"43","2A.wav",31,"S",NA,"",NA,"None","pu",4,"f005","1C","auditory"
"44","2B.wav",32,"S",NA,"",NA,"None","pu",4,"f005","1C","auditory"
"45","2C.wav",33,"S",NA,"",NA,"None","pu",4,"f005","1C","auditory"
"46","4A.wav",34,"S",NA,"",NA,"None","pu",4,"f005","1C","auditory"
"47","4B.wav",35,"S",NA,"",NA,"None","pu",4,"f005","1C","auditory"
"48","4C.wav",36,"S",NA,"",NA,"None","pu",4,"f005","1C","auditory"
"49","3A.wav",37,"S",NA,"",0.392126924,"3","pu",4,"f005","1C","auditory"
"50","3B.wav",38,"S",NA,"",NA,"None","pu",4,"f005","1C","auditory"
"51","3C.wav",39,"S",NA,"",NA,"None","pu",4,"f005","1C","auditory"
"52","4A.wav",40,"S",NA,"",NA,"None","pu",4,"f005","1C","auditory"
"53","4B.wav",41,"S",NA,"",NA,"None","pu",4,"f005","1C","auditory"
"54","4C.wav",42,"S",NA,"",NA,"None","pu",4,"f005","1C","auditory"
"55","3A.wav",43,"S",NA,"",NA,"None","pu",4,"f005","1C","auditory"
"56","3B.wav",44,"S",NA,"",NA,"None","pu",4,"f005","1C","auditory"
"57","3C.wav",45,"S",NA,"",NA,"None","pu",4,"f005","1C","auditory"
"58","2A.wav",46,"S",NA,"",NA,"None","pu",4,"f005","1C","auditory"
"59","2B.wav",47,"S",NA,"",0.308898526,"3","pu",4,"f005","1C","auditory"
"60","2C.wav",48,"S",NA,"",NA,"None","pu",4,"f005","1C","auditory"
"61","silence.wav",0,"B",NA,"",NA,"None","pu",4,"f005","1C","auditory"
"62","silence.wav",0,"B",NA,"",NA,"None","pu",4,"f005","1C","auditory"
"63","silence.wav",0,"B",NA,"",NA,"None","pu",4,"f005","1C","auditory"
"64","silence.wav",0,"B",NA,"",NA,"None","pu",4,"f005","1C","auditory"
"65","silence.wav",0,"B",NA,"",NA,"None","pu",4,"f005","1C","auditory"
"66","silence.wav",0,"B",NA,"",NA,"None","pu",4,"f005","1C","auditory"
"67","silence.wav",0,"B",NA,"",NA,"None","pu",4,"f005","1C","auditory"
"68","silence.wav",0,"B",NA,"",NA,"None","pu",4,"f005","1C","auditory"
"69","silence.wav",0,"B",NA,"",NA,"None","pu",4,"f005","1C","auditory"
"70","silence.wav",0,"B",NA,"",NA,"None","pu",4,"f005","1C","auditory"
"71","silence.wav",0,"B",NA,"",NA,"None","pu",4,"f005","1C","auditory"
"72","silence.wav",0,"B",NA,"",NA,"None","pu",4,"f005","1C","auditory"
"73","1A.wav",49,"S",NA,"",NA,"None","pu",4,"f005","1C","auditory"
"74","1B.wav",50,"S",NA,"",NA,"None","pu",4,"f005","1C","auditory"
"75","1C.wav",51,"S",NA,"",NA,"None","pu",4,"f005","1C","auditory"
"76","4A.wav",52,"S",NA,"",NA,"None","pu",4,"f005","1C","auditory"
"77","4B.wav",53,"S",NA,"",NA,"None","pu",4,"f005","1C","auditory"
"78","4C.wav",54,"S",NA,"",NA,"None","pu",4,"f005","1C","auditory"
"79","3A.wav",55,"S",NA,"",NA,"None","pu",4,"f005","1C","auditory"
"80","3B.wav",56,"S",NA,"",NA,"None","pu",4,"f005","1C","auditory"
"81","3C.wav",57,"S",NA,"",NA,"None","pu",4,"f005","1C","auditory"
"82","2A.wav",58,"S",NA,"",NA,"None","pu",4,"f005","1C","auditory"
"83","2B.wav",59,"S",NA,"",NA,"None","pu",4,"f005","1C","auditory"
"84","2C.wav",60,"S",NA,"",NA,"None","pu",4,"f005","1C","auditory"
"85","1A.wav",61,"S",NA,"",NA,"None","pu",4,"f005","1C","auditory"
"86","1B.wav",62,"S",NA,"",NA,"None","pu",4,"f005","1C","auditory"
"87","1C.wav",63,"S",NA,"",NA,"None","pu",4,"f005","1C","auditory"
"88","2A.wav",64,"S",NA,"",0.22535525,"3","pu",4,"f005","1C","auditory"
"89","2B.wav",65,"S",NA,"",NA,"None","pu",4,"f005","1C","auditory"
"90","2C.wav",66,"S",NA,"",NA,"None","pu",4,"f005","1C","auditory"
"91","3A.wav",67,"S",NA,"",NA,"None","pu",4,"f005","1C","auditory"
"92","3B.wav",68,"S",NA,"",NA,"None","pu",4,"f005","1C","auditory"
"93","3C.wav",69,"S",NA,"",NA,"None","pu",4,"f005","1C","auditory"
"94","4A.wav",70,"S",NA,"",NA,"None","pu",4,"f005","1C","auditory"
"95","4B.wav",71,"S",NA,"",NA,"None","pu",4,"f005","1C","auditory"
"96","4C.wav",72,"S",NA,"",NA,"None","pu",4,"f005","1C","auditory"
"97","bi.wav",1,"R",0.024111488,"3",NA,"","pu",4,"f005","1C","auditory"
"98","da.wav",2,"R",NA,"None",NA,"","pu",4,"f005","1C","auditory"
"99","pi.wav",3,"R",NA,"None",NA,"","pu",4,"f005","1C","auditory"
"100","du.wav",4,"R",NA,"None",NA,"","pu",4,"f005","1C","auditory"
"101","ba.wav",5,"R",NA,"None",NA,"","pu",4,"f005","1C","auditory"
"102","ta.wav",6,"R",NA,"None",NA,"","pu",4,"f005","1C","auditory"
"103","ti.wav",7,"R",NA,"None",NA,"","pu",4,"f005","1C","auditory"
"104","pi.wav",8,"R",NA,"None",NA,"","pu",4,"f005","1C","auditory"
"105","bu.wav",9,"R",NA,"None",NA,"","pu",4,"f005","1C","auditory"
"106","ta.wav",10,"R",0.183648322,"3",NA,"","pu",4,"f005","1C","auditory"
"107","di.wav",11,"R",NA,"None",NA,"","pu",4,"f005","1C","auditory"
"108","pi.wav",12,"R",NA,"None",NA,"","pu",4,"f005","1C","auditory"
"109","du.wav",13,"R",NA,"None",NA,"","pu",4,"f005","1C","auditory"
"110","tu.wav",14,"R",NA,"None",NA,"","pu",4,"f005","1C","auditory"
"111","ti.wav",15,"R",NA,"None",NA,"","pu",4,"f005","1C","auditory"
"112","tu.wav",16,"R",NA,"None",NA,"","pu",4,"f005","1C","auditory"
"113","bi.wav",17,"R",NA,"None",NA,"","pu",4,"f005","1C","auditory"
"114","pu.wav",18,"R",NA,"None",NA,"","pu",4,"f005","1C","auditory"
"115","tu.wav",19,"R",0.142017341,"3",NA,"","pu",4,"f005","1C","auditory"
"116","ba.wav",20,"R",NA,"None",NA,"","pu",4,"f005","1C","auditory"
"117","di.wav",21,"R",NA,"None",NA,"","pu",4,"f005","1C","auditory"
"118","pa.wav",22,"R",NA,"None",NA,"","pu",4,"f005","1C","auditory"
"119","pu.wav",23,"R",NA,"None",NA,"","pu",4,"f005","1C","auditory"
"120","bi.wav",24,"R",0.258713453,"3",NA,"","pu",4,"f005","1C","auditory"
"121","bi.wav",25,"R",NA,"None",NA,"","pu",4,"f005","1C","auditory"
"122","bu.wav",26,"R",NA,"None",NA,"","pu",4,"f005","1C","auditory"
"123","pu.wav",27,"R",NA,"None",NA,"","pu",4,"f005","1C","auditory"
"124","pi.wav",28,"R",0.425333234,"3",NA,"","pu",4,"f005","1C","auditory"
"125","ti.wav",29,"R",NA,"None",NA,"","pu",4,"f005","1C","auditory"
"126","ta.wav",30,"R",NA,"None",NA,"","pu",4,"f005","1C","auditory"
"127","tu.wav",31,"R",NA,"None",NA,"","pu",4,"f005","1C","auditory"
"128","pi.wav",32,"R",NA,"None",NA,"","pu",4,"f005","1C","auditory"
"129","ta.wav",33,"R",NA,"None",NA,"","pu",4,"f005","1C","auditory"
"130","du.wav",34,"R",NA,"None",NA,"","pu",4,"f005","1C","auditory"
"131","tu.wav",35,"R",NA,"None",NA,"","pu",4,"f005","1C","auditory"
"132","bu.wav",36,"R",NA,"None",NA,"","pu",4,"f005","1C","auditory"
"133","di.wav",37,"R",0.333652859,"3",NA,"","pu",4,"f005","1C","auditory"
"134","da.wav",38,"R",NA,"None",NA,"","pu",4,"f005","1C","auditory"
"135","pa.wav",39,"R",NA,"None",NA,"","pu",4,"f005","1C","auditory"
"136","pa.wav",40,"R",NA,"None",NA,"","pu",4,"f005","1C","auditory"
"137","da.wav",41,"R",NA,"None",NA,"","pu",4,"f005","1C","auditory"
"138","ba.wav",42,"R",NA,"None",NA,"","pu",4,"f005","1C","auditory"
"139","pa.wav",43,"R",NA,"None",NA,"","pu",4,"f005","1C","auditory"
"140","ti.wav",44,"R",NA,"None",NA,"","pu",4,"f005","1C","auditory"
"141","bu.wav",45,"R",NA,"None",NA,"","pu",4,"f005","1C","auditory"
"142","bi.wav",46,"R",NA,"None",NA,"","pu",4,"f005","1C","auditory"
"143","du.wav",47,"R",0.267039706,"3",NA,"","pu",4,"f005","1C","auditory"
"144","da.wav",48,"R",NA,"None",NA,"","pu",4,"f005","1C","auditory"
"145","silence.wav",0,"B",NA,"None",NA,"","pu",4,"f005","1C","auditory"
"146","silence.wav",0,"B",NA,"None",NA,"","pu",4,"f005","1C","auditory"
"147","silence.wav",0,"B",NA,"None",NA,"","pu",4,"f005","1C","auditory"
"148","silence.wav",0,"B",NA,"None",NA,"","pu",4,"f005","1C","auditory"
"149","silence.wav",0,"B",NA,"None",NA,"","pu",4,"f005","1C","auditory"
"150","silence.wav",0,"B",NA,"None",NA,"","pu",4,"f005","1C","auditory"
"151","silence.wav",0,"B",NA,"None",NA,"","pu",4,"f005","1C","auditory"
"152","silence.wav",0,"B",NA,"None",NA,"","pu",4,"f005","1C","auditory"
"153","silence.wav",0,"B",NA,"None",NA,"","pu",4,"f005","1C","auditory"
"154","silence.wav",0,"B",NA,"None",NA,"","pu",4,"f005","1C","auditory"
"155","silence.wav",0,"B",NA,"None",NA,"","pu",4,"f005","1C","auditory"
"156","silence.wav",0,"B",NA,"None",NA,"","pu",4,"f005","1C","auditory"
"157","pu.wav",49,"R",NA,"None",NA,"","pu",4,"f005","1C","auditory"
"158","ba.wav",50,"R",NA,"None",NA,"","pu",4,"f005","1C","auditory"
"159","du.wav",51,"R",0.182986705,"3",NA,"","pu",4,"f005","1C","auditory"
"160","ta.wav",52,"R",NA,"None",NA,"","pu",4,"f005","1C","auditory"
"161","ba.wav",53,"R",NA,"None",NA,"","pu",4,"f005","1C","auditory"
"162","ta.wav",54,"R",NA,"None",NA,"","pu",4,"f005","1C","auditory"
"163","bu.wav",55,"R",NA,"None",NA,"","pu",4,"f005","1C","auditory"
"164","da.wav",56,"R",0.200352882,"3",NA,"","pu",4,"f005","1C","auditory"
"165","pa.wav",57,"R",NA,"None",NA,"","pu",4,"f005","1C","auditory"
"166","bi.wav",58,"R",NA,"None",NA,"","pu",4,"f005","1C","auditory"
"167","ti.wav",59,"R",NA,"None",NA,"","pu",4,"f005","1C","auditory"
"168","pa.wav",60,"R",NA,"None",NA,"","pu",4,"f005","1C","auditory"
"169","du.wav",61,"R",NA,"None",NA,"","pu",4,"f005","1C","auditory"
"170","tu.wav",62,"R",NA,"None",NA,"","pu",4,"f005","1C","auditory"
"171","di.wav",63,"R",NA,"None",NA,"","pu",4,"f005","1C","auditory"
"172","bu.wav",64,"R",NA,"None",NA,"","pu",4,"f005","1C","auditory"
"173","bi.wav",65,"R",0.225398485,"3",NA,"","pu",4,"f005","1C","auditory"
"174","tu.wav",66,"R",NA,"None",NA,"","pu",4,"f005","1C","auditory"
"175","pu.wav",67,"R",NA,"None",NA,"","pu",4,"f005","1C","auditory"
"176","ti.wav",68,"R",0.400369834,"3",NA,"","pu",4,"f005","1C","auditory"
"177","pi.wav",69,"R",NA,"None",NA,"","pu",4,"f005","1C","auditory"
"178","di.wav",70,"R",NA,"None",NA,"","pu",4,"f005","1C","auditory"
"179","da.wav",71,"R",NA,"None",NA,"","pu",4,"f005","1C","auditory"
"180","pi.wav",72,"R",NA,"None",NA,"","pu",4,"f005","1C","auditory"
"181","1A.wav",73,"S",NA,"",NA,"None","pu",4,"f005","1C","auditory"
"182","1B.wav",74,"S",NA,"",NA,"None","pu",4,"f005","1C","auditory"
"183","1C.wav",75,"S",NA,"",NA,"None","pu",4,"f005","1C","auditory"
"184","3A.wav",76,"S",NA,"",NA,"None","pu",4,"f005","1C","auditory"
"185","3B.wav",77,"S",NA,"",NA,"None","pu",4,"f005","1C","auditory"
"186","3C.wav",78,"S",NA,"",NA,"None","pu",4,"f005","1C","auditory"
"187","2A.wav",79,"S",NA,"",NA,"None","pu",4,"f005","1C","auditory"
"188","2B.wav",80,"S",NA,"",NA,"None","pu",4,"f005","1C","auditory"
"189","2C.wav",81,"S",NA,"",NA,"None","pu",4,"f005","1C","auditory"
"190","4A.wav",82,"S",NA,"",NA,"None","pu",4,"f005","1C","auditory"
"191","4B.wav",83,"S",NA,"",NA,"None","pu",4,"f005","1C","auditory"
"192","4C.wav",84,"S",NA,"",NA,"None","pu",4,"f005","1C","auditory"
"193","1A.wav",85,"S",NA,"",0.217046632,"3","pu",4,"f005","1C","auditory"
"194","1B.wav",86,"S",NA,"",NA,"None","pu",4,"f005","1C","auditory"
"195","1C.wav",87,"S",NA,"",NA,"None","pu",4,"f005","1C","auditory"
"196","2A.wav",88,"S",NA,"",NA,"None","pu",4,"f005","1C","auditory"
"197","2B.wav",89,"S",NA,"",NA,"None","pu",4,"f005","1C","auditory"
"198","2C.wav",90,"S",NA,"",NA,"None","pu",4,"f005","1C","auditory"
"199","3A.wav",91,"S",NA,"",NA,"None","pu",4,"f005","1C","auditory"
"200","3B.wav",92,"S",NA,"",NA,"None","pu",4,"f005","1C","auditory"
"201","3C.wav",93,"S",NA,"",NA,"None","pu",4,"f005","1C","auditory"
"202","4A.wav",94,"S",NA,"",NA,"None","pu",4,"f005","1C","auditory"
"203","4B.wav",95,"S",NA,"",0.225312583,"3","pu",4,"f005","1C","auditory"
"204","4C.wav",96,"S",NA,"",NA,"None","pu",4,"f005","1C","auditory"
"205","silence.wav",0,"B",NA,"",NA,"None","pu",4,"f005","1C","auditory"
"206","silence.wav",0,"B",NA,"",NA,"None","pu",4,"f005","1C","auditory"
"207","silence.wav",0,"B",NA,"",NA,"None","pu",4,"f005","1C","auditory"
"208","silence.wav",0,"B",NA,"",NA,"None","pu",4,"f005","1C","auditory"
"209","silence.wav",0,"B",NA,"",NA,"None","pu",4,"f005","1C","auditory"
"210","silence.wav",0,"B",NA,"",NA,"None","pu",4,"f005","1C","auditory"
"211","silence.wav",0,"B",NA,"",NA,"None","pu",4,"f005","1C","auditory"
"212","silence.wav",0,"B",NA,"",NA,"None","pu",4,"f005","1C","auditory"
"213","silence.wav",0,"B",NA,"",NA,"None","pu",4,"f005","1C","auditory"
"214","silence.wav",0,"B",NA,"",NA,"None","pu",4,"f005","1C","auditory"
"215","silence.wav",0,"B",NA,"",NA,"None","pu",4,"f005","1C","auditory"
"216","silence.wav",0,"B",NA,"",NA,"None","pu",4,"f005","1C","auditory"
"217","3A.wav",97,"S",NA,"",NA,"None","pu",4,"f005","1C","auditory"
"218","3B.wav",98,"S",NA,"",NA,"None","pu",4,"f005","1C","auditory"
"219","3C.wav",99,"S",NA,"",NA,"None","pu",4,"f005","1C","auditory"
"220","1A.wav",100,"S",NA,"",NA,"None","pu",4,"f005","1C","auditory"
"221","1B.wav",101,"S",NA,"",NA,"None","pu",4,"f005","1C","auditory"
"222","1C.wav",102,"S",NA,"",NA,"None","pu",4,"f005","1C","auditory"
"223","2A.wav",103,"S",NA,"",NA,"None","pu",4,"f005","1C","auditory"
"224","2B.wav",104,"S",NA,"",NA,"None","pu",4,"f005","1C","auditory"
"225","2C.wav",105,"S",NA,"",NA,"None","pu",4,"f005","1C","auditory"
"226","4A.wav",106,"S",NA,"",0.441978913,"3","pu",4,"f005","1C","auditory"
"227","4B.wav",107,"S",NA,"",NA,"None","pu",4,"f005","1C","auditory"
"228","4C.wav",108,"S",NA,"",NA,"None","pu",4,"f005","1C","auditory"
"229","1A.wav",109,"S",NA,"",NA,"None","pu",4,"f005","1C","auditory"
"230","1B.wav",110,"S",NA,"",NA,"None","pu",4,"f005","1C","auditory"
"231","1C.wav",111,"S",NA,"",NA,"None","pu",4,"f005","1C","auditory"
"232","3A.wav",112,"S",NA,"",NA,"None","pu",4,"f005","1C","auditory"
"233","3B.wav",113,"S",NA,"",NA,"None","pu",4,"f005","1C","auditory"
"234","3C.wav",114,"S",NA,"",NA,"None","pu",4,"f005","1C","auditory"
"235","4A.wav",115,"S",NA,"",NA,"None","pu",4,"f005","1C","auditory"
"236","4B.wav",116,"S",NA,"",NA,"None","pu",4,"f005","1C","auditory"
"237","4C.wav",117,"S",NA,"",NA,"None","pu",4,"f005","1C","auditory"
"238","2A.wav",118,"S",NA,"",0.075370339,"3","pu",4,"f005","1C","auditory"
"239","2B.wav",119,"S",NA,"",NA,"None","pu",4,"f005","1C","auditory"
"240","2C.wav",120,"S",NA,"",NA,"None","pu",4,"f005","1C","auditory"
"241","bu.wav",73,"R",NA,"None",NA,"","pu",4,"f005","1C","auditory"
"242","pi.wav",74,"R",0.316933224,"3",NA,"","pu",4,"f005","1C","auditory"
"243","ba.wav",75,"R",NA,"None",NA,"","pu",4,"f005","1C","auditory"
"244","ti.wav",76,"R",0.233732987,"3",NA,"","pu",4,"f005","1C","auditory"
"245","ba.wav",77,"R",NA,"None",NA,"","pu",4,"f005","1C","auditory"
"246","di.wav",78,"R",NA,"None",NA,"","pu",4,"f005","1C","auditory"
"247","tu.wav",79,"R",NA,"None",NA,"","pu",4,"f005","1C","auditory"
"248","ta.wav",80,"R",NA,"None",NA,"","pu",4,"f005","1C","auditory"
"249","bu.wav",81,"R",NA,"None",NA,"","pu",4,"f005","1C","auditory"
"250","du.wav",82,"R",0.250335146,"3",NA,"","pu",4,"f005","1C","auditory"
"251","bi.wav",83,"R",NA,"None",NA,"","pu",4,"f005","1C","auditory"
"252","pi.wav",84,"R",NA,"None",NA,"","pu",4,"f005","1C","auditory"
"253","du.wav",85,"R",NA,"None",NA,"","pu",4,"f005","1C","auditory"
"254","pu.wav",86,"R",NA,"None",NA,"","pu",4,"f005","1C","auditory"
"255","ta.wav",87,"R",0.233693734,"3",NA,"","pu",4,"f005","1C","auditory"
"256","da.wav",88,"R",NA,"None",NA,"","pu",4,"f005","1C","auditory"
"257","pu.wav",89,"R",NA,"None",NA,"","pu",4,"f005","1C","auditory"
"258","ti.wav",90,"R",0.317120104,"3",NA,"","pu",4,"f005","1C","auditory"
"259","pa.wav",91,"R",NA,"None",NA,"","pu",4,"f005","1C","auditory"
"260","pa.wav",92,"R",NA,"None",NA,"","pu",4,"f005","1C","auditory"
"261","bi.wav",93,"R",NA,"None",NA,"","pu",4,"f005","1C","auditory"
"262","tu.wav",94,"R",NA,"None",NA,"","pu",4,"f005","1C","auditory"
"263","di.wav",95,"R",NA,"None",NA,"","pu",4,"f005","1C","auditory"
"264","da.wav",96,"R",NA,"None",NA,"","pu",4,"f005","1C","auditory"
"265","ba.wav",97,"R",NA,"None",NA,"","pu",4,"f005","1C","auditory"
"266","bu.wav",98,"R",NA,"None",NA,"","pu",4,"f005","1C","auditory"
"267","tu.wav",99,"R",0.31700462,"3",NA,"","pu",4,"f005","1C","auditory"
"268","du.wav",100,"R",NA,"None",NA,"","pu",4,"f005","1C","auditory"
"269","bu.wav",101,"R",NA,"None",NA,"","pu",4,"f005","1C","auditory"
"270","di.wav",102,"R",NA,"None",NA,"","pu",4,"f005","1C","auditory"
"271","ti.wav",103,"R",NA,"None",NA,"","pu",4,"f005","1C","auditory"
"272","di.wav",104,"R",NA,"None",NA,"","pu",4,"f005","1C","auditory"
"273","da.wav",105,"R",NA,"None",NA,"","pu",4,"f005","1C","auditory"
"274","da.wav",106,"R",NA,"None",NA,"","pu",4,"f005","1C","auditory"
"275","pi.wav",107,"R",NA,"None",NA,"","pu",4,"f005","1C","auditory"
"276","tu.wav",108,"R",NA,"None",NA,"","pu",4,"f005","1C","auditory"
"277","pa.wav",109,"R",NA,"None",NA,"","pu",4,"f005","1C","auditory"
"278","ta.wav",110,"R",NA,"None",NA,"","pu",4,"f005","1C","auditory"
"279","ba.wav",111,"R",NA,"None",NA,"","pu",4,"f005","1C","auditory"
"280","pu.wav",112,"R",NA,"None",NA,"","pu",4,"f005","1C","auditory"
"281","bi.wav",113,"R",0.217188285,"3",NA,"","pu",4,"f005","1C","auditory"
"282","ti.wav",114,"R",NA,"None",NA,"","pu",4,"f005","1C","auditory"
"283","pi.wav",115,"R",NA,"None",NA,"","pu",4,"f005","1C","auditory"
"284","du.wav",116,"R",NA,"None",NA,"","pu",4,"f005","1C","auditory"
"285","ta.wav",117,"R",NA,"None",NA,"","pu",4,"f005","1C","auditory"
"286","pa.wav",118,"R",NA,"None",NA,"","pu",4,"f005","1C","auditory"
"287","pu.wav",119,"R",NA,"None",NA,"","pu",4,"f005","1C","auditory"
"288","bi.wav",120,"R",0.241999791,"3",NA,"","pu",4,"f005","1C","auditory"
"289","silence.wav",0,"B",NA,"None",NA,"","pu",4,"f005","1C","auditory"
"290","silence.wav",0,"B",NA,"None",NA,"","pu",4,"f005","1C","auditory"
"291","silence.wav",0,"B",NA,"None",NA,"","pu",4,"f005","1C","auditory"
"292","silence.wav",0,"B",NA,"None",NA,"","pu",4,"f005","1C","auditory"
"293","silence.wav",0,"B",NA,"None",NA,"","pu",4,"f005","1C","auditory"
"294","silence.wav",0,"B",NA,"None",NA,"","pu",4,"f005","1C","auditory"
"295","silence.wav",0,"B",NA,"None",NA,"","pu",4,"f005","1C","auditory"
"296","silence.wav",0,"B",NA,"None",NA,"","pu",4,"f005","1C","auditory"
"297","silence.wav",0,"B",NA,"None",NA,"","pu",4,"f005","1C","auditory"
"298","silence.wav",0,"B",NA,"None",NA,"","pu",4,"f005","1C","auditory"
"299","silence.wav",0,"B",NA,"None",NA,"","pu",4,"f005","1C","auditory"
"300","silence.wav",0,"B",NA,"None",NA,"","pu",4,"f005","1C","auditory"
"301","1A.wav",121,"S",NA,"",NA,"None","pu",4,"f005","1C","auditory"
"302","1B.wav",122,"S",NA,"",NA,"None","pu",4,"f005","1C","auditory"
"303","1C.wav",123,"S",NA,"",NA,"None","pu",4,"f005","1C","auditory"
"304","3A.wav",124,"S",NA,"",NA,"None","pu",4,"f005","1C","auditory"
"305","3B.wav",125,"S",NA,"",NA,"None","pu",4,"f005","1C","auditory"
"306","3C.wav",126,"S",NA,"",NA,"None","pu",4,"f005","1C","auditory"
"307","1A.wav",127,"S",NA,"",NA,"None","pu",4,"f005","1C","auditory"
"308","1B.wav",128,"S",NA,"",NA,"None","pu",4,"f005","1C","auditory"
"309","1C.wav",129,"S",NA,"",NA,"None","pu",4,"f005","1C","auditory"
"310","2A.wav",130,"S",NA,"",NA,"None","pu",4,"f005","1C","auditory"
"311","2B.wav",131,"S",NA,"",NA,"None","pu",4,"f005","1C","auditory"
"312","2C.wav",132,"S",NA,"",NA,"None","pu",4,"f005","1C","auditory"
"313","4A.wav",133,"S",NA,"",NA,"None","pu",4,"f005","1C","auditory"
"314","4B.wav",134,"S",NA,"",NA,"None","pu",4,"f005","1C","auditory"
"315","4C.wav",135,"S",NA,"",NA,"None","pu",4,"f005","1C","auditory"
"316","2A.wav",136,"S",NA,"",NA,"None","pu",4,"f005","1C","auditory"
"317","2B.wav",137,"S",NA,"",NA,"None","pu",4,"f005","1C","auditory"
"318","2C.wav",138,"S",NA,"",NA,"None","pu",4,"f005","1C","auditory"
"319","4A.wav",139,"S",NA,"",NA,"None","pu",4,"f005","1C","auditory"
"320","4B.wav",140,"S",NA,"",NA,"None","pu",4,"f005","1C","auditory"
"321","4C.wav",141,"S",NA,"",NA,"None","pu",4,"f005","1C","auditory"
"322","1A.wav",142,"S",NA,"",0.325417059,"3","pu",4,"f005","1C","auditory"
"323","1B.wav",143,"S",NA,"",NA,"None","pu",4,"f005","1C","auditory"
"324","1C.wav",144,"S",NA,"",NA,"None","pu",4,"f005","1C","auditory"
"325","3A.wav",145,"S",NA,"",NA,"None","pu",4,"f005","1C","auditory"
"326","3B.wav",146,"S",NA,"",NA,"None","pu",4,"f005","1C","auditory"
"327","3C.wav",147,"S",NA,"",NA,"None","pu",4,"f005","1C","auditory"
"328","4A.wav",148,"S",NA,"",NA,"None","pu",4,"f005","1C","auditory"
"329","4B.wav",149,"S",NA,"",NA,"None","pu",4,"f005","1C","auditory"
"330","4C.wav",150,"S",NA,"",NA,"None","pu",4,"f005","1C","auditory"
"331","3A.wav",151,"S",NA,"",0.217216161,"3","pu",4,"f005","1C","auditory"
"332","3B.wav",152,"S",NA,"",NA,"None","pu",4,"f005","1C","auditory"
"333","3C.wav",153,"S",NA,"",NA,"None","pu",4,"f005","1C","auditory"
"334","2A.wav",154,"S",NA,"",NA,"None","pu",4,"f005","1C","auditory"
"335","2B.wav",155,"S",NA,"",NA,"None","pu",4,"f005","1C","auditory"
"336","2C.wav",156,"S",NA,"",NA,"None","pu",4,"f005","1C","auditory"
"337","1A.wav",157,"S",NA,"",NA,"None","pu",4,"f005","1C","auditory"
"338","1B.wav",158,"S",NA,"",NA,"None","pu",4,"f005","1C","auditory"
"339","1C.wav",159,"S",NA,"",NA,"None","pu",4,"f005","1C","auditory"
"340","3A.wav",160,"S",NA,"",NA,"None","pu",4,"f005","1C","auditory"
"341","3B.wav",161,"S",NA,"",NA,"None","pu",4,"f005","1C","auditory"
"342","3C.wav",162,"S",NA,"",NA,"None","pu",4,"f005","1C","auditory"
"343","2A.wav",163,"S",NA,"",NA,"None","pu",4,"f005","1C","auditory"
"344","2B.wav",164,"S",NA,"",NA,"None","pu",4,"f005","1C","auditory"
"345","2C.wav",165,"S",NA,"",NA,"None","pu",4,"f005","1C","auditory"
"346","1A.wav",166,"S",NA,"",0.258664813,"3","pu",4,"f005","1C","auditory"
"347","1B.wav",167,"S",NA,"",NA,"None","pu",4,"f005","1C","auditory"
"348","1C.wav",168,"S",NA,"",NA,"None","pu",4,"f005","1C","auditory"
"349","silence.wav",0,"B",NA,"",NA,"None","pu",4,"f005","1C","auditory"
"350","silence.wav",0,"B",NA,"",NA,"None","pu",4,"f005","1C","auditory"
"351","silence.wav",0,"B",NA,"",NA,"None","pu",4,"f005","1C","auditory"
"352","silence.wav",0,"B",NA,"",NA,"None","pu",4,"f005","1C","auditory"
"353","silence.wav",0,"B",NA,"",NA,"None","pu",4,"f005","1C","auditory"
"354","silence.wav",0,"B",NA,"",NA,"None","pu",4,"f005","1C","auditory"
"355","silence.wav",0,"B",NA,"",NA,"None","pu",4,"f005","1C","auditory"
"356","silence.wav",0,"B",NA,"",NA,"None","pu",4,"f005","1C","auditory"
"357","silence.wav",0,"B",NA,"",NA,"None","pu",4,"f005","1C","auditory"
"358","silence.wav",0,"B",NA,"",NA,"None","pu",4,"f005","1C","auditory"
"359","silence.wav",0,"B",NA,"",NA,"None","pu",4,"f005","1C","auditory"
"360","silence.wav",0,"B",NA,"",NA,"None","pu",4,"f005","1C","auditory"
"361","4A.wav",169,"S",NA,"",NA,"None","pu",4,"f005","1C","auditory"
"362","4B.wav",170,"S",NA,"",NA,"None","pu",4,"f005","1C","auditory"
"363","4C.wav",171,"S",NA,"",NA,"None","pu",4,"f005","1C","auditory"
"364","1A.wav",172,"S",NA,"",NA,"None","pu",4,"f005","1C","auditory"
"365","1B.wav",173,"S",NA,"",NA,"None","pu",4,"f005","1C","auditory"
"366","1C.wav",174,"S",NA,"",NA,"None","pu",4,"f005","1C","auditory"
"367","3A.wav",175,"S",NA,"",NA,"None","pu",4,"f005","1C","auditory"
"368","3B.wav",176,"S",NA,"",NA,"None","pu",4,"f005","1C","auditory"
"369","3C.wav",177,"S",NA,"",NA,"None","pu",4,"f005","1C","auditory"
"370","4A.wav",178,"S",NA,"",NA,"None","pu",4,"f005","1C","auditory"
"371","4B.wav",179,"S",NA,"",NA,"None","pu",4,"f005","1C","auditory"
"372","4C.wav",180,"S",NA,"",NA,"None","pu",4,"f005","1C","auditory"
"373","2A.wav",181,"S",NA,"",NA,"None","pu",4,"f005","1C","auditory"
"374","2B.wav",182,"S",NA,"",NA,"None","pu",4,"f005","1C","auditory"
"375","2C.wav",183,"S",NA,"",NA,"None","pu",4,"f005","1C","auditory"
"376","4A.wav",184,"S",NA,"",NA,"None","pu",4,"f005","1C","auditory"
"377","4B.wav",185,"S",NA,"",NA,"None","pu",4,"f005","1C","auditory"
"378","4C.wav",186,"S",NA,"",NA,"None","pu",4,"f005","1C","auditory"
"379","1A.wav",187,"S",NA,"",NA,"None","pu",4,"f005","1C","auditory"
"380","1B.wav",188,"S",NA,"",0.008610128,"3","pu",4,"f005","1C","auditory"
"381","1C.wav",189,"S",NA,"",NA,"None","pu",4,"f005","1C","auditory"
"382","2A.wav",190,"S",NA,"",NA,"None","pu",4,"f005","1C","auditory"
"383","2B.wav",191,"S",NA,"",NA,"None","pu",4,"f005","1C","auditory"
"384","2C.wav",192,"S",NA,"",NA,"None","pu",4,"f005","1C","auditory"
"385","silence.wav",0,"B",NA,"",NA,"None","pu",4,"f005","1C","auditory"
"386","silence.wav",0,"B",NA,"",NA,"None","pu",4,"f005","1C","auditory"
"387","silence.wav",0,"B",NA,"",NA,"None","pu",4,"f005","1C","auditory"
"388","silence.wav",0,"B",NA,"",NA,"None","pu",4,"f005","1C","auditory"
"389","silence.wav",0,"B",NA,"",NA,"None","pu",4,"f005","1C","auditory"
"390","silence.wav",0,"B",NA,"",NA,"None","pu",4,"f005","1C","auditory"
"391","silence.wav",0,"B",NA,"",NA,"None","pu",4,"f005","1C","auditory"
"392","silence.wav",0,"B",NA,"",NA,"None","pu",4,"f005","1C","auditory"
"393","silence.wav",0,"B",NA,"",NA,"None","pu",4,"f005","1C","auditory"
"394","silence.wav",0,"B",NA,"",NA,"None","pu",4,"f005","1C","auditory"
"395","silence.wav",0,"B",NA,"",NA,"None","pu",4,"f005","1C","auditory"
"396","silence.wav",0,"B",NA,"",NA,"None","pu",4,"f005","1C","auditory"
"397","pu.wav",121,"R",NA,"None",NA,"","pu",4,"f005","1C","auditory"
"398","ti.wav",122,"R",0.417022341,"3",NA,"","pu",4,"f005","1C","auditory"
"399","tu.wav",123,"R",NA,"None",NA,"","pu",4,"f005","1C","auditory"
"400","ba.wav",124,"R",NA,"None",NA,"","pu",4,"f005","1C","auditory"
"401","ta.wav",125,"R",NA,"None",NA,"","pu",4,"f005","1C","auditory"
"402","da.wav",126,"R",NA,"None",NA,"","pu",4,"f005","1C","auditory"
"403","di.wav",127,"R",NA,"None",NA,"","pu",4,"f005","1C","auditory"
"404","ti.wav",128,"R",NA,"None",NA,"","pu",4,"f005","1C","auditory"
"405","du.wav",129,"R",NA,"None",NA,"","pu",4,"f005","1C","auditory"
"406","da.wav",130,"R",NA,"None",NA,"","pu",4,"f005","1C","auditory"
"407","ba.wav",131,"R",NA,"None",NA,"","pu",4,"f005","1C","auditory"
"408","bu.wav",132,"R",NA,"None",NA,"","pu",4,"f005","1C","auditory"
"409","du.wav",133,"R",0.267007564,"3",NA,"","pu",4,"f005","1C","auditory"
"410","di.wav",134,"R",NA,"None",NA,"","pu",4,"f005","1C","auditory"
"411","di.wav",135,"R",NA,"None",NA,"","pu",4,"f005","1C","auditory"
"412","pu.wav",136,"R",NA,"None",NA,"","pu",4,"f005","1C","auditory"
"413","pi.wav",137,"R",NA,"None",NA,"","pu",4,"f005","1C","auditory"
"414","pa.wav",138,"R",0.075309468,"3",NA,"","pu",4,"f005","1C","auditory"
"415","pa.wav",139,"R",NA,"None",NA,"","pu",4,"f005","1C","auditory"
"416","bi.wav",140,"R",NA,"None",NA,"","pu",4,"f005","1C","auditory"
"417","ba.wav",141,"R",NA,"None",NA,"","pu",4,"f005","1C","auditory"
"418","pu.wav",142,"R",NA,"None",NA,"","pu",4,"f005","1C","auditory"
"419","ta.wav",143,"R",0.217032694,"3",NA,"","pu",4,"f005","1C","auditory"
"420","bu.wav",144,"R",NA,"None",NA,"","pu",4,"f005","1C","auditory"
"421","silence.wav",0,"B",NA,"None",NA,"","pu",4,"f005","1C","auditory"
"422","silence.wav",0,"B",0.325349077,"3",NA,"","pu",4,"f005","1C","auditory"
"423","silence.wav",0,"B",NA,"None",NA,"","pu",4,"f005","1C","auditory"
"424","silence.wav",0,"B",NA,"None",NA,"","pu",4,"f005","1C","auditory"
"425","silence.wav",0,"B",NA,"None",NA,"","pu",4,"f005","1C","auditory"
"426","silence.wav",0,"B",NA,"None",NA,"","pu",4,"f005","1C","auditory"
"427","silence.wav",0,"B",NA,"None",NA,"","pu",4,"f005","1C","auditory"
"428","silence.wav",0,"B",NA,"None",NA,"","pu",4,"f005","1C","auditory"
"429","silence.wav",0,"B",NA,"None",NA,"","pu",4,"f005","1C","auditory"
"430","silence.wav",0,"B",NA,"None",NA,"","pu",4,"f005","1C","auditory"
"431","silence.wav",0,"B",NA,"None",NA,"","pu",4,"f005","1C","auditory"
"432","silence.wav",0,"B",NA,"None",NA,"","pu",4,"f005","1C","auditory"
"433","di.wav",145,"R",NA,"None",NA,"","pu",4,"f005","1C","auditory"
"434","bu.wav",146,"R",NA,"None",NA,"","pu",4,"f005","1C","auditory"
"435","bi.wav",147,"R",NA,"None",NA,"","pu",4,"f005","1C","auditory"
"436","bi.wav",148,"R",0.042027781,"3",NA,"","pu",4,"f005","1C","auditory"
"437","ba.wav",149,"R",NA,"None",NA,"","pu",4,"f005","1C","auditory"
"438","tu.wav",150,"R",NA,"None",NA,"","pu",4,"f005","1C","auditory"
"439","tu.wav",151,"R",NA,"None",NA,"","pu",4,"f005","1C","auditory"
"440","pu.wav",152,"R",NA,"None",NA,"","pu",4,"f005","1C","auditory"
"441","du.wav",153,"R",0.283718665,"3",NA,"","pu",4,"f005","1C","auditory"
"442","ba.wav",154,"R",NA,"None",NA,"","pu",4,"f005","1C","auditory"
"443","tu.wav",155,"R",NA,"None",NA,"","pu",4,"f005","1C","auditory"
"444","ti.wav",156,"R",NA,"None",NA,"","pu",4,"f005","1C","auditory"
"445","ta.wav",157,"R",NA,"None",NA,"","pu",4,"f005","1C","auditory"
"446","pa.wav",158,"R",NA,"None",NA,"","pu",4,"f005","1C","auditory"
"447","da.wav",159,"R",NA,"None",NA,"","pu",4,"f005","1C","auditory"
"448","di.wav",160,"R",NA,"None",NA,"","pu",4,"f005","1C","auditory"
"449","pi.wav",161,"R",NA,"None",NA,"","pu",4,"f005","1C","auditory"
"450","pu.wav",162,"R",NA,"None",NA,"","pu",4,"f005","1C","auditory"
"451","pi.wav",163,"R",0.200333539,"3",NA,"","pu",4,"f005","1C","auditory"
"452","bi.wav",164,"R",NA,"None",NA,"","pu",4,"f005","1C","auditory"
"453","pa.wav",165,"R",NA,"None",NA,"","pu",4,"f005","1C","auditory"
"454","da.wav",166,"R",NA,"None",NA,"","pu",4,"f005","1C","auditory"
"455","bu.wav",167,"R",NA,"None",NA,"","pu",4,"f005","1C","auditory"
"456","pi.wav",168,"R",0.208670032,"3",NA,"","pu",4,"f005","1C","auditory"
"457","pa.wav",169,"R",NA,"None",NA,"","pu",4,"f005","1C","auditory"
"458","ba.wav",170,"R",NA,"None",NA,"","pu",4,"f005","1C","auditory"
"459","ta.wav",171,"R",NA,"None",NA,"","pu",4,"f005","1C","auditory"
"460","pi.wav",172,"R",NA,"None",NA,"","pu",4,"f005","1C","auditory"
"461","di.wav",173,"R",NA,"None",NA,"","pu",4,"f005","1C","auditory"
"462","pa.wav",174,"R",NA,"None",NA,"","pu",4,"f005","1C","auditory"
"463","ti.wav",175,"R",NA,"None",NA,"","pu",4,"f005","1C","auditory"
"464","bi.wav",176,"R",NA,"None",NA,"","pu",4,"f005","1C","auditory"
"465","ti.wav",177,"R",NA,"None",NA,"","pu",4,"f005","1C","auditory"
"466","tu.wav",178,"R",NA,"None",NA,"","pu",4,"f005","1C","auditory"
"467","bu.wav",179,"R",NA,"None",NA,"","pu",4,"f005","1C","auditory"
"468","du.wav",180,"R",0.291953043,"3",NA,"","pu",4,"f005","1C","auditory"
"469","du.wav",181,"R",NA,"None",NA,"","pu",4,"f005","1C","auditory"
"470","pu.wav",182,"R",NA,"None",NA,"","pu",4,"f005","1C","auditory"
"471","da.wav",183,"R",NA,"None",NA,"","pu",4,"f005","1C","auditory"
"472","ba.wav",184,"R",0.141998568,"3",NA,"","pu",4,"f005","1C","auditory"
"473","ta.wav",185,"R",NA,"None",NA,"","pu",4,"f005","1C","auditory"
"474","da.wav",186,"R",NA,"None",NA,"","pu",4,"f005","1C","auditory"
"475","ti.wav",187,"R",NA,"None",NA,"","pu",4,"f005","1C","auditory"
"476","pu.wav",188,"R",NA,"None",NA,"","pu",4,"f005","1C","auditory"
"477","ta.wav",189,"R",0.283659216,"3",NA,"","pu",4,"f005","1C","auditory"
"478","du.wav",190,"R",NA,"None",NA,"","pu",4,"f005","1C","auditory"
"479","bu.wav",191,"R",NA,"None",NA,"","pu",4,"f005","1C","auditory"
"480","di.wav",192,"R",0.392022533,"3",NA,"","pu",4,"f005","1C","auditory"
