soundFile,word,location,repetition,trialnum,condition,fam_trials_loop.thisRepN,fam_trials_loop.thisTrialN,fam_trials_loop.thisN,fam_trials_loop.thisIndex,trials_1.thisRepN,trials_1.thisTrialN,trials_1.thisN,trials_1.thisIndex,test_trials.thisRepN,test_trials.thisTrialN,test_trials.thisN,test_trials.thisIndex,corrAns,soundFile3,soundFile2,soundFile1,soundFile6,soundFile5,soundFile4,sound_block_key_resp.keys,sound_block_key_resp.rt,tone_block_key_resp.keys,tone_block_key_resp.rt,instr8_key_resp.keys,instr8_key_resp.rt,instr9_key_resp.keys,instr9_key_resp.rt,instr10_key_resp.keys,instr10_key_resp.rt,starget,Run,PartID,frameRate,ttarget,expName,date
pi.wav,1,1,41,481,S,0,0,0,0,,,,,,,,,,,,,,,,None,,,,,,,,,,bi,2,f008,119.9512435,1C,auditory,2018_Jan_30_1606
tu.wav,1,2,41,482,S,0,1,1,1,,,,,,,,,,,,,,,,None,,,,,,,,,,bi,2,f008,119.9512435,1C,auditory,2018_Jan_30_1606
bi.wav,1,3,41,483,S,0,2,2,2,,,,,,,,,,,,,,,,None,,,,,,,,,,bi,2,f008,119.9512435,1C,auditory,2018_Jan_30_1606
bu.wav,4,1,41,484,S,0,3,3,3,,,,,,,,,,,,,,,,3,0.242100485,,,,,,,,,bi,2,f008,119.9512435,1C,auditory,2018_Jan_30_1606
pa.wav,4,2,41,485,S,0,4,4,4,,,,,,,,,,,,,,,,None,,,,,,,,,,bi,2,f008,119.9512435,1C,auditory,2018_Jan_30_1606
da.wav,4,3,41,486,S,0,5,5,5,,,,,,,,,,,,,,,,None,,,,,,,,,,bi,2,f008,119.9512435,1C,auditory,2018_Jan_30_1606
di.wav,2,1,41,487,S,0,6,6,6,,,,,,,,,,,,,,,,None,,,,,,,,,,bi,2,f008,119.9512435,1C,auditory,2018_Jan_30_1606
ba.wav,2,2,41,488,S,0,7,7,7,,,,,,,,,,,,,,,,None,,,,,,,,,,bi,2,f008,119.9512435,1C,auditory,2018_Jan_30_1606
pu.wav,2,3,41,489,S,0,8,8,8,,,,,,,,,,,,,,,,None,,,,,,,,,,bi,2,f008,119.9512435,1C,auditory,2018_Jan_30_1606
ta.wav,3,1,41,490,S,0,9,9,9,,,,,,,,,,,,,,,,None,,,,,,,,,,bi,2,f008,119.9512435,1C,auditory,2018_Jan_30_1606
ti.wav,3,2,41,491,S,0,10,10,10,,,,,,,,,,,,,,,,None,,,,,,,,,,bi,2,f008,119.9512435,1C,auditory,2018_Jan_30_1606
du.wav,3,3,41,492,S,0,11,11,11,,,,,,,,,,,,,,,,None,,,,,,,,,,bi,2,f008,119.9512435,1C,auditory,2018_Jan_30_1606
bu.wav,4,1,42,493,S,0,12,12,12,,,,,,,,,,,,,,,,None,,,,,,,,,,bi,2,f008,119.9512435,1C,auditory,2018_Jan_30_1606
pa.wav,4,2,42,494,S,0,13,13,13,,,,,,,,,,,,,,,,None,,,,,,,,,,bi,2,f008,119.9512435,1C,auditory,2018_Jan_30_1606
da.wav,4,3,42,495,S,0,14,14,14,,,,,,,,,,,,,,,,None,,,,,,,,,,bi,2,f008,119.9512435,1C,auditory,2018_Jan_30_1606
pi.wav,1,1,42,496,S,0,15,15,15,,,,,,,,,,,,,,,,None,,,,,,,,,,bi,2,f008,119.9512435,1C,auditory,2018_Jan_30_1606
tu.wav,1,2,42,497,S,0,16,16,16,,,,,,,,,,,,,,,,None,,,,,,,,,,bi,2,f008,119.9512435,1C,auditory,2018_Jan_30_1606
bi.wav,1,3,42,498,S,0,17,17,17,,,,,,,,,,,,,,,,None,,,,,,,,,,bi,2,f008,119.9512435,1C,auditory,2018_Jan_30_1606
di.wav,2,1,42,499,S,0,18,18,18,,,,,,,,,,,,,,,,3,0.200369379,,,,,,,,,bi,2,f008,119.9512435,1C,auditory,2018_Jan_30_1606
ba.wav,2,2,42,500,S,0,19,19,19,,,,,,,,,,,,,,,,None,,,,,,,,,,bi,2,f008,119.9512435,1C,auditory,2018_Jan_30_1606
pu.wav,2,3,42,501,S,0,20,20,20,,,,,,,,,,,,,,,,None,,,,,,,,,,bi,2,f008,119.9512435,1C,auditory,2018_Jan_30_1606
ta.wav,3,1,42,502,S,0,21,21,21,,,,,,,,,,,,,,,,None,,,,,,,,,,bi,2,f008,119.9512435,1C,auditory,2018_Jan_30_1606
ti.wav,3,2,42,503,S,0,22,22,22,,,,,,,,,,,,,,,,None,,,,,,,,,,bi,2,f008,119.9512435,1C,auditory,2018_Jan_30_1606
du.wav,3,3,42,504,S,0,23,23,23,,,,,,,,,,,,,,,,None,,,,,,,,,,bi,2,f008,119.9512435,1C,auditory,2018_Jan_30_1606
pi.wav,1,1,43,505,S,0,24,24,24,,,,,,,,,,,,,,,,None,,,,,,,,,,bi,2,f008,119.9512435,1C,auditory,2018_Jan_30_1606
tu.wav,1,2,43,506,S,0,25,25,25,,,,,,,,,,,,,,,,None,,,,,,,,,,bi,2,f008,119.9512435,1C,auditory,2018_Jan_30_1606
bi.wav,1,3,43,507,S,0,26,26,26,,,,,,,,,,,,,,,,None,,,,,,,,,,bi,2,f008,119.9512435,1C,auditory,2018_Jan_30_1606
ta.wav,3,1,43,508,S,0,27,27,27,,,,,,,,,,,,,,,,3,0.26694015,,,,,,,,,bi,2,f008,119.9512435,1C,auditory,2018_Jan_30_1606
ti.wav,3,2,43,509,S,0,28,28,28,,,,,,,,,,,,,,,,None,,,,,,,,,,bi,2,f008,119.9512435,1C,auditory,2018_Jan_30_1606
du.wav,3,3,43,510,S,0,29,29,29,,,,,,,,,,,,,,,,None,,,,,,,,,,bi,2,f008,119.9512435,1C,auditory,2018_Jan_30_1606
bu.wav,4,1,43,511,S,0,30,30,30,,,,,,,,,,,,,,,,None,,,,,,,,,,bi,2,f008,119.9512435,1C,auditory,2018_Jan_30_1606
pa.wav,4,2,43,512,S,0,31,31,31,,,,,,,,,,,,,,,,None,,,,,,,,,,bi,2,f008,119.9512435,1C,auditory,2018_Jan_30_1606
da.wav,4,3,43,513,S,0,32,32,32,,,,,,,,,,,,,,,,None,,,,,,,,,,bi,2,f008,119.9512435,1C,auditory,2018_Jan_30_1606
di.wav,2,1,43,514,S,0,33,33,33,,,,,,,,,,,,,,,,None,,,,,,,,,,bi,2,f008,119.9512435,1C,auditory,2018_Jan_30_1606
ba.wav,2,2,43,515,S,0,34,34,34,,,,,,,,,,,,,,,,None,,,,,,,,,,bi,2,f008,119.9512435,1C,auditory,2018_Jan_30_1606
pu.wav,2,3,43,516,S,0,35,35,35,,,,,,,,,,,,,,,,None,,,,,,,,,,bi,2,f008,119.9512435,1C,auditory,2018_Jan_30_1606
bu.wav,4,1,44,517,S,0,36,36,36,,,,,,,,,,,,,,,,None,,,,,,,,,,bi,2,f008,119.9512435,1C,auditory,2018_Jan_30_1606
pa.wav,4,2,44,518,S,0,37,37,37,,,,,,,,,,,,,,,,None,,,,,,,,,,bi,2,f008,119.9512435,1C,auditory,2018_Jan_30_1606
da.wav,4,3,44,519,S,0,38,38,38,,,,,,,,,,,,,,,,None,,,,,,,,,,bi,2,f008,119.9512435,1C,auditory,2018_Jan_30_1606
ta.wav,3,1,44,520,S,0,39,39,39,,,,,,,,,,,,,,,,None,,,,,,,,,,bi,2,f008,119.9512435,1C,auditory,2018_Jan_30_1606
ti.wav,3,2,44,521,S,0,40,40,40,,,,,,,,,,,,,,,,None,,,,,,,,,,bi,2,f008,119.9512435,1C,auditory,2018_Jan_30_1606
du.wav,3,3,44,522,S,0,41,41,41,,,,,,,,,,,,,,,,None,,,,,,,,,,bi,2,f008,119.9512435,1C,auditory,2018_Jan_30_1606
pi.wav,1,1,44,523,S,0,42,42,42,,,,,,,,,,,,,,,,None,,,,,,,,,,bi,2,f008,119.9512435,1C,auditory,2018_Jan_30_1606
tu.wav,1,2,44,524,S,0,43,43,43,,,,,,,,,,,,,,,,None,,,,,,,,,,bi,2,f008,119.9512435,1C,auditory,2018_Jan_30_1606
bi.wav,1,3,44,525,S,0,44,44,44,,,,,,,,,,,,,,,,None,,,,,,,,,,bi,2,f008,119.9512435,1C,auditory,2018_Jan_30_1606
di.wav,2,1,44,526,S,0,45,45,45,,,,,,,,,,,,,,,,3,0.166944332,,,,,,,,,bi,2,f008,119.9512435,1C,auditory,2018_Jan_30_1606
ba.wav,2,2,44,527,S,0,46,46,46,,,,,,,,,,,,,,,,None,,,,,,,,,,bi,2,f008,119.9512435,1C,auditory,2018_Jan_30_1606
pu.wav,2,3,44,528,S,0,47,47,47,,,,,,,,,,,,,,,,None,,,,,,,,,,bi,2,f008,119.9512435,1C,auditory,2018_Jan_30_1606
bu.wav,4,1,45,529,S,0,48,48,48,,,,,,,,,,,,,,,,None,,,,,,,,,,bi,2,f008,119.9512435,1C,auditory,2018_Jan_30_1606
pa.wav,4,2,45,530,S,0,49,49,49,,,,,,,,,,,,,,,,None,,,,,,,,,,bi,2,f008,119.9512435,1C,auditory,2018_Jan_30_1606
da.wav,4,3,45,531,S,0,50,50,50,,,,,,,,,,,,,,,,None,,,,,,,,,,bi,2,f008,119.9512435,1C,auditory,2018_Jan_30_1606
pi.wav,1,1,45,532,S,0,51,51,51,,,,,,,,,,,,,,,,None,,,,,,,,,,bi,2,f008,119.9512435,1C,auditory,2018_Jan_30_1606
tu.wav,1,2,45,533,S,0,52,52,52,,,,,,,,,,,,,,,,None,,,,,,,,,,bi,2,f008,119.9512435,1C,auditory,2018_Jan_30_1606
bi.wav,1,3,45,534,S,0,53,53,53,,,,,,,,,,,,,,,,None,,,,,,,,,,bi,2,f008,119.9512435,1C,auditory,2018_Jan_30_1606
ta.wav,3,1,45,535,S,0,54,54,54,,,,,,,,,,,,,,,,3,0.11701412,,,,,,,,,bi,2,f008,119.9512435,1C,auditory,2018_Jan_30_1606
ti.wav,3,2,45,536,S,0,55,55,55,,,,,,,,,,,,,,,,None,,,,,,,,,,bi,2,f008,119.9512435,1C,auditory,2018_Jan_30_1606
du.wav,3,3,45,537,S,0,56,56,56,,,,,,,,,,,,,,,,None,,,,,,,,,,bi,2,f008,119.9512435,1C,auditory,2018_Jan_30_1606
bu.wav,4,1,46,538,S,0,57,57,57,,,,,,,,,,,,,,,,None,,,,,,,,,,bi,2,f008,119.9512435,1C,auditory,2018_Jan_30_1606
pa.wav,4,2,46,539,S,0,58,58,58,,,,,,,,,,,,,,,,None,,,,,,,,,,bi,2,f008,119.9512435,1C,auditory,2018_Jan_30_1606
da.wav,4,3,46,540,S,0,59,59,59,,,,,,,,,,,,,,,,None,,,,,,,,,,bi,2,f008,119.9512435,1C,auditory,2018_Jan_30_1606
pi.wav,1,1,46,541,S,0,60,60,60,,,,,,,,,,,,,,,,None,,,,,,,,,,bi,2,f008,119.9512435,1C,auditory,2018_Jan_30_1606
tu.wav,1,2,46,542,S,0,61,61,61,,,,,,,,,,,,,,,,None,,,,,,,,,,bi,2,f008,119.9512435,1C,auditory,2018_Jan_30_1606
bi.wav,1,3,46,543,S,0,62,62,62,,,,,,,,,,,,,,,,None,,,,,,,,,,bi,2,f008,119.9512435,1C,auditory,2018_Jan_30_1606
ta.wav,3,1,46,544,S,0,63,63,63,,,,,,,,,,,,,,,,3,0.050491136,,,,,,,,,bi,2,f008,119.9512435,1C,auditory,2018_Jan_30_1606
ti.wav,3,2,46,545,S,0,64,64,64,,,,,,,,,,,,,,,,None,,,,,,,,,,bi,2,f008,119.9512435,1C,auditory,2018_Jan_30_1606
du.wav,3,3,46,546,S,0,65,65,65,,,,,,,,,,,,,,,,None,,,,,,,,,,bi,2,f008,119.9512435,1C,auditory,2018_Jan_30_1606
di.wav,2,1,45,547,S,0,66,66,66,,,,,,,,,,,,,,,,None,,,,,,,,,,bi,2,f008,119.9512435,1C,auditory,2018_Jan_30_1606
ba.wav,2,2,45,548,S,0,67,67,67,,,,,,,,,,,,,,,,None,,,,,,,,,,bi,2,f008,119.9512435,1C,auditory,2018_Jan_30_1606
pu.wav,2,3,45,549,S,0,68,68,68,,,,,,,,,,,,,,,,None,,,,,,,,,,bi,2,f008,119.9512435,1C,auditory,2018_Jan_30_1606
bu.wav,4,1,47,550,S,0,69,69,69,,,,,,,,,,,,,,,,None,,,,,,,,,,bi,2,f008,119.9512435,1C,auditory,2018_Jan_30_1606
pa.wav,4,2,47,551,S,0,70,70,70,,,,,,,,,,,,,,,,None,,,,,,,,,,bi,2,f008,119.9512435,1C,auditory,2018_Jan_30_1606
da.wav,4,3,47,552,S,0,71,71,71,,,,,,,,,,,,,,,,None,,,,,,,,,,bi,2,f008,119.9512435,1C,auditory,2018_Jan_30_1606
di.wav,2,1,46,553,S,0,72,72,72,,,,,,,,,,,,,,,,None,,,,,,,,,,bi,2,f008,119.9512435,1C,auditory,2018_Jan_30_1606
ba.wav,2,2,46,554,S,0,73,73,73,,,,,,,,,,,,,,,,None,,,,,,,,,,bi,2,f008,119.9512435,1C,auditory,2018_Jan_30_1606
pu.wav,2,3,46,555,S,0,74,74,74,,,,,,,,,,,,,,,,None,,,,,,,,,,bi,2,f008,119.9512435,1C,auditory,2018_Jan_30_1606
ta.wav,3,1,47,556,S,0,75,75,75,,,,,,,,,,,,,,,,None,,,,,,,,,,bi,2,f008,119.9512435,1C,auditory,2018_Jan_30_1606
ti.wav,3,2,47,557,S,0,76,76,76,,,,,,,,,,,,,,,,None,,,,,,,,,,bi,2,f008,119.9512435,1C,auditory,2018_Jan_30_1606
du.wav,3,3,47,558,S,0,77,77,77,,,,,,,,,,,,,,,,None,,,,,,,,,,bi,2,f008,119.9512435,1C,auditory,2018_Jan_30_1606
pi.wav,1,1,47,559,S,0,78,78,78,,,,,,,,,,,,,,,,None,,,,,,,,,,bi,2,f008,119.9512435,1C,auditory,2018_Jan_30_1606
tu.wav,1,2,47,560,S,0,79,79,79,,,,,,,,,,,,,,,,None,,,,,,,,,,bi,2,f008,119.9512435,1C,auditory,2018_Jan_30_1606
bi.wav,1,3,47,561,S,0,80,80,80,,,,,,,,,,,,,,,,None,,,,,,,,,,bi,2,f008,119.9512435,1C,auditory,2018_Jan_30_1606
di.wav,2,1,47,562,S,0,81,81,81,,,,,,,,,,,,,,,,3,0.367082458,,,,,,,,,bi,2,f008,119.9512435,1C,auditory,2018_Jan_30_1606
ba.wav,2,2,47,563,S,0,82,82,82,,,,,,,,,,,,,,,,None,,,,,,,,,,bi,2,f008,119.9512435,1C,auditory,2018_Jan_30_1606
pu.wav,2,3,47,564,S,0,83,83,83,,,,,,,,,,,,,,,,None,,,,,,,,,,bi,2,f008,119.9512435,1C,auditory,2018_Jan_30_1606
ta.wav,3,1,48,565,S,0,84,84,84,,,,,,,,,,,,,,,,None,,,,,,,,,,bi,2,f008,119.9512435,1C,auditory,2018_Jan_30_1606
ti.wav,3,2,48,566,S,0,85,85,85,,,,,,,,,,,,,,,,None,,,,,,,,,,bi,2,f008,119.9512435,1C,auditory,2018_Jan_30_1606
du.wav,3,3,48,567,S,0,86,86,86,,,,,,,,,,,,,,,,None,,,,,,,,,,bi,2,f008,119.9512435,1C,auditory,2018_Jan_30_1606
bu.wav,4,1,48,568,S,0,87,87,87,,,,,,,,,,,,,,,,None,,,,,,,,,,bi,2,f008,119.9512435,1C,auditory,2018_Jan_30_1606
pa.wav,4,2,48,569,S,0,88,88,88,,,,,,,,,,,,,,,,None,,,,,,,,,,bi,2,f008,119.9512435,1C,auditory,2018_Jan_30_1606
da.wav,4,3,48,570,S,0,89,89,89,,,,,,,,,,,,,,,,None,,,,,,,,,,bi,2,f008,119.9512435,1C,auditory,2018_Jan_30_1606
pi.wav,1,1,48,571,S,0,90,90,90,,,,,,,,,,,,,,,,None,,,,,,,,,,bi,2,f008,119.9512435,1C,auditory,2018_Jan_30_1606
tu.wav,1,2,48,572,S,0,91,91,91,,,,,,,,,,,,,,,,None,,,,,,,,,,bi,2,f008,119.9512435,1C,auditory,2018_Jan_30_1606
bi.wav,1,3,48,573,S,0,92,92,92,,,,,,,,,,,,,,,,3,0.433694189,,,,,,,,,bi,2,f008,119.9512435,1C,auditory,2018_Jan_30_1606
di.wav,2,1,48,574,S,0,93,93,93,,,,,,,,,,,,,,,,None,,,,,,,,,,bi,2,f008,119.9512435,1C,auditory,2018_Jan_30_1606
ba.wav,2,2,48,575,S,0,94,94,94,,,,,,,,,,,,,,,,None,,,,,,,,,,bi,2,f008,119.9512435,1C,auditory,2018_Jan_30_1606
pu.wav,2,3,48,576,S,0,95,95,95,,,,,,,,,,,,,,,,None,,,,,,,,,,bi,2,f008,119.9512435,1C,auditory,2018_Jan_30_1606
silence.wav,0,0,0,0,B,0,96,96,96,,,,,,,,,,,,,,,,None,,,,,,,,,,bi,2,f008,119.9512435,1C,auditory,2018_Jan_30_1606
silence.wav,0,0,0,0,B,0,97,97,97,,,,,,,,,,,,,,,,None,,,,,,,,,,bi,2,f008,119.9512435,1C,auditory,2018_Jan_30_1606
silence.wav,0,0,0,0,B,0,98,98,98,,,,,,,,,,,,,,,,None,,,,,,,,,,bi,2,f008,119.9512435,1C,auditory,2018_Jan_30_1606
silence.wav,0,0,0,0,B,0,99,99,99,,,,,,,,,,,,,,,,None,,,,,,,,,,bi,2,f008,119.9512435,1C,auditory,2018_Jan_30_1606
silence.wav,0,0,0,0,B,0,100,100,100,,,,,,,,,,,,,,,,None,,,,,,,,,,bi,2,f008,119.9512435,1C,auditory,2018_Jan_30_1606
silence.wav,0,0,0,0,B,0,101,101,101,,,,,,,,,,,,,,,,None,,,,,,,,,,bi,2,f008,119.9512435,1C,auditory,2018_Jan_30_1606
silence.wav,0,0,0,0,B,0,102,102,102,,,,,,,,,,,,,,,,None,,,,,,,,,,bi,2,f008,119.9512435,1C,auditory,2018_Jan_30_1606
silence.wav,0,0,0,0,B,0,103,103,103,,,,,,,,,,,,,,,,None,,,,,,,,,,bi,2,f008,119.9512435,1C,auditory,2018_Jan_30_1606
silence.wav,0,0,0,0,B,0,104,104,104,,,,,,,,,,,,,,,,None,,,,,,,,,,bi,2,f008,119.9512435,1C,auditory,2018_Jan_30_1606
silence.wav,0,0,0,0,B,0,105,105,105,,,,,,,,,,,,,,,,None,,,,,,,,,,bi,2,f008,119.9512435,1C,auditory,2018_Jan_30_1606
silence.wav,0,0,0,0,B,0,106,106,106,,,,,,,,,,,,,,,,None,,,,,,,,,,bi,2,f008,119.9512435,1C,auditory,2018_Jan_30_1606
silence.wav,0,0,0,0,B,0,107,107,107,,,,,,,,,,,,,,,,None,,,,,,,,,,bi,2,f008,119.9512435,1C,auditory,2018_Jan_30_1606
silence.wav,0,0,0,0,B,0,108,108,108,,,,,,,,,,,,,,,,None,,,,,,,,,,bi,2,f008,119.9512435,1C,auditory,2018_Jan_30_1606
silence.wav,0,0,0,0,B,0,109,109,109,,,,,,,,,,,,,,,,None,,,,,,,,,,bi,2,f008,119.9512435,1C,auditory,2018_Jan_30_1606
silence.wav,0,0,0,0,B,0,110,110,110,,,,,,,,,,,,,,,,None,,,,,,,,,,bi,2,f008,119.9512435,1C,auditory,2018_Jan_30_1606
silence.wav,0,0,0,0,B,0,111,111,111,,,,,,,,,,,,,,,,None,,,,,,,,,,bi,2,f008,119.9512435,1C,auditory,2018_Jan_30_1606
silence.wav,0,0,0,0,B,0,112,112,112,,,,,,,,,,,,,,,,None,,,,,,,,,,bi,2,f008,119.9512435,1C,auditory,2018_Jan_30_1606
silence.wav,0,0,0,0,B,0,113,113,113,,,,,,,,,,,,,,,,None,,,,,,,,,,bi,2,f008,119.9512435,1C,auditory,2018_Jan_30_1606
silence.wav,0,0,0,0,B,0,114,114,114,,,,,,,,,,,,,,,,None,,,,,,,,,,bi,2,f008,119.9512435,1C,auditory,2018_Jan_30_1606
silence.wav,0,0,0,0,B,0,115,115,115,,,,,,,,,,,,,,,,None,,,,,,,,,,bi,2,f008,119.9512435,1C,auditory,2018_Jan_30_1606
silence.wav,0,0,0,0,B,0,116,116,116,,,,,,,,,,,,,,,,None,,,,,,,,,,bi,2,f008,119.9512435,1C,auditory,2018_Jan_30_1606
silence.wav,0,0,0,0,B,0,117,117,117,,,,,,,,,,,,,,,,None,,,,,,,,,,bi,2,f008,119.9512435,1C,auditory,2018_Jan_30_1606
silence.wav,0,0,0,0,B,0,118,118,118,,,,,,,,,,,,,,,,None,,,,,,,,,,bi,2,f008,119.9512435,1C,auditory,2018_Jan_30_1606
silence.wav,0,0,0,0,B,0,119,119,119,,,,,,,,,,,,,,,,None,,,,,,,,,,bi,2,f008,119.9512435,1C,auditory,2018_Jan_30_1606
pi.wav,1,1,33,379,S,0,0,0,0,,,,,,,,,,,,,,,,None,,,,,,,,,,bi,2,f008,119.9512435,1C,auditory,2018_Jan_30_1606
tu.wav,1,2,33,380,S,0,1,1,1,,,,,,,,,,,,,,,,None,,,,,,,,,,bi,2,f008,119.9512435,1C,auditory,2018_Jan_30_1606
bi.wav,1,3,33,381,S,0,2,2,2,,,,,,,,,,,,,,,,3,0.343338471,,,,,,,,,bi,2,f008,119.9512435,1C,auditory,2018_Jan_30_1606
pi.wav,1,1,34,385,S,0,3,3,3,,,,,,,,,,,,,,,,None,,,,,,,,,,bi,2,f008,119.9512435,1C,auditory,2018_Jan_30_1606
tu.wav,1,2,34,386,S,0,4,4,4,,,,,,,,,,,,,,,,None,,,,,,,,,,bi,2,f008,119.9512435,1C,auditory,2018_Jan_30_1606
bi.wav,1,3,34,387,S,0,5,5,5,,,,,,,,,,,,,,,,None,,,,,,,,,,bi,2,f008,119.9512435,1C,auditory,2018_Jan_30_1606
bu.wav,4,1,33,391,S,0,6,6,6,,,,,,,,,,,,,,,,None,,,,,,,,,,bi,2,f008,119.9512435,1C,auditory,2018_Jan_30_1606
pa.wav,4,2,33,392,S,0,7,7,7,,,,,,,,,,,,,,,,None,,,,,,,,,,bi,2,f008,119.9512435,1C,auditory,2018_Jan_30_1606
da.wav,4,3,33,393,S,0,8,8,8,,,,,,,,,,,,,,,,None,,,,,,,,,,bi,2,f008,119.9512435,1C,auditory,2018_Jan_30_1606
ta.wav,3,1,33,394,S,0,9,9,9,,,,,,,,,,,,,,,,None,,,,,,,,,,bi,2,f008,119.9512435,1C,auditory,2018_Jan_30_1606
ti.wav,3,2,33,395,S,0,10,10,10,,,,,,,,,,,,,,,,None,,,,,,,,,,bi,2,f008,119.9512435,1C,auditory,2018_Jan_30_1606
du.wav,3,3,33,396,S,0,11,11,11,,,,,,,,,,,,,,,,None,,,,,,,,,,bi,2,f008,119.9512435,1C,auditory,2018_Jan_30_1606
di.wav,2,1,33,397,S,0,12,12,12,,,,,,,,,,,,,,,,None,,,,,,,,,,bi,2,f008,119.9512435,1C,auditory,2018_Jan_30_1606
ba.wav,2,2,33,398,S,0,13,13,13,,,,,,,,,,,,,,,,None,,,,,,,,,,bi,2,f008,119.9512435,1C,auditory,2018_Jan_30_1606
pu.wav,2,3,33,399,S,0,14,14,14,,,,,,,,,,,,,,,,None,,,,,,,,,,bi,2,f008,119.9512435,1C,auditory,2018_Jan_30_1606
pi.wav,1,1,35,400,S,0,15,15,15,,,,,,,,,,,,,,,,None,,,,,,,,,,bi,2,f008,119.9512435,1C,auditory,2018_Jan_30_1606
tu.wav,1,2,35,401,S,0,16,16,16,,,,,,,,,,,,,,,,None,,,,,,,,,,bi,2,f008,119.9512435,1C,auditory,2018_Jan_30_1606
bi.wav,1,3,35,402,S,0,17,17,17,,,,,,,,,,,,,,,,3,0.400314368,,,,,,,,,bi,2,f008,119.9512435,1C,auditory,2018_Jan_30_1606
ta.wav,3,1,34,403,S,0,18,18,18,,,,,,,,,,,,,,,,None,,,,,,,,,,bi,2,f008,119.9512435,1C,auditory,2018_Jan_30_1606
ti.wav,3,2,34,404,S,0,19,19,19,,,,,,,,,,,,,,,,None,,,,,,,,,,bi,2,f008,119.9512435,1C,auditory,2018_Jan_30_1606
du.wav,3,3,34,405,S,0,20,20,20,,,,,,,,,,,,,,,,None,,,,,,,,,,bi,2,f008,119.9512435,1C,auditory,2018_Jan_30_1606
bu.wav,4,1,34,406,S,0,21,21,21,,,,,,,,,,,,,,,,None,,,,,,,,,,bi,2,f008,119.9512435,1C,auditory,2018_Jan_30_1606
pa.wav,4,2,34,407,S,0,22,22,22,,,,,,,,,,,,,,,,None,,,,,,,,,,bi,2,f008,119.9512435,1C,auditory,2018_Jan_30_1606
da.wav,4,3,34,408,S,0,23,23,23,,,,,,,,,,,,,,,,None,,,,,,,,,,bi,2,f008,119.9512435,1C,auditory,2018_Jan_30_1606
di.wav,2,1,34,409,S,0,24,24,24,,,,,,,,,,,,,,,,None,,,,,,,,,,bi,2,f008,119.9512435,1C,auditory,2018_Jan_30_1606
ba.wav,2,2,34,410,S,0,25,25,25,,,,,,,,,,,,,,,,None,,,,,,,,,,bi,2,f008,119.9512435,1C,auditory,2018_Jan_30_1606
pu.wav,2,3,34,411,S,0,26,26,26,,,,,,,,,,,,,,,,None,,,,,,,,,,bi,2,f008,119.9512435,1C,auditory,2018_Jan_30_1606
pi.wav,1,1,36,412,S,0,27,27,27,,,,,,,,,,,,,,,,None,,,,,,,,,,bi,2,f008,119.9512435,1C,auditory,2018_Jan_30_1606
tu.wav,1,2,36,413,S,0,28,28,28,,,,,,,,,,,,,,,,None,,,,,,,,,,bi,2,f008,119.9512435,1C,auditory,2018_Jan_30_1606
bi.wav,1,3,36,414,S,0,29,29,29,,,,,,,,,,,,,,,,3,0.317017989,,,,,,,,,bi,2,f008,119.9512435,1C,auditory,2018_Jan_30_1606
di.wav,2,1,35,415,S,0,30,30,30,,,,,,,,,,,,,,,,None,,,,,,,,,,bi,2,f008,119.9512435,1C,auditory,2018_Jan_30_1606
ba.wav,2,2,35,416,S,0,31,31,31,,,,,,,,,,,,,,,,None,,,,,,,,,,bi,2,f008,119.9512435,1C,auditory,2018_Jan_30_1606
pu.wav,2,3,35,417,S,0,32,32,32,,,,,,,,,,,,,,,,None,,,,,,,,,,bi,2,f008,119.9512435,1C,auditory,2018_Jan_30_1606
bu.wav,4,1,35,418,S,0,33,33,33,,,,,,,,,,,,,,,,None,,,,,,,,,,bi,2,f008,119.9512435,1C,auditory,2018_Jan_30_1606
pa.wav,4,2,35,419,S,0,34,34,34,,,,,,,,,,,,,,,,None,,,,,,,,,,bi,2,f008,119.9512435,1C,auditory,2018_Jan_30_1606
da.wav,4,3,35,420,S,0,35,35,35,,,,,,,,,,,,,,,,None,,,,,,,,,,bi,2,f008,119.9512435,1C,auditory,2018_Jan_30_1606
ta.wav,3,1,35,421,S,0,36,36,36,,,,,,,,,,,,,,,,None,,,,,,,,,,bi,2,f008,119.9512435,1C,auditory,2018_Jan_30_1606
ti.wav,3,2,35,422,S,0,37,37,37,,,,,,,,,,,,,,,,None,,,,,,,,,,bi,2,f008,119.9512435,1C,auditory,2018_Jan_30_1606
du.wav,3,3,35,423,S,0,38,38,38,,,,,,,,,,,,,,,,None,,,,,,,,,,bi,2,f008,119.9512435,1C,auditory,2018_Jan_30_1606
bu.wav,4,1,36,424,S,0,39,39,39,,,,,,,,,,,,,,,,None,,,,,,,,,,bi,2,f008,119.9512435,1C,auditory,2018_Jan_30_1606
pa.wav,4,2,36,425,S,0,40,40,40,,,,,,,,,,,,,,,,None,,,,,,,,,,bi,2,f008,119.9512435,1C,auditory,2018_Jan_30_1606
da.wav,4,3,36,426,S,0,41,41,41,,,,,,,,,,,,,,,,None,,,,,,,,,,bi,2,f008,119.9512435,1C,auditory,2018_Jan_30_1606
ta.wav,3,1,36,427,S,0,42,42,42,,,,,,,,,,,,,,,,None,,,,,,,,,,bi,2,f008,119.9512435,1C,auditory,2018_Jan_30_1606
ti.wav,3,2,36,428,S,0,43,43,43,,,,,,,,,,,,,,,,None,,,,,,,,,,bi,2,f008,119.9512435,1C,auditory,2018_Jan_30_1606
du.wav,3,3,36,429,S,0,44,44,44,,,,,,,,,,,,,,,,None,,,,,,,,,,bi,2,f008,119.9512435,1C,auditory,2018_Jan_30_1606
di.wav,2,1,36,430,S,0,45,45,45,,,,,,,,,,,,,,,,None,,,,,,,,,,bi,2,f008,119.9512435,1C,auditory,2018_Jan_30_1606
ba.wav,2,2,36,431,S,0,46,46,46,,,,,,,,,,,,,,,,None,,,,,,,,,,bi,2,f008,119.9512435,1C,auditory,2018_Jan_30_1606
pu.wav,2,3,36,432,S,0,47,47,47,,,,,,,,,,,,,,,,None,,,,,,,,,,bi,2,f008,119.9512435,1C,auditory,2018_Jan_30_1606
pi.wav,1,1,37,433,S,0,48,48,48,,,,,,,,,,,,,,,,None,,,,,,,,,,bi,2,f008,119.9512435,1C,auditory,2018_Jan_30_1606
tu.wav,1,2,37,434,S,0,49,49,49,,,,,,,,,,,,,,,,None,,,,,,,,,,bi,2,f008,119.9512435,1C,auditory,2018_Jan_30_1606
bi.wav,1,3,37,435,S,0,50,50,50,,,,,,,,,,,,,,,,3,0.383761986,,,,,,,,,bi,2,f008,119.9512435,1C,auditory,2018_Jan_30_1606
ta.wav,3,1,37,436,S,0,51,51,51,,,,,,,,,,,,,,,,None,,,,,,,,,,bi,2,f008,119.9512435,1C,auditory,2018_Jan_30_1606
ti.wav,3,2,37,437,S,0,52,52,52,,,,,,,,,,,,,,,,None,,,,,,,,,,bi,2,f008,119.9512435,1C,auditory,2018_Jan_30_1606
du.wav,3,3,37,438,S,0,53,53,53,,,,,,,,,,,,,,,,None,,,,,,,,,,bi,2,f008,119.9512435,1C,auditory,2018_Jan_30_1606
pi.wav,1,1,38,439,S,0,54,54,54,,,,,,,,,,,,,,,,None,,,,,,,,,,bi,2,f008,119.9512435,1C,auditory,2018_Jan_30_1606
tu.wav,1,2,38,440,S,0,55,55,55,,,,,,,,,,,,,,,,None,,,,,,,,,,bi,2,f008,119.9512435,1C,auditory,2018_Jan_30_1606
bi.wav,1,3,38,441,S,0,56,56,56,,,,,,,,,,,,,,,,3,0.283508461,,,,,,,,,bi,2,f008,119.9512435,1C,auditory,2018_Jan_30_1606
bu.wav,4,1,37,442,S,0,57,57,57,,,,,,,,,,,,,,,,None,,,,,,,,,,bi,2,f008,119.9512435,1C,auditory,2018_Jan_30_1606
pa.wav,4,2,37,443,S,0,58,58,58,,,,,,,,,,,,,,,,None,,,,,,,,,,bi,2,f008,119.9512435,1C,auditory,2018_Jan_30_1606
da.wav,4,3,37,444,S,0,59,59,59,,,,,,,,,,,,,,,,None,,,,,,,,,,bi,2,f008,119.9512435,1C,auditory,2018_Jan_30_1606
di.wav,2,1,37,445,S,0,60,60,60,,,,,,,,,,,,,,,,None,,,,,,,,,,bi,2,f008,119.9512435,1C,auditory,2018_Jan_30_1606
ba.wav,2,2,37,446,S,0,61,61,61,,,,,,,,,,,,,,,,None,,,,,,,,,,bi,2,f008,119.9512435,1C,auditory,2018_Jan_30_1606
pu.wav,2,3,37,447,S,0,62,62,62,,,,,,,,,,,,,,,,None,,,,,,,,,,bi,2,f008,119.9512435,1C,auditory,2018_Jan_30_1606
pi.wav,1,1,39,448,S,0,63,63,63,,,,,,,,,,,,,,,,None,,,,,,,,,,bi,2,f008,119.9512435,1C,auditory,2018_Jan_30_1606
tu.wav,1,2,39,449,S,0,64,64,64,,,,,,,,,,,,,,,,None,,,,,,,,,,bi,2,f008,119.9512435,1C,auditory,2018_Jan_30_1606
bi.wav,1,3,39,450,S,0,65,65,65,,,,,,,,,,,,,,,,3,0.358783227,,,,,,,,,bi,2,f008,119.9512435,1C,auditory,2018_Jan_30_1606
bu.wav,4,1,38,451,S,0,66,66,66,,,,,,,,,,,,,,,,None,,,,,,,,,,bi,2,f008,119.9512435,1C,auditory,2018_Jan_30_1606
pa.wav,4,2,38,452,S,0,67,67,67,,,,,,,,,,,,,,,,None,,,,,,,,,,bi,2,f008,119.9512435,1C,auditory,2018_Jan_30_1606
da.wav,4,3,38,453,S,0,68,68,68,,,,,,,,,,,,,,,,None,,,,,,,,,,bi,2,f008,119.9512435,1C,auditory,2018_Jan_30_1606
di.wav,2,1,38,454,S,0,69,69,69,,,,,,,,,,,,,,,,None,,,,,,,,,,bi,2,f008,119.9512435,1C,auditory,2018_Jan_30_1606
ba.wav,2,2,38,455,S,0,70,70,70,,,,,,,,,,,,,,,,None,,,,,,,,,,bi,2,f008,119.9512435,1C,auditory,2018_Jan_30_1606
pu.wav,2,3,38,456,S,0,71,71,71,,,,,,,,,,,,,,,,None,,,,,,,,,,bi,2,f008,119.9512435,1C,auditory,2018_Jan_30_1606
ta.wav,3,1,38,457,S,0,72,72,72,,,,,,,,,,,,,,,,None,,,,,,,,,,bi,2,f008,119.9512435,1C,auditory,2018_Jan_30_1606
ti.wav,3,2,38,458,S,0,73,73,73,,,,,,,,,,,,,,,,None,,,,,,,,,,bi,2,f008,119.9512435,1C,auditory,2018_Jan_30_1606
du.wav,3,3,38,459,S,0,74,74,74,,,,,,,,,,,,,,,,None,,,,,,,,,,bi,2,f008,119.9512435,1C,auditory,2018_Jan_30_1606
di.wav,2,1,39,460,S,0,75,75,75,,,,,,,,,,,,,,,,None,,,,,,,,,,bi,2,f008,119.9512435,1C,auditory,2018_Jan_30_1606
ba.wav,2,2,39,461,S,0,76,76,76,,,,,,,,,,,,,,,,None,,,,,,,,,,bi,2,f008,119.9512435,1C,auditory,2018_Jan_30_1606
pu.wav,2,3,39,462,S,0,77,77,77,,,,,,,,,,,,,,,,None,,,,,,,,,,bi,2,f008,119.9512435,1C,auditory,2018_Jan_30_1606
pi.wav,1,1,40,463,S,0,78,78,78,,,,,,,,,,,,,,,,None,,,,,,,,,,bi,2,f008,119.9512435,1C,auditory,2018_Jan_30_1606
tu.wav,1,2,40,464,S,0,79,79,79,,,,,,,,,,,,,,,,None,,,,,,,,,,bi,2,f008,119.9512435,1C,auditory,2018_Jan_30_1606
bi.wav,1,3,40,465,S,0,80,80,80,,,,,,,,,,,,,,,,3,0.261121558,,,,,,,,,bi,2,f008,119.9512435,1C,auditory,2018_Jan_30_1606
ta.wav,3,1,39,466,S,0,81,81,81,,,,,,,,,,,,,,,,None,,,,,,,,,,bi,2,f008,119.9512435,1C,auditory,2018_Jan_30_1606
ti.wav,3,2,39,467,S,0,82,82,82,,,,,,,,,,,,,,,,None,,,,,,,,,,bi,2,f008,119.9512435,1C,auditory,2018_Jan_30_1606
du.wav,3,3,39,468,S,0,83,83,83,,,,,,,,,,,,,,,,None,,,,,,,,,,bi,2,f008,119.9512435,1C,auditory,2018_Jan_30_1606
bu.wav,4,1,39,469,S,0,84,84,84,,,,,,,,,,,,,,,,None,,,,,,,,,,bi,2,f008,119.9512435,1C,auditory,2018_Jan_30_1606
pa.wav,4,2,39,470,S,0,85,85,85,,,,,,,,,,,,,,,,None,,,,,,,,,,bi,2,f008,119.9512435,1C,auditory,2018_Jan_30_1606
da.wav,4,3,39,471,S,0,86,86,86,,,,,,,,,,,,,,,,None,,,,,,,,,,bi,2,f008,119.9512435,1C,auditory,2018_Jan_30_1606
ta.wav,3,1,40,472,S,0,87,87,87,,,,,,,,,,,,,,,,None,,,,,,,,,,bi,2,f008,119.9512435,1C,auditory,2018_Jan_30_1606
ti.wav,3,2,40,473,S,0,88,88,88,,,,,,,,,,,,,,,,None,,,,,,,,,,bi,2,f008,119.9512435,1C,auditory,2018_Jan_30_1606
du.wav,3,3,40,474,S,0,89,89,89,,,,,,,,,,,,,,,,None,,,,,,,,,,bi,2,f008,119.9512435,1C,auditory,2018_Jan_30_1606
di.wav,2,1,40,475,S,0,90,90,90,,,,,,,,,,,,,,,,None,,,,,,,,,,bi,2,f008,119.9512435,1C,auditory,2018_Jan_30_1606
ba.wav,2,2,40,476,S,0,91,91,91,,,,,,,,,,,,,,,,None,,,,,,,,,,bi,2,f008,119.9512435,1C,auditory,2018_Jan_30_1606
pu.wav,2,3,40,477,S,0,92,92,92,,,,,,,,,,,,,,,,None,,,,,,,,,,bi,2,f008,119.9512435,1C,auditory,2018_Jan_30_1606
bu.wav,4,1,40,478,S,0,93,93,93,,,,,,,,,,,,,,,,None,,,,,,,,,,bi,2,f008,119.9512435,1C,auditory,2018_Jan_30_1606
pa.wav,4,2,40,479,S,0,94,94,94,,,,,,,,,,,,,,,,None,,,,,,,,,,bi,2,f008,119.9512435,1C,auditory,2018_Jan_30_1606
da.wav,4,3,40,480,S,0,95,95,95,,,,,,,,,,,,,,,,None,,,,,,,,,,bi,2,f008,119.9512435,1C,auditory,2018_Jan_30_1606
silence.wav,0,0,0,0,B,0,96,96,96,,,,,,,,,,,,,,,,None,,,,,,,,,,bi,2,f008,119.9512435,1C,auditory,2018_Jan_30_1606
silence.wav,0,0,0,0,B,0,97,97,97,,,,,,,,,,,,,,,,None,,,,,,,,,,bi,2,f008,119.9512435,1C,auditory,2018_Jan_30_1606
silence.wav,0,0,0,0,B,0,98,98,98,,,,,,,,,,,,,,,,None,,,,,,,,,,bi,2,f008,119.9512435,1C,auditory,2018_Jan_30_1606
silence.wav,0,0,0,0,B,0,99,99,99,,,,,,,,,,,,,,,,None,,,,,,,,,,bi,2,f008,119.9512435,1C,auditory,2018_Jan_30_1606
silence.wav,0,0,0,0,B,0,100,100,100,,,,,,,,,,,,,,,,None,,,,,,,,,,bi,2,f008,119.9512435,1C,auditory,2018_Jan_30_1606
silence.wav,0,0,0,0,B,0,101,101,101,,,,,,,,,,,,,,,,None,,,,,,,,,,bi,2,f008,119.9512435,1C,auditory,2018_Jan_30_1606
silence.wav,0,0,0,0,B,0,102,102,102,,,,,,,,,,,,,,,,None,,,,,,,,,,bi,2,f008,119.9512435,1C,auditory,2018_Jan_30_1606
silence.wav,0,0,0,0,B,0,103,103,103,,,,,,,,,,,,,,,,None,,,,,,,,,,bi,2,f008,119.9512435,1C,auditory,2018_Jan_30_1606
silence.wav,0,0,0,0,B,0,104,104,104,,,,,,,,,,,,,,,,None,,,,,,,,,,bi,2,f008,119.9512435,1C,auditory,2018_Jan_30_1606
silence.wav,0,0,0,0,B,0,105,105,105,,,,,,,,,,,,,,,,None,,,,,,,,,,bi,2,f008,119.9512435,1C,auditory,2018_Jan_30_1606
silence.wav,0,0,0,0,B,0,106,106,106,,,,,,,,,,,,,,,,None,,,,,,,,,,bi,2,f008,119.9512435,1C,auditory,2018_Jan_30_1606
silence.wav,0,0,0,0,B,0,107,107,107,,,,,,,,,,,,,,,,None,,,,,,,,,,bi,2,f008,119.9512435,1C,auditory,2018_Jan_30_1606
silence.wav,0,0,0,0,B,0,108,108,108,,,,,,,,,,,,,,,,None,,,,,,,,,,bi,2,f008,119.9512435,1C,auditory,2018_Jan_30_1606
silence.wav,0,0,0,0,B,0,109,109,109,,,,,,,,,,,,,,,,None,,,,,,,,,,bi,2,f008,119.9512435,1C,auditory,2018_Jan_30_1606
silence.wav,0,0,0,0,B,0,110,110,110,,,,,,,,,,,,,,,,None,,,,,,,,,,bi,2,f008,119.9512435,1C,auditory,2018_Jan_30_1606
silence.wav,0,0,0,0,B,0,111,111,111,,,,,,,,,,,,,,,,None,,,,,,,,,,bi,2,f008,119.9512435,1C,auditory,2018_Jan_30_1606
silence.wav,0,0,0,0,B,0,112,112,112,,,,,,,,,,,,,,,,None,,,,,,,,,,bi,2,f008,119.9512435,1C,auditory,2018_Jan_30_1606
silence.wav,0,0,0,0,B,0,113,113,113,,,,,,,,,,,,,,,,None,,,,,,,,,,bi,2,f008,119.9512435,1C,auditory,2018_Jan_30_1606
silence.wav,0,0,0,0,B,0,114,114,114,,,,,,,,,,,,,,,,None,,,,,,,,,,bi,2,f008,119.9512435,1C,auditory,2018_Jan_30_1606
silence.wav,0,0,0,0,B,0,115,115,115,,,,,,,,,,,,,,,,None,,,,,,,,,,bi,2,f008,119.9512435,1C,auditory,2018_Jan_30_1606
silence.wav,0,0,0,0,B,0,116,116,116,,,,,,,,,,,,,,,,None,,,,,,,,,,bi,2,f008,119.9512435,1C,auditory,2018_Jan_30_1606
silence.wav,0,0,0,0,B,0,117,117,117,,,,,,,,,,,,,,,,None,,,,,,,,,,bi,2,f008,119.9512435,1C,auditory,2018_Jan_30_1606
silence.wav,0,0,0,0,B,0,118,118,118,,,,,,,,,,,,,,,,None,,,,,,,,,,bi,2,f008,119.9512435,1C,auditory,2018_Jan_30_1606
silence.wav,0,0,0,0,B,0,119,119,119,,,,,,,,,,,,,,,,None,,,,,,,,,,bi,2,f008,119.9512435,1C,auditory,2018_Jan_30_1606
4A.wav,0,1,1,481,R,,,,,0,0,0,0,,,,,,,,,,,,,,None,,,,,,,,bi,2,f008,119.9512435,1C,auditory,2018_Jan_30_1606
2B.wav,0,2,1,482,R,,,,,0,1,1,1,,,,,,,,,,,,,,None,,,,,,,,bi,2,f008,119.9512435,1C,auditory,2018_Jan_30_1606
4B.wav,0,3,1,483,R,,,,,0,2,2,2,,,,,,,,,,,,,,None,,,,,,,,bi,2,f008,119.9512435,1C,auditory,2018_Jan_30_1606
1A.wav,0,1,1,484,R,,,,,0,3,3,3,,,,,,,,,,,,,,None,,,,,,,,bi,2,f008,119.9512435,1C,auditory,2018_Jan_30_1606
2C.wav,0,2,1,485,R,,,,,0,4,4,4,,,,,,,,,,,,,,None,,,,,,,,bi,2,f008,119.9512435,1C,auditory,2018_Jan_30_1606
3B.wav,0,3,1,486,R,,,,,0,5,5,5,,,,,,,,,,,,,,None,,,,,,,,bi,2,f008,119.9512435,1C,auditory,2018_Jan_30_1606
3A.wav,0,1,1,487,R,,,,,0,6,6,6,,,,,,,,,,,,,,None,,,,,,,,bi,2,f008,119.9512435,1C,auditory,2018_Jan_30_1606
3C.wav,0,2,1,488,R,,,,,0,7,7,7,,,,,,,,,,,,,,3,0.377486576,,,,,,,bi,2,f008,119.9512435,1C,auditory,2018_Jan_30_1606
4C.wav,0,3,1,489,R,,,,,0,8,8,8,,,,,,,,,,,,,,None,,,,,,,,bi,2,f008,119.9512435,1C,auditory,2018_Jan_30_1606
4A.wav,0,1,1,490,R,,,,,0,9,9,9,,,,,,,,,,,,,,None,,,,,,,,bi,2,f008,119.9512435,1C,auditory,2018_Jan_30_1606
1C.wav,0,2,1,491,R,,,,,0,10,10,10,,,,,,,,,,,,,,None,,,,,,,,bi,2,f008,119.9512435,1C,auditory,2018_Jan_30_1606
2A.wav,0,3,1,492,R,,,,,0,11,11,11,,,,,,,,,,,,,,3,0.175273714,,,,,,,bi,2,f008,119.9512435,1C,auditory,2018_Jan_30_1606
2A.wav,0,1,1,493,R,,,,,0,12,12,12,,,,,,,,,,,,,,None,,,,,,,,bi,2,f008,119.9512435,1C,auditory,2018_Jan_30_1606
1B.wav,0,2,1,494,R,,,,,0,13,13,13,,,,,,,,,,,,,,None,,,,,,,,bi,2,f008,119.9512435,1C,auditory,2018_Jan_30_1606
3B.wav,0,3,1,495,R,,,,,0,14,14,14,,,,,,,,,,,,,,None,,,,,,,,bi,2,f008,119.9512435,1C,auditory,2018_Jan_30_1606
4C.wav,0,1,1,496,R,,,,,0,15,15,15,,,,,,,,,,,,,,None,,,,,,,,bi,2,f008,119.9512435,1C,auditory,2018_Jan_30_1606
3A.wav,0,2,1,497,R,,,,,0,16,16,16,,,,,,,,,,,,,,None,,,,,,,,bi,2,f008,119.9512435,1C,auditory,2018_Jan_30_1606
1B.wav,0,3,1,498,R,,,,,0,17,17,17,,,,,,,,,,,,,,3,0.20876333,,,,,,,bi,2,f008,119.9512435,1C,auditory,2018_Jan_30_1606
4B.wav,0,1,1,499,R,,,,,0,18,18,18,,,,,,,,,,,,,,None,,,,,,,,bi,2,f008,119.9512435,1C,auditory,2018_Jan_30_1606
1A.wav,0,2,1,500,R,,,,,0,19,19,19,,,,,,,,,,,,,,None,,,,,,,,bi,2,f008,119.9512435,1C,auditory,2018_Jan_30_1606
1C.wav,0,3,1,501,R,,,,,0,20,20,20,,,,,,,,,,,,,,None,,,,,,,,bi,2,f008,119.9512435,1C,auditory,2018_Jan_30_1606
2C.wav,0,1,1,502,R,,,,,0,21,21,21,,,,,,,,,,,,,,None,,,,,,,,bi,2,f008,119.9512435,1C,auditory,2018_Jan_30_1606
2B.wav,0,2,1,503,R,,,,,0,22,22,22,,,,,,,,,,,,,,None,,,,,,,,bi,2,f008,119.9512435,1C,auditory,2018_Jan_30_1606
3C.wav,0,3,1,504,R,,,,,0,23,23,23,,,,,,,,,,,,,,3,0.066972691,,,,,,,bi,2,f008,119.9512435,1C,auditory,2018_Jan_30_1606
3B.wav,0,1,1,505,R,,,,,0,24,24,24,,,,,,,,,,,,,,None,,,,,,,,bi,2,f008,119.9512435,1C,auditory,2018_Jan_30_1606
3B.wav,0,2,1,506,R,,,,,0,25,25,25,,,,,,,,,,,,,,None,,,,,,,,bi,2,f008,119.9512435,1C,auditory,2018_Jan_30_1606
4A.wav,0,3,1,507,R,,,,,0,26,26,26,,,,,,,,,,,,,,None,,,,,,,,bi,2,f008,119.9512435,1C,auditory,2018_Jan_30_1606
4A.wav,0,1,1,508,R,,,,,0,27,27,27,,,,,,,,,,,,,,None,,,,,,,,bi,2,f008,119.9512435,1C,auditory,2018_Jan_30_1606
1B.wav,0,2,1,509,R,,,,,0,28,28,28,,,,,,,,,,,,,,None,,,,,,,,bi,2,f008,119.9512435,1C,auditory,2018_Jan_30_1606
2C.wav,0,3,1,510,R,,,,,0,29,29,29,,,,,,,,,,,,,,3,0.219211253,,,,,,,bi,2,f008,119.9512435,1C,auditory,2018_Jan_30_1606
1A.wav,0,1,1,511,R,,,,,0,30,30,30,,,,,,,,,,,,,,None,,,,,,,,bi,2,f008,119.9512435,1C,auditory,2018_Jan_30_1606
3C.wav,0,2,1,512,R,,,,,0,31,31,31,,,,,,,,,,,,,,3,0.300297216,,,,,,,bi,2,f008,119.9512435,1C,auditory,2018_Jan_30_1606
1C.wav,0,3,1,513,R,,,,,0,32,32,32,,,,,,,,,,,,,,None,,,,,,,,bi,2,f008,119.9512435,1C,auditory,2018_Jan_30_1606
4C.wav,0,1,1,514,R,,,,,0,33,33,33,,,,,,,,,,,,,,None,,,,,,,,bi,2,f008,119.9512435,1C,auditory,2018_Jan_30_1606
2B.wav,0,2,1,515,R,,,,,0,34,34,34,,,,,,,,,,,,,,3,0.227280653,,,,,,,bi,2,f008,119.9512435,1C,auditory,2018_Jan_30_1606
1A.wav,0,3,1,516,R,,,,,0,35,35,35,,,,,,,,,,,,,,None,,,,,,,,bi,2,f008,119.9512435,1C,auditory,2018_Jan_30_1606
1B.wav,0,1,1,517,R,,,,,0,36,36,36,,,,,,,,,,,,,,3,0.292154145,,,,,,,bi,2,f008,119.9512435,1C,auditory,2018_Jan_30_1606
2B.wav,0,2,1,518,R,,,,,0,37,37,37,,,,,,,,,,,,,,None,,,,,,,,bi,2,f008,119.9512435,1C,auditory,2018_Jan_30_1606
2A.wav,0,3,1,519,R,,,,,0,38,38,38,,,,,,,,,,,,,,3,0.258659693,,,,,,,bi,2,f008,119.9512435,1C,auditory,2018_Jan_30_1606
3A.wav,0,1,1,520,R,,,,,0,39,39,39,,,,,,,,,,,,,,None,,,,,,,,bi,2,f008,119.9512435,1C,auditory,2018_Jan_30_1606
4B.wav,0,2,1,521,R,,,,,0,40,40,40,,,,,,,,,,,,,,3,0.308645656,,,,,,,bi,2,f008,119.9512435,1C,auditory,2018_Jan_30_1606
2C.wav,0,3,1,522,R,,,,,0,41,41,41,,,,,,,,,,,,,,None,,,,,,,,bi,2,f008,119.9512435,1C,auditory,2018_Jan_30_1606
3C.wav,0,1,1,523,R,,,,,0,42,42,42,,,,,,,,,,,,,,None,,,,,,,,bi,2,f008,119.9512435,1C,auditory,2018_Jan_30_1606
4C.wav,0,2,1,524,R,,,,,0,43,43,43,,,,,,,,,,,,,,3,0.217023308,,,,,,,bi,2,f008,119.9512435,1C,auditory,2018_Jan_30_1606
1C.wav,0,3,1,525,R,,,,,0,44,44,44,,,,,,,,,,,,,,None,,,,,,,,bi,2,f008,119.9512435,1C,auditory,2018_Jan_30_1606
3A.wav,0,1,1,526,R,,,,,0,45,45,45,,,,,,,,,,,,,,None,,,,,,,,bi,2,f008,119.9512435,1C,auditory,2018_Jan_30_1606
4B.wav,0,2,1,527,R,,,,,0,46,46,46,,,,,,,,,,,,,,3,0.208743988,,,,,,,bi,2,f008,119.9512435,1C,auditory,2018_Jan_30_1606
2A.wav,0,3,1,528,R,,,,,0,47,47,47,,,,,,,,,,,,,,None,,,,,,,,bi,2,f008,119.9512435,1C,auditory,2018_Jan_30_1606
4A.wav,0,1,1,529,R,,,,,0,48,48,48,,,,,,,,,,,,,,None,,,,,,,,bi,2,f008,119.9512435,1C,auditory,2018_Jan_30_1606
3A.wav,0,2,1,530,R,,,,,0,49,49,49,,,,,,,,,,,,,,3,0.167037914,,,,,,,bi,2,f008,119.9512435,1C,auditory,2018_Jan_30_1606
2A.wav,0,3,1,531,R,,,,,0,50,50,50,,,,,,,,,,,,,,None,,,,,,,,bi,2,f008,119.9512435,1C,auditory,2018_Jan_30_1606
4B.wav,0,1,1,532,R,,,,,0,51,51,51,,,,,,,,,,,,,,None,,,,,,,,bi,2,f008,119.9512435,1C,auditory,2018_Jan_30_1606
2A.wav,0,2,1,533,R,,,,,0,52,52,52,,,,,,,,,,,,,,None,,,,,,,,bi,2,f008,119.9512435,1C,auditory,2018_Jan_30_1606
2B.wav,0,3,1,534,R,,,,,0,53,53,53,,,,,,,,,,,,,,None,,,,,,,,bi,2,f008,119.9512435,1C,auditory,2018_Jan_30_1606
2B.wav,0,1,1,535,R,,,,,0,54,54,54,,,,,,,,,,,,,,None,,,,,,,,bi,2,f008,119.9512435,1C,auditory,2018_Jan_30_1606
2C.wav,0,2,1,536,R,,,,,0,55,55,55,,,,,,,,,,,,,,3,0.275443612,,,,,,,bi,2,f008,119.9512435,1C,auditory,2018_Jan_30_1606
4B.wav,0,3,1,537,R,,,,,0,56,56,56,,,,,,,,,,,,,,None,,,,,,,,bi,2,f008,119.9512435,1C,auditory,2018_Jan_30_1606
3B.wav,0,1,1,538,R,,,,,0,57,57,57,,,,,,,,,,,,,,None,,,,,,,,bi,2,f008,119.9512435,1C,auditory,2018_Jan_30_1606
2B.wav,0,2,1,539,R,,,,,0,58,58,58,,,,,,,,,,,,,,None,,,,,,,,bi,2,f008,119.9512435,1C,auditory,2018_Jan_30_1606
4A.wav,0,3,1,540,R,,,,,0,59,59,59,,,,,,,,,,,,,,3,0.100304441,,,,,,,bi,2,f008,119.9512435,1C,auditory,2018_Jan_30_1606
3C.wav,0,1,1,541,R,,,,,0,60,60,60,,,,,,,,,,,,,,None,,,,,,,,bi,2,f008,119.9512435,1C,auditory,2018_Jan_30_1606
2C.wav,0,2,1,542,R,,,,,0,61,61,61,,,,,,,,,,,,,,None,,,,,,,,bi,2,f008,119.9512435,1C,auditory,2018_Jan_30_1606
4C.wav,0,3,1,543,R,,,,,0,62,62,62,,,,,,,,,,,,,,None,,,,,,,,bi,2,f008,119.9512435,1C,auditory,2018_Jan_30_1606
3C.wav,0,1,1,544,R,,,,,0,63,63,63,,,,,,,,,,,,,,None,,,,,,,,bi,2,f008,119.9512435,1C,auditory,2018_Jan_30_1606
1A.wav,0,2,1,545,R,,,,,0,64,64,64,,,,,,,,,,,,,,3,0.175299883,,,,,,,bi,2,f008,119.9512435,1C,auditory,2018_Jan_30_1606
4C.wav,0,3,1,546,R,,,,,0,65,65,65,,,,,,,,,,,,,,None,,,,,,,,bi,2,f008,119.9512435,1C,auditory,2018_Jan_30_1606
2C.wav,0,1,1,547,R,,,,,0,66,66,66,,,,,,,,,,,,,,None,,,,,,,,bi,2,f008,119.9512435,1C,auditory,2018_Jan_30_1606
1C.wav,0,2,1,548,R,,,,,0,67,67,67,,,,,,,,,,,,,,None,,,,,,,,bi,2,f008,119.9512435,1C,auditory,2018_Jan_30_1606
1B.wav,0,3,1,549,R,,,,,0,68,68,68,,,,,,,,,,,,,,3,0.108638089,,,,,,,bi,2,f008,119.9512435,1C,auditory,2018_Jan_30_1606
2A.wav,0,1,1,550,R,,,,,0,69,69,69,,,,,,,,,,,,,,None,,,,,,,,bi,2,f008,119.9512435,1C,auditory,2018_Jan_30_1606
3A.wav,0,2,1,551,R,,,,,0,70,70,70,,,,,,,,,,,,,,None,,,,,,,,bi,2,f008,119.9512435,1C,auditory,2018_Jan_30_1606
3B.wav,0,3,1,552,R,,,,,0,71,71,71,,,,,,,,,,,,,,3,0.200378766,,,,,,,bi,2,f008,119.9512435,1C,auditory,2018_Jan_30_1606
1A.wav,0,1,1,553,R,,,,,0,72,72,72,,,,,,,,,,,,,,None,,,,,,,,bi,2,f008,119.9512435,1C,auditory,2018_Jan_30_1606
2C.wav,0,2,1,554,R,,,,,0,73,73,73,,,,,,,,,,,,,,None,,,,,,,,bi,2,f008,119.9512435,1C,auditory,2018_Jan_30_1606
2B.wav,0,3,1,555,R,,,,,0,74,74,74,,,,,,,,,,,,,,3,0.325377522,,,,,,,bi,2,f008,119.9512435,1C,auditory,2018_Jan_30_1606
4B.wav,0,1,1,556,R,,,,,0,75,75,75,,,,,,,,,,,,,,None,,,,,,,,bi,2,f008,119.9512435,1C,auditory,2018_Jan_30_1606
1B.wav,0,2,1,557,R,,,,,0,76,76,76,,,,,,,,,,,,,,None,,,,,,,,bi,2,f008,119.9512435,1C,auditory,2018_Jan_30_1606
4B.wav,0,3,1,558,R,,,,,0,77,77,77,,,,,,,,,,,,,,None,,,,,,,,bi,2,f008,119.9512435,1C,auditory,2018_Jan_30_1606
1B.wav,0,1,1,559,R,,,,,0,78,78,78,,,,,,,,,,,,,,3,0.375344995,,,,,,,bi,2,f008,119.9512435,1C,auditory,2018_Jan_30_1606
4A.wav,0,2,1,560,R,,,,,0,79,79,79,,,,,,,,,,,,,,None,,,,,,,,bi,2,f008,119.9512435,1C,auditory,2018_Jan_30_1606
3A.wav,0,3,1,561,R,,,,,0,80,80,80,,,,,,,,,,,,,,None,,,,,,,,bi,2,f008,119.9512435,1C,auditory,2018_Jan_30_1606
2A.wav,0,1,1,562,R,,,,,0,81,81,81,,,,,,,,,,,,,,3,0.050321038,,,,,,,bi,2,f008,119.9512435,1C,auditory,2018_Jan_30_1606
4A.wav,0,2,1,563,R,,,,,0,82,82,82,,,,,,,,,,,,,,None,,,,,,,,bi,2,f008,119.9512435,1C,auditory,2018_Jan_30_1606
3B.wav,0,3,1,564,R,,,,,0,83,83,83,,,,,,,,,,,,,,None,,,,,,,,bi,2,f008,119.9512435,1C,auditory,2018_Jan_30_1606
4C.wav,0,1,1,565,R,,,,,0,84,84,84,,,,,,,,,,,,,,None,,,,,,,,bi,2,f008,119.9512435,1C,auditory,2018_Jan_30_1606
1A.wav,0,2,1,566,R,,,,,0,85,85,85,,,,,,,,,,,,,,None,,,,,,,,bi,2,f008,119.9512435,1C,auditory,2018_Jan_30_1606
1C.wav,0,3,1,567,R,,,,,0,86,86,86,,,,,,,,,,,,,,None,,,,,,,,bi,2,f008,119.9512435,1C,auditory,2018_Jan_30_1606
3B.wav,0,1,1,568,R,,,,,0,87,87,87,,,,,,,,,,,,,,None,,,,,,,,bi,2,f008,119.9512435,1C,auditory,2018_Jan_30_1606
4C.wav,0,2,1,569,R,,,,,0,88,88,88,,,,,,,,,,,,,,None,,,,,,,,bi,2,f008,119.9512435,1C,auditory,2018_Jan_30_1606
3C.wav,0,3,1,570,R,,,,,0,89,89,89,,,,,,,,,,,,,,None,,,,,,,,bi,2,f008,119.9512435,1C,auditory,2018_Jan_30_1606
1C.wav,0,1,1,571,R,,,,,0,90,90,90,,,,,,,,,,,,,,3,0.175318371,,,,,,,bi,2,f008,119.9512435,1C,auditory,2018_Jan_30_1606
3A.wav,0,2,1,572,R,,,,,0,91,91,91,,,,,,,,,,,,,,None,,,,,,,,bi,2,f008,119.9512435,1C,auditory,2018_Jan_30_1606
1C.wav,0,3,1,573,R,,,,,0,92,92,92,,,,,,,,,,,,,,None,,,,,,,,bi,2,f008,119.9512435,1C,auditory,2018_Jan_30_1606
1B.wav,0,1,1,574,R,,,,,0,93,93,93,,,,,,,,,,,,,,None,,,,,,,,bi,2,f008,119.9512435,1C,auditory,2018_Jan_30_1606
3C.wav,0,2,1,575,R,,,,,0,94,94,94,,,,,,,,,,,,,,None,,,,,,,,bi,2,f008,119.9512435,1C,auditory,2018_Jan_30_1606
1A.wav,0,3,1,576,R,,,,,0,95,95,95,,,,,,,,,,,,,,3,0.258754413,,,,,,,bi,2,f008,119.9512435,1C,auditory,2018_Jan_30_1606
silence.wav,0,0,0,0,B,,,,,0,96,96,96,,,,,,,,,,,,,,None,,,,,,,,bi,2,f008,119.9512435,1C,auditory,2018_Jan_30_1606
silence.wav,0,0,0,0,B,,,,,0,97,97,97,,,,,,,,,,,,,,None,,,,,,,,bi,2,f008,119.9512435,1C,auditory,2018_Jan_30_1606
silence.wav,0,0,0,0,B,,,,,0,98,98,98,,,,,,,,,,,,,,None,,,,,,,,bi,2,f008,119.9512435,1C,auditory,2018_Jan_30_1606
silence.wav,0,0,0,0,B,,,,,0,99,99,99,,,,,,,,,,,,,,None,,,,,,,,bi,2,f008,119.9512435,1C,auditory,2018_Jan_30_1606
silence.wav,0,0,0,0,B,,,,,0,100,100,100,,,,,,,,,,,,,,None,,,,,,,,bi,2,f008,119.9512435,1C,auditory,2018_Jan_30_1606
silence.wav,0,0,0,0,B,,,,,0,101,101,101,,,,,,,,,,,,,,None,,,,,,,,bi,2,f008,119.9512435,1C,auditory,2018_Jan_30_1606
silence.wav,0,0,0,0,B,,,,,0,102,102,102,,,,,,,,,,,,,,None,,,,,,,,bi,2,f008,119.9512435,1C,auditory,2018_Jan_30_1606
silence.wav,0,0,0,0,B,,,,,0,103,103,103,,,,,,,,,,,,,,None,,,,,,,,bi,2,f008,119.9512435,1C,auditory,2018_Jan_30_1606
silence.wav,0,0,0,0,B,,,,,0,104,104,104,,,,,,,,,,,,,,None,,,,,,,,bi,2,f008,119.9512435,1C,auditory,2018_Jan_30_1606
silence.wav,0,0,0,0,B,,,,,0,105,105,105,,,,,,,,,,,,,,None,,,,,,,,bi,2,f008,119.9512435,1C,auditory,2018_Jan_30_1606
silence.wav,0,0,0,0,B,,,,,0,106,106,106,,,,,,,,,,,,,,None,,,,,,,,bi,2,f008,119.9512435,1C,auditory,2018_Jan_30_1606
silence.wav,0,0,0,0,B,,,,,0,107,107,107,,,,,,,,,,,,,,None,,,,,,,,bi,2,f008,119.9512435,1C,auditory,2018_Jan_30_1606
silence.wav,0,0,0,0,B,,,,,0,108,108,108,,,,,,,,,,,,,,None,,,,,,,,bi,2,f008,119.9512435,1C,auditory,2018_Jan_30_1606
silence.wav,0,0,0,0,B,,,,,0,109,109,109,,,,,,,,,,,,,,None,,,,,,,,bi,2,f008,119.9512435,1C,auditory,2018_Jan_30_1606
silence.wav,0,0,0,0,B,,,,,0,110,110,110,,,,,,,,,,,,,,None,,,,,,,,bi,2,f008,119.9512435,1C,auditory,2018_Jan_30_1606
silence.wav,0,0,0,0,B,,,,,0,111,111,111,,,,,,,,,,,,,,None,,,,,,,,bi,2,f008,119.9512435,1C,auditory,2018_Jan_30_1606
silence.wav,0,0,0,0,B,,,,,0,112,112,112,,,,,,,,,,,,,,None,,,,,,,,bi,2,f008,119.9512435,1C,auditory,2018_Jan_30_1606
silence.wav,0,0,0,0,B,,,,,0,113,113,113,,,,,,,,,,,,,,None,,,,,,,,bi,2,f008,119.9512435,1C,auditory,2018_Jan_30_1606
silence.wav,0,0,0,0,B,,,,,0,114,114,114,,,,,,,,,,,,,,None,,,,,,,,bi,2,f008,119.9512435,1C,auditory,2018_Jan_30_1606
silence.wav,0,0,0,0,B,,,,,0,115,115,115,,,,,,,,,,,,,,None,,,,,,,,bi,2,f008,119.9512435,1C,auditory,2018_Jan_30_1606
silence.wav,0,0,0,0,B,,,,,0,116,116,116,,,,,,,,,,,,,,None,,,,,,,,bi,2,f008,119.9512435,1C,auditory,2018_Jan_30_1606
silence.wav,0,0,0,0,B,,,,,0,117,117,117,,,,,,,,,,,,,,None,,,,,,,,bi,2,f008,119.9512435,1C,auditory,2018_Jan_30_1606
silence.wav,0,0,0,0,B,,,,,0,118,118,118,,,,,,,,,,,,,,None,,,,,,,,bi,2,f008,119.9512435,1C,auditory,2018_Jan_30_1606
silence.wav,0,0,0,0,B,,,,,0,119,119,119,,,,,,,,,,,,,,None,,,,,,,,bi,2,f008,119.9512435,1C,auditory,2018_Jan_30_1606
3B.wav,0,1,1,289,R,,,,,0,0,0,0,,,,,,,,,,,,,,None,,,,,,,,bi,2,f008,119.9512435,1C,auditory,2018_Jan_30_1606
1B.wav,0,2,1,290,R,,,,,0,1,1,1,,,,,,,,,,,,,,None,,,,,,,,bi,2,f008,119.9512435,1C,auditory,2018_Jan_30_1606
1C.wav,0,3,1,291,R,,,,,0,2,2,2,,,,,,,,,,,,,,None,,,,,,,,bi,2,f008,119.9512435,1C,auditory,2018_Jan_30_1606
4C.wav,0,1,1,292,R,,,,,0,3,3,3,,,,,,,,,,,,,,3,0.200330411,,,,,,,bi,2,f008,119.9512435,1C,auditory,2018_Jan_30_1606
2A.wav,0,2,1,293,R,,,,,0,4,4,4,,,,,,,,,,,,,,None,,,,,,,,bi,2,f008,119.9512435,1C,auditory,2018_Jan_30_1606
1B.wav,0,3,1,294,R,,,,,0,5,5,5,,,,,,,,,,,,,,None,,,,,,,,bi,2,f008,119.9512435,1C,auditory,2018_Jan_30_1606
4A.wav,0,1,1,295,R,,,,,0,6,6,6,,,,,,,,,,,,,,None,,,,,,,,bi,2,f008,119.9512435,1C,auditory,2018_Jan_30_1606
1A.wav,0,2,1,296,R,,,,,0,7,7,7,,,,,,,,,,,,,,None,,,,,,,,bi,2,f008,119.9512435,1C,auditory,2018_Jan_30_1606
3C.wav,0,3,1,297,R,,,,,0,8,8,8,,,,,,,,,,,,,,None,,,,,,,,bi,2,f008,119.9512435,1C,auditory,2018_Jan_30_1606
3A.wav,0,1,1,298,R,,,,,0,9,9,9,,,,,,,,,,,,,,None,,,,,,,,bi,2,f008,119.9512435,1C,auditory,2018_Jan_30_1606
3C.wav,0,2,1,299,R,,,,,0,10,10,10,,,,,,,,,,,,,,3,0.408679305,,,,,,,bi,2,f008,119.9512435,1C,auditory,2018_Jan_30_1606
4A.wav,0,3,1,300,R,,,,,0,11,11,11,,,,,,,,,,,,,,None,,,,,,,,bi,2,f008,119.9512435,1C,auditory,2018_Jan_30_1606
3C.wav,0,1,1,301,R,,,,,0,12,12,12,,,,,,,,,,,,,,None,,,,,,,,bi,2,f008,119.9512435,1C,auditory,2018_Jan_30_1606
2C.wav,0,2,1,302,R,,,,,0,13,13,13,,,,,,,,,,,,,,None,,,,,,,,bi,2,f008,119.9512435,1C,auditory,2018_Jan_30_1606
3A.wav,0,3,1,303,R,,,,,0,14,14,14,,,,,,,,,,,,,,None,,,,,,,,bi,2,f008,119.9512435,1C,auditory,2018_Jan_30_1606
3A.wav,0,1,1,304,R,,,,,0,15,15,15,,,,,,,,,,,,,,3,0.058595522,,,,,,,bi,2,f008,119.9512435,1C,auditory,2018_Jan_30_1606
2B.wav,0,2,1,305,R,,,,,0,16,16,16,,,,,,,,,,,,,,3,0.217122294,,,,,,,bi,2,f008,119.9512435,1C,auditory,2018_Jan_30_1606
4C.wav,0,3,1,306,R,,,,,0,17,17,17,,,,,,,,,,,,,,3,0.367033818,,,,,,,bi,2,f008,119.9512435,1C,auditory,2018_Jan_30_1606
1A.wav,0,1,1,307,R,,,,,0,18,18,18,,,,,,,,,,,,,,None,,,,,,,,bi,2,f008,119.9512435,1C,auditory,2018_Jan_30_1606
3B.wav,0,2,1,308,R,,,,,0,19,19,19,,,,,,,,,,,,,,None,,,,,,,,bi,2,f008,119.9512435,1C,auditory,2018_Jan_30_1606
4B.wav,0,3,1,309,R,,,,,0,20,20,20,,,,,,,,,,,,,,None,,,,,,,,bi,2,f008,119.9512435,1C,auditory,2018_Jan_30_1606
1C.wav,0,1,1,310,R,,,,,0,21,21,21,,,,,,,,,,,,,,None,,,,,,,,bi,2,f008,119.9512435,1C,auditory,2018_Jan_30_1606
3B.wav,0,2,1,311,R,,,,,0,22,22,22,,,,,,,,,,,,,,3,0.100266325,,,,,,,bi,2,f008,119.9512435,1C,auditory,2018_Jan_30_1606
4B.wav,0,3,1,312,R,,,,,0,23,23,23,,,,,,,,,,,,,,None,,,,,,,,bi,2,f008,119.9512435,1C,auditory,2018_Jan_30_1606
4A.wav,0,1,1,337,R,,,,,0,24,24,24,,,,,,,,,,,,,,None,,,,,,,,bi,2,f008,119.9512435,1C,auditory,2018_Jan_30_1606
3B.wav,0,2,1,338,R,,,,,0,25,25,25,,,,,,,,,,,,,,3,0.233715351,,,,,,,bi,2,f008,119.9512435,1C,auditory,2018_Jan_30_1606
1C.wav,0,3,1,339,R,,,,,0,26,26,26,,,,,,,,,,,,,,None,,,,,,,,bi,2,f008,119.9512435,1C,auditory,2018_Jan_30_1606
3A.wav,0,1,1,340,R,,,,,0,27,27,27,,,,,,,,,,,,,,None,,,,,,,,bi,2,f008,119.9512435,1C,auditory,2018_Jan_30_1606
2C.wav,0,2,1,341,R,,,,,0,28,28,28,,,,,,,,,,,,,,None,,,,,,,,bi,2,f008,119.9512435,1C,auditory,2018_Jan_30_1606
4B.wav,0,3,1,342,R,,,,,0,29,29,29,,,,,,,,,,,,,,3,0.183787131,,,,,,,bi,2,f008,119.9512435,1C,auditory,2018_Jan_30_1606
3A.wav,0,1,1,343,R,,,,,0,30,30,30,,,,,,,,,,,,,,None,,,,,,,,bi,2,f008,119.9512435,1C,auditory,2018_Jan_30_1606
2A.wav,0,2,1,344,R,,,,,0,31,31,31,,,,,,,,,,,,,,3,0.158881474,,,,,,,bi,2,f008,119.9512435,1C,auditory,2018_Jan_30_1606
1B.wav,0,3,1,345,R,,,,,0,32,32,32,,,,,,,,,,,,,,None,,,,,,,,bi,2,f008,119.9512435,1C,auditory,2018_Jan_30_1606
4A.wav,0,1,1,346,R,,,,,0,33,33,33,,,,,,,,,,,,,,3,0.433668873,,,,,,,bi,2,f008,119.9512435,1C,auditory,2018_Jan_30_1606
2A.wav,0,2,1,347,R,,,,,0,34,34,34,,,,,,,,,,,,,,None,,,,,,,,bi,2,f008,119.9512435,1C,auditory,2018_Jan_30_1606
2B.wav,0,3,1,348,R,,,,,0,35,35,35,,,,,,,,,,,,,,None,,,,,,,,bi,2,f008,119.9512435,1C,auditory,2018_Jan_30_1606
3C.wav,0,1,1,349,R,,,,,0,36,36,36,,,,,,,,,,,,,,3,0.11688356,,,,,,,bi,2,f008,119.9512435,1C,auditory,2018_Jan_30_1606
3C.wav,0,2,1,350,R,,,,,0,37,37,37,,,,,,,,,,,,,,None,,,,,,,,bi,2,f008,119.9512435,1C,auditory,2018_Jan_30_1606
2A.wav,0,3,1,351,R,,,,,0,38,38,38,,,,,,,,,,,,,,3,0.317019126,,,,,,,bi,2,f008,119.9512435,1C,auditory,2018_Jan_30_1606
4B.wav,0,1,1,352,R,,,,,0,39,39,39,,,,,,,,,,,,,,3,0.342003859,,,,,,,bi,2,f008,119.9512435,1C,auditory,2018_Jan_30_1606
4C.wav,0,2,1,353,R,,,,,0,40,40,40,,,,,,,,,,,,,,None,,,,,,,,bi,2,f008,119.9512435,1C,auditory,2018_Jan_30_1606
2C.wav,0,3,1,354,R,,,,,0,41,41,41,,,,,,,,,,,,,,None,,,,,,,,bi,2,f008,119.9512435,1C,auditory,2018_Jan_30_1606
2B.wav,0,1,1,355,R,,,,,0,42,42,42,,,,,,,,,,,,,,None,,,,,,,,bi,2,f008,119.9512435,1C,auditory,2018_Jan_30_1606
1A.wav,0,2,1,356,R,,,,,0,43,43,43,,,,,,,,,,,,,,3,0.225409863,,,,,,,bi,2,f008,119.9512435,1C,auditory,2018_Jan_30_1606
2C.wav,0,3,1,357,R,,,,,0,44,44,44,,,,,,,,,,,,,,None,,,,,,,,bi,2,f008,119.9512435,1C,auditory,2018_Jan_30_1606
4C.wav,0,1,1,358,R,,,,,0,45,45,45,,,,,,,,,,,,,,None,,,,,,,,bi,2,f008,119.9512435,1C,auditory,2018_Jan_30_1606
2B.wav,0,2,1,359,R,,,,,0,46,46,46,,,,,,,,,,,,,,None,,,,,,,,bi,2,f008,119.9512435,1C,auditory,2018_Jan_30_1606
3B.wav,0,3,1,360,R,,,,,0,47,47,47,,,,,,,,,,,,,,3,0.115067383,,,,,,,bi,2,f008,119.9512435,1C,auditory,2018_Jan_30_1606
2A.wav,0,1,1,313,R,,,,,0,48,48,48,,,,,,,,,,,,,,None,,,,,,,,bi,2,f008,119.9512435,1C,auditory,2018_Jan_30_1606
3A.wav,0,2,1,314,R,,,,,0,49,49,49,,,,,,,,,,,,,,None,,,,,,,,bi,2,f008,119.9512435,1C,auditory,2018_Jan_30_1606
4A.wav,0,3,1,315,R,,,,,0,50,50,50,,,,,,,,,,,,,,None,,,,,,,,bi,2,f008,119.9512435,1C,auditory,2018_Jan_30_1606
1B.wav,0,1,1,316,R,,,,,0,51,51,51,,,,,,,,,,,,,,None,,,,,,,,bi,2,f008,119.9512435,1C,auditory,2018_Jan_30_1606
2B.wav,0,2,1,317,R,,,,,0,52,52,52,,,,,,,,,,,,,,None,,,,,,,,bi,2,f008,119.9512435,1C,auditory,2018_Jan_30_1606
1C.wav,0,3,1,318,R,,,,,0,53,53,53,,,,,,,,,,,,,,3,0.100218539,,,,,,,bi,2,f008,119.9512435,1C,auditory,2018_Jan_30_1606
1C.wav,0,1,1,319,R,,,,,0,54,54,54,,,,,,,,,,,,,,None,,,,,,,,bi,2,f008,119.9512435,1C,auditory,2018_Jan_30_1606
1B.wav,0,2,1,320,R,,,,,0,55,55,55,,,,,,,,,,,,,,3,0.02525979,,,,,,,bi,2,f008,119.9512435,1C,auditory,2018_Jan_30_1606
2C.wav,0,3,1,321,R,,,,,0,56,56,56,,,,,,,,,,,,,,None,,,,,,,,bi,2,f008,119.9512435,1C,auditory,2018_Jan_30_1606
4A.wav,0,1,1,322,R,,,,,0,57,57,57,,,,,,,,,,,,,,None,,,,,,,,bi,2,f008,119.9512435,1C,auditory,2018_Jan_30_1606
4B.wav,0,2,1,323,R,,,,,0,58,58,58,,,,,,,,,,,,,,3,0.181769283,,,,,,,bi,2,f008,119.9512435,1C,auditory,2018_Jan_30_1606
3C.wav,0,3,1,324,R,,,,,0,59,59,59,,,,,,,,,,,,,,None,,,,,,,,bi,2,f008,119.9512435,1C,auditory,2018_Jan_30_1606
3B.wav,0,1,1,325,R,,,,,0,60,60,60,,,,,,,,,,,,,,3,0.308686047,,,,,,,bi,2,f008,119.9512435,1C,auditory,2018_Jan_30_1606
4C.wav,0,2,1,326,R,,,,,0,61,61,61,,,,,,,,,,,,,,None,,,,,,,,bi,2,f008,119.9512435,1C,auditory,2018_Jan_30_1606
3C.wav,0,3,1,327,R,,,,,0,62,62,62,,,,,,,,,,,,,,None,,,,,,,,bi,2,f008,119.9512435,1C,auditory,2018_Jan_30_1606
4C.wav,0,1,1,328,R,,,,,0,63,63,63,,,,,,,,,,,,,,3,0.058589264,,,,,,,bi,2,f008,119.9512435,1C,auditory,2018_Jan_30_1606
2B.wav,0,2,1,329,R,,,,,0,64,64,64,,,,,,,,,,,,,,None,,,,,,,,bi,2,f008,119.9512435,1C,auditory,2018_Jan_30_1606
1A.wav,0,3,1,330,R,,,,,0,65,65,65,,,,,,,,,,,,,,3,0.300325091,,,,,,,bi,2,f008,119.9512435,1C,auditory,2018_Jan_30_1606
1A.wav,0,1,1,331,R,,,,,0,66,66,66,,,,,,,,,,,,,,None,,,,,,,,bi,2,f008,119.9512435,1C,auditory,2018_Jan_30_1606
2C.wav,0,2,1,332,R,,,,,0,67,67,67,,,,,,,,,,,,,,3,0.333906583,,,,,,,bi,2,f008,119.9512435,1C,auditory,2018_Jan_30_1606
2A.wav,0,3,1,333,R,,,,,0,68,68,68,,,,,,,,,,,,,,None,,,,,,,,bi,2,f008,119.9512435,1C,auditory,2018_Jan_30_1606
3A.wav,0,1,1,334,R,,,,,0,69,69,69,,,,,,,,,,,,,,None,,,,,,,,bi,2,f008,119.9512435,1C,auditory,2018_Jan_30_1606
3B.wav,0,2,1,335,R,,,,,0,70,70,70,,,,,,,,,,,,,,3,0.233536436,,,,,,,bi,2,f008,119.9512435,1C,auditory,2018_Jan_30_1606
4B.wav,0,3,1,336,R,,,,,0,71,71,71,,,,,,,,,,,,,,None,,,,,,,,bi,2,f008,119.9512435,1C,auditory,2018_Jan_30_1606
4B.wav,0,1,1,361,R,,,,,0,72,72,72,,,,,,,,,,,,,,None,,,,,,,,bi,2,f008,119.9512435,1C,auditory,2018_Jan_30_1606
4A.wav,0,2,1,362,R,,,,,0,73,73,73,,,,,,,,,,,,,,3,0.417018643,,,,,,,bi,2,f008,119.9512435,1C,auditory,2018_Jan_30_1606
2B.wav,0,3,1,363,R,,,,,0,74,74,74,,,,,,,,,,,,,,None,,,,,,,,bi,2,f008,119.9512435,1C,auditory,2018_Jan_30_1606
1A.wav,0,1,1,364,R,,,,,0,75,75,75,,,,,,,,,,,,,,3,0.182500021,,,,,,,bi,2,f008,119.9512435,1C,auditory,2018_Jan_30_1606
4C.wav,0,2,1,365,R,,,,,0,76,76,76,,,,,,,,,,,,,,None,,,,,,,,bi,2,f008,119.9512435,1C,auditory,2018_Jan_30_1606
2A.wav,0,3,1,366,R,,,,,0,77,77,77,,,,,,,,,,,,,,None,,,,,,,,bi,2,f008,119.9512435,1C,auditory,2018_Jan_30_1606
3C.wav,0,1,1,367,R,,,,,0,78,78,78,,,,,,,,,,,,,,None,,,,,,,,bi,2,f008,119.9512435,1C,auditory,2018_Jan_30_1606
1B.wav,0,2,1,368,R,,,,,0,79,79,79,,,,,,,,,,,,,,3,0.333921943,,,,,,,bi,2,f008,119.9512435,1C,auditory,2018_Jan_30_1606
1B.wav,0,3,1,369,R,,,,,0,80,80,80,,,,,,,,,,,,,,None,,,,,,,,bi,2,f008,119.9512435,1C,auditory,2018_Jan_30_1606
2C.wav,0,1,1,370,R,,,,,0,81,81,81,,,,,,,,,,,,,,3,0.333999597,,,,,,,bi,2,f008,119.9512435,1C,auditory,2018_Jan_30_1606
2A.wav,0,2,1,371,R,,,,,0,82,82,82,,,,,,,,,,,,,,None,,,,,,,,bi,2,f008,119.9512435,1C,auditory,2018_Jan_30_1606
4B.wav,0,3,1,372,R,,,,,0,83,83,83,,,,,,,,,,,,,,None,,,,,,,,bi,2,f008,119.9512435,1C,auditory,2018_Jan_30_1606
1C.wav,0,1,1,373,R,,,,,0,84,84,84,,,,,,,,,,,,,,None,,,,,,,,bi,2,f008,119.9512435,1C,auditory,2018_Jan_30_1606
2B.wav,0,2,1,374,R,,,,,0,85,85,85,,,,,,,,,,,,,,3,0.1410636,,,,,,,bi,2,f008,119.9512435,1C,auditory,2018_Jan_30_1606
1C.wav,0,3,1,375,R,,,,,0,86,86,86,,,,,,,,,,,,,,None,,,,,,,,bi,2,f008,119.9512435,1C,auditory,2018_Jan_30_1606
4A.wav,0,1,1,376,R,,,,,0,87,87,87,,,,,,,,,,,,,,None,,,,,,,,bi,2,f008,119.9512435,1C,auditory,2018_Jan_30_1606
1A.wav,0,2,1,377,R,,,,,0,88,88,88,,,,,,,,,,,,,,3,0.267086924,,,,,,,bi,2,f008,119.9512435,1C,auditory,2018_Jan_30_1606
3A.wav,0,3,1,378,R,,,,,0,89,89,89,,,,,,,,,,,,,,None,,,,,,,,bi,2,f008,119.9512435,1C,auditory,2018_Jan_30_1606
1B.wav,0,1,1,379,R,,,,,0,90,90,90,,,,,,,,,,,,,,3,0.242001498,,,,,,,bi,2,f008,119.9512435,1C,auditory,2018_Jan_30_1606
1A.wav,0,2,1,380,R,,,,,0,91,91,91,,,,,,,,,,,,,,None,,,,,,,,bi,2,f008,119.9512435,1C,auditory,2018_Jan_30_1606
2C.wav,0,3,1,381,R,,,,,0,92,92,92,,,,,,,,,,,,,,None,,,,,,,,bi,2,f008,119.9512435,1C,auditory,2018_Jan_30_1606
3B.wav,0,1,1,382,R,,,,,0,93,93,93,,,,,,,,,,,,,,3,0.3753632,,,,,,,bi,2,f008,119.9512435,1C,auditory,2018_Jan_30_1606
4C.wav,0,2,1,383,R,,,,,0,94,94,94,,,,,,,,,,,,,,None,,,,,,,,bi,2,f008,119.9512435,1C,auditory,2018_Jan_30_1606
1C.wav,0,3,1,384,R,,,,,0,95,95,95,,,,,,,,,,,,,,None,,,,,,,,bi,2,f008,119.9512435,1C,auditory,2018_Jan_30_1606
silence.wav,0,0,0,0,B,,,,,0,96,96,96,,,,,,,,,,,,,,3,0.192039713,,,,,,,bi,2,f008,119.9512435,1C,auditory,2018_Jan_30_1606
silence.wav,0,0,0,0,B,,,,,0,97,97,97,,,,,,,,,,,,,,None,,,,,,,,bi,2,f008,119.9512435,1C,auditory,2018_Jan_30_1606
silence.wav,0,0,0,0,B,,,,,0,98,98,98,,,,,,,,,,,,,,None,,,,,,,,bi,2,f008,119.9512435,1C,auditory,2018_Jan_30_1606
silence.wav,0,0,0,0,B,,,,,0,99,99,99,,,,,,,,,,,,,,None,,,,,,,,bi,2,f008,119.9512435,1C,auditory,2018_Jan_30_1606
silence.wav,0,0,0,0,B,,,,,0,100,100,100,,,,,,,,,,,,,,None,,,,,,,,bi,2,f008,119.9512435,1C,auditory,2018_Jan_30_1606
silence.wav,0,0,0,0,B,,,,,0,101,101,101,,,,,,,,,,,,,,None,,,,,,,,bi,2,f008,119.9512435,1C,auditory,2018_Jan_30_1606
silence.wav,0,0,0,0,B,,,,,0,102,102,102,,,,,,,,,,,,,,None,,,,,,,,bi,2,f008,119.9512435,1C,auditory,2018_Jan_30_1606
silence.wav,0,0,0,0,B,,,,,0,103,103,103,,,,,,,,,,,,,,None,,,,,,,,bi,2,f008,119.9512435,1C,auditory,2018_Jan_30_1606
silence.wav,0,0,0,0,B,,,,,0,104,104,104,,,,,,,,,,,,,,None,,,,,,,,bi,2,f008,119.9512435,1C,auditory,2018_Jan_30_1606
silence.wav,0,0,0,0,B,,,,,0,105,105,105,,,,,,,,,,,,,,None,,,,,,,,bi,2,f008,119.9512435,1C,auditory,2018_Jan_30_1606
silence.wav,0,0,0,0,B,,,,,0,106,106,106,,,,,,,,,,,,,,None,,,,,,,,bi,2,f008,119.9512435,1C,auditory,2018_Jan_30_1606
silence.wav,0,0,0,0,B,,,,,0,107,107,107,,,,,,,,,,,,,,None,,,,,,,,bi,2,f008,119.9512435,1C,auditory,2018_Jan_30_1606
silence.wav,0,0,0,0,B,,,,,0,108,108,108,,,,,,,,,,,,,,None,,,,,,,,bi,2,f008,119.9512435,1C,auditory,2018_Jan_30_1606
silence.wav,0,0,0,0,B,,,,,0,109,109,109,,,,,,,,,,,,,,None,,,,,,,,bi,2,f008,119.9512435,1C,auditory,2018_Jan_30_1606
silence.wav,0,0,0,0,B,,,,,0,110,110,110,,,,,,,,,,,,,,None,,,,,,,,bi,2,f008,119.9512435,1C,auditory,2018_Jan_30_1606
silence.wav,0,0,0,0,B,,,,,0,111,111,111,,,,,,,,,,,,,,None,,,,,,,,bi,2,f008,119.9512435,1C,auditory,2018_Jan_30_1606
silence.wav,0,0,0,0,B,,,,,0,112,112,112,,,,,,,,,,,,,,None,,,,,,,,bi,2,f008,119.9512435,1C,auditory,2018_Jan_30_1606
silence.wav,0,0,0,0,B,,,,,0,113,113,113,,,,,,,,,,,,,,None,,,,,,,,bi,2,f008,119.9512435,1C,auditory,2018_Jan_30_1606
silence.wav,0,0,0,0,B,,,,,0,114,114,114,,,,,,,,,,,,,,None,,,,,,,,bi,2,f008,119.9512435,1C,auditory,2018_Jan_30_1606
silence.wav,0,0,0,0,B,,,,,0,115,115,115,,,,,,,,,,,,,,None,,,,,,,,bi,2,f008,119.9512435,1C,auditory,2018_Jan_30_1606
silence.wav,0,0,0,0,B,,,,,0,116,116,116,,,,,,,,,,,,,,None,,,,,,,,bi,2,f008,119.9512435,1C,auditory,2018_Jan_30_1606
silence.wav,0,0,0,0,B,,,,,0,117,117,117,,,,,,,,,,,,,,None,,,,,,,,bi,2,f008,119.9512435,1C,auditory,2018_Jan_30_1606
silence.wav,0,0,0,0,B,,,,,0,118,118,118,,,,,,,,,,,,,,None,,,,,,,,bi,2,f008,119.9512435,1C,auditory,2018_Jan_30_1606
silence.wav,0,0,0,0,B,,,,,0,119,119,119,,,,,,,,,,,,,,None,,,,,,,,bi,2,f008,119.9512435,1C,auditory,2018_Jan_30_1606
2C.wav,0,1,1,385,R,,,,,0,0,0,0,,,,,,,,,,,,,,None,,,,,,,,bi,2,f008,119.9512435,1C,auditory,2018_Jan_30_1606
1B.wav,0,2,1,386,R,,,,,0,1,1,1,,,,,,,,,,,,,,None,,,,,,,,bi,2,f008,119.9512435,1C,auditory,2018_Jan_30_1606
3C.wav,0,3,1,387,R,,,,,0,2,2,2,,,,,,,,,,,,,,None,,,,,,,,bi,2,f008,119.9512435,1C,auditory,2018_Jan_30_1606
2B.wav,0,1,1,388,R,,,,,0,3,3,3,,,,,,,,,,,,,,None,,,,,,,,bi,2,f008,119.9512435,1C,auditory,2018_Jan_30_1606
3A.wav,0,2,1,389,R,,,,,0,4,4,4,,,,,,,,,,,,,,None,,,,,,,,bi,2,f008,119.9512435,1C,auditory,2018_Jan_30_1606
2C.wav,0,3,1,390,R,,,,,0,5,5,5,,,,,,,,,,,,,,3,0.275353159,,,,,,,bi,2,f008,119.9512435,1C,auditory,2018_Jan_30_1606
3B.wav,0,1,1,391,R,,,,,0,6,6,6,,,,,,,,,,,,,,None,,,,,,,,bi,2,f008,119.9512435,1C,auditory,2018_Jan_30_1606
3C.wav,0,2,1,392,R,,,,,0,7,7,7,,,,,,,,,,,,,,None,,,,,,,,bi,2,f008,119.9512435,1C,auditory,2018_Jan_30_1606
2A.wav,0,3,1,393,R,,,,,0,8,8,8,,,,,,,,,,,,,,None,,,,,,,,bi,2,f008,119.9512435,1C,auditory,2018_Jan_30_1606
3B.wav,0,1,1,394,R,,,,,0,9,9,9,,,,,,,,,,,,,,None,,,,,,,,bi,2,f008,119.9512435,1C,auditory,2018_Jan_30_1606
4A.wav,0,2,1,395,R,,,,,0,10,10,10,,,,,,,,,,,,,,None,,,,,,,,bi,2,f008,119.9512435,1C,auditory,2018_Jan_30_1606
3A.wav,0,3,1,396,R,,,,,0,11,11,11,,,,,,,,,,,,,,None,,,,,,,,bi,2,f008,119.9512435,1C,auditory,2018_Jan_30_1606
2B.wav,0,1,1,397,R,,,,,0,12,12,12,,,,,,,,,,,,,,None,,,,,,,,bi,2,f008,119.9512435,1C,auditory,2018_Jan_30_1606
4A.wav,0,2,1,398,R,,,,,0,13,13,13,,,,,,,,,,,,,,None,,,,,,,,bi,2,f008,119.9512435,1C,auditory,2018_Jan_30_1606
3C.wav,0,3,1,399,R,,,,,0,14,14,14,,,,,,,,,,,,,,3,0.017768381,,,,,,,bi,2,f008,119.9512435,1C,auditory,2018_Jan_30_1606
1C.wav,0,1,1,400,R,,,,,0,15,15,15,,,,,,,,,,,,,,None,,,,,,,,bi,2,f008,119.9512435,1C,auditory,2018_Jan_30_1606
4C.wav,0,2,1,401,R,,,,,0,16,16,16,,,,,,,,,,,,,,3,0.27529627,,,,,,,bi,2,f008,119.9512435,1C,auditory,2018_Jan_30_1606
4B.wav,0,3,1,402,R,,,,,0,17,17,17,,,,,,,,,,,,,,None,,,,,,,,bi,2,f008,119.9512435,1C,auditory,2018_Jan_30_1606
3B.wav,0,1,1,403,R,,,,,0,18,18,18,,,,,,,,,,,,,,None,,,,,,,,bi,2,f008,119.9512435,1C,auditory,2018_Jan_30_1606
4B.wav,0,2,1,404,R,,,,,0,19,19,19,,,,,,,,,,,,,,None,,,,,,,,bi,2,f008,119.9512435,1C,auditory,2018_Jan_30_1606
2A.wav,0,3,1,405,R,,,,,0,20,20,20,,,,,,,,,,,,,,None,,,,,,,,bi,2,f008,119.9512435,1C,auditory,2018_Jan_30_1606
3A.wav,0,1,1,406,R,,,,,0,21,21,21,,,,,,,,,,,,,,None,,,,,,,,bi,2,f008,119.9512435,1C,auditory,2018_Jan_30_1606
1A.wav,0,2,1,407,R,,,,,0,22,22,22,,,,,,,,,,,,,,3,0.083639419,,,,,,,bi,2,f008,119.9512435,1C,auditory,2018_Jan_30_1606
4C.wav,0,3,1,408,R,,,,,0,23,23,23,,,,,,,,,,,,,,None,,,,,,,,bi,2,f008,119.9512435,1C,auditory,2018_Jan_30_1606
1A.wav,0,1,1,409,R,,,,,0,24,24,24,,,,,,,,,,,,,,None,,,,,,,,bi,2,f008,119.9512435,1C,auditory,2018_Jan_30_1606
4B.wav,0,2,1,410,R,,,,,0,25,25,25,,,,,,,,,,,,,,3,0.183657424,,,,,,,bi,2,f008,119.9512435,1C,auditory,2018_Jan_30_1606
1A.wav,0,3,1,411,R,,,,,0,26,26,26,,,,,,,,,,,,,,None,,,,,,,,bi,2,f008,119.9512435,1C,auditory,2018_Jan_30_1606
4A.wav,0,1,1,412,R,,,,,0,27,27,27,,,,,,,,,,,,,,3,0.100266325,,,,,,,bi,2,f008,119.9512435,1C,auditory,2018_Jan_30_1606
2A.wav,0,2,1,413,R,,,,,0,28,28,28,,,,,,,,,,,,,,None,,,,,,,,bi,2,f008,119.9512435,1C,auditory,2018_Jan_30_1606
4A.wav,0,3,1,414,R,,,,,0,29,29,29,,,,,,,,,,,,,,None,,,,,,,,bi,2,f008,119.9512435,1C,auditory,2018_Jan_30_1606
1B.wav,0,1,1,415,R,,,,,0,30,30,30,,,,,,,,,,,,,,None,,,,,,,,bi,2,f008,119.9512435,1C,auditory,2018_Jan_30_1606
2B.wav,0,2,1,416,R,,,,,0,31,31,31,,,,,,,,,,,,,,3,0.352491035,,,,,,,bi,2,f008,119.9512435,1C,auditory,2018_Jan_30_1606
1C.wav,0,3,1,417,R,,,,,0,32,32,32,,,,,,,,,,,,,,None,,,,,,,,bi,2,f008,119.9512435,1C,auditory,2018_Jan_30_1606
1C.wav,0,1,1,418,R,,,,,0,33,33,33,,,,,,,,,,,,,,None,,,,,,,,bi,2,f008,119.9512435,1C,auditory,2018_Jan_30_1606
4B.wav,0,2,1,419,R,,,,,0,34,34,34,,,,,,,,,,,,,,3,0.300368042,,,,,,,bi,2,f008,119.9512435,1C,auditory,2018_Jan_30_1606
2A.wav,0,3,1,420,R,,,,,0,35,35,35,,,,,,,,,,,,,,None,,,,,,,,bi,2,f008,119.9512435,1C,auditory,2018_Jan_30_1606
3B.wav,0,1,1,421,R,,,,,0,36,36,36,,,,,,,,,,,,,,None,,,,,,,,bi,2,f008,119.9512435,1C,auditory,2018_Jan_30_1606
1A.wav,0,2,1,422,R,,,,,0,37,37,37,,,,,,,,,,,,,,None,,,,,,,,bi,2,f008,119.9512435,1C,auditory,2018_Jan_30_1606
2B.wav,0,3,1,423,R,,,,,0,38,38,38,,,,,,,,,,,,,,None,,,,,,,,bi,2,f008,119.9512435,1C,auditory,2018_Jan_30_1606
3C.wav,0,1,1,424,R,,,,,0,39,39,39,,,,,,,,,,,,,,3,0.275267257,,,,,,,bi,2,f008,119.9512435,1C,auditory,2018_Jan_30_1606
4C.wav,0,2,1,425,R,,,,,0,40,40,40,,,,,,,,,,,,,,3,0.258696955,,,,,,,bi,2,f008,119.9512435,1C,auditory,2018_Jan_30_1606
3A.wav,0,3,1,426,R,,,,,0,41,41,41,,,,,,,,,,,,,,None,,,,,,,,bi,2,f008,119.9512435,1C,auditory,2018_Jan_30_1606
2C.wav,0,1,1,427,R,,,,,0,42,42,42,,,,,,,,,,,,,,3,0.227343515,,,,,,,bi,2,f008,119.9512435,1C,auditory,2018_Jan_30_1606
1B.wav,0,2,1,428,R,,,,,0,43,43,43,,,,,,,,,,,,,,None,,,,,,,,bi,2,f008,119.9512435,1C,auditory,2018_Jan_30_1606
4C.wav,0,3,1,429,R,,,,,0,44,44,44,,,,,,,,,,,,,,None,,,,,,,,bi,2,f008,119.9512435,1C,auditory,2018_Jan_30_1606
2C.wav,0,1,1,430,R,,,,,0,45,45,45,,,,,,,,,,,,,,None,,,,,,,,bi,2,f008,119.9512435,1C,auditory,2018_Jan_30_1606
1B.wav,0,2,1,431,R,,,,,0,46,46,46,,,,,,,,,,,,,,None,,,,,,,,bi,2,f008,119.9512435,1C,auditory,2018_Jan_30_1606
1C.wav,0,3,1,432,R,,,,,0,47,47,47,,,,,,,,,,,,,,None,,,,,,,,bi,2,f008,119.9512435,1C,auditory,2018_Jan_30_1606
3C.wav,0,1,1,433,R,,,,,0,48,48,48,,,,,,,,,,,,,,3,0.075300366,,,,,,,bi,2,f008,119.9512435,1C,auditory,2018_Jan_30_1606
3B.wav,0,2,1,434,R,,,,,0,49,49,49,,,,,,,,,,,,,,3,0.225286983,,,,,,,bi,2,f008,119.9512435,1C,auditory,2018_Jan_30_1606
2A.wav,0,3,1,435,R,,,,,0,50,50,50,,,,,,,,,,,,,,None,,,,,,,,bi,2,f008,119.9512435,1C,auditory,2018_Jan_30_1606
3B.wav,0,1,1,436,R,,,,,0,51,51,51,,,,,,,,,,,,,,3,0.049519758,,,,,,,bi,2,f008,119.9512435,1C,auditory,2018_Jan_30_1606
1B.wav,0,2,1,437,R,,,,,0,52,52,52,,,,,,,,,,,,,,None,,,,,,,,bi,2,f008,119.9512435,1C,auditory,2018_Jan_30_1606
2B.wav,0,3,1,438,R,,,,,0,53,53,53,,,,,,,,,,,,,,None,,,,,,,,bi,2,f008,119.9512435,1C,auditory,2018_Jan_30_1606
3B.wav,0,1,1,439,R,,,,,0,54,54,54,,,,,,,,,,,,,,3,0.210770369,,,,,,,bi,2,f008,119.9512435,1C,auditory,2018_Jan_30_1606
4A.wav,0,2,1,440,R,,,,,0,55,55,55,,,,,,,,,,,,,,None,,,,,,,,bi,2,f008,119.9512435,1C,auditory,2018_Jan_30_1606
2C.wav,0,3,1,441,R,,,,,0,56,56,56,,,,,,,,,,,,,,None,,,,,,,,bi,2,f008,119.9512435,1C,auditory,2018_Jan_30_1606
3A.wav,0,1,1,442,R,,,,,0,57,57,57,,,,,,,,,,,,,,None,,,,,,,,bi,2,f008,119.9512435,1C,auditory,2018_Jan_30_1606
1C.wav,0,2,1,443,R,,,,,0,58,58,58,,,,,,,,,,,,,,3,0.025304732,,,,,,,bi,2,f008,119.9512435,1C,auditory,2018_Jan_30_1606
3C.wav,0,3,1,444,R,,,,,0,59,59,59,,,,,,,,,,,,,,3,0.342075254,,,,,,,bi,2,f008,119.9512435,1C,auditory,2018_Jan_30_1606
2B.wav,0,1,1,445,R,,,,,0,60,60,60,,,,,,,,,,,,,,3,0.208578157,,,,,,,bi,2,f008,119.9512435,1C,auditory,2018_Jan_30_1606
2C.wav,0,2,1,446,R,,,,,0,61,61,61,,,,,,,,,,,,,,3,0.225312014,,,,,,,bi,2,f008,119.9512435,1C,auditory,2018_Jan_30_1606
3A.wav,0,3,1,447,R,,,,,0,62,62,62,,,,,,,,,,,,,,None,,,,,,,,bi,2,f008,119.9512435,1C,auditory,2018_Jan_30_1606
2A.wav,0,1,1,448,R,,,,,0,63,63,63,,,,,,,,,,,,,,3,0.282527128,,,,,,,bi,2,f008,119.9512435,1C,auditory,2018_Jan_30_1606
3A.wav,0,2,1,449,R,,,,,0,64,64,64,,,,,,,,,,,,,,3,0.408763785,,,,,,,bi,2,f008,119.9512435,1C,auditory,2018_Jan_30_1606
1C.wav,0,3,1,450,R,,,,,0,65,65,65,,,,,,,,,,,,,,None,,,,,,,,bi,2,f008,119.9512435,1C,auditory,2018_Jan_30_1606
4C.wav,0,1,1,451,R,,,,,0,66,66,66,,,,,,,,,,,,,,None,,,,,,,,bi,2,f008,119.9512435,1C,auditory,2018_Jan_30_1606
1B.wav,0,2,1,452,R,,,,,0,67,67,67,,,,,,,,,,,,,,3,0.07417994,,,,,,,bi,2,f008,119.9512435,1C,auditory,2018_Jan_30_1606
1A.wav,0,3,1,453,R,,,,,0,68,68,68,,,,,,,,,,,,,,3,0.442100086,,,,,,,bi,2,f008,119.9512435,1C,auditory,2018_Jan_30_1606
3C.wav,0,1,1,454,R,,,,,0,69,69,69,,,,,,,,,,,,,,None,,,,,,,,bi,2,f008,119.9512435,1C,auditory,2018_Jan_30_1606
4B.wav,0,2,1,455,R,,,,,0,70,70,70,,,,,,,,,,,,,,None,,,,,,,,bi,2,f008,119.9512435,1C,auditory,2018_Jan_30_1606
1A.wav,0,3,1,456,R,,,,,0,71,71,71,,,,,,,,,,,,,,3,0.327290409,,,,,,,bi,2,f008,119.9512435,1C,auditory,2018_Jan_30_1606
2A.wav,0,1,1,457,R,,,,,0,72,72,72,,,,,,,,,,,,,,None,,,,,,,,bi,2,f008,119.9512435,1C,auditory,2018_Jan_30_1606
1B.wav,0,2,1,458,R,,,,,0,73,73,73,,,,,,,,,,,,,,None,,,,,,,,bi,2,f008,119.9512435,1C,auditory,2018_Jan_30_1606
4C.wav,0,3,1,459,R,,,,,0,74,74,74,,,,,,,,,,,,,,None,,,,,,,,bi,2,f008,119.9512435,1C,auditory,2018_Jan_30_1606
1B.wav,0,1,1,460,R,,,,,0,75,75,75,,,,,,,,,,,,,,None,,,,,,,,bi,2,f008,119.9512435,1C,auditory,2018_Jan_30_1606
3B.wav,0,2,1,461,R,,,,,0,76,76,76,,,,,,,,,,,,,,None,,,,,,,,bi,2,f008,119.9512435,1C,auditory,2018_Jan_30_1606
4B.wav,0,3,1,462,R,,,,,0,77,77,77,,,,,,,,,,,,,,None,,,,,,,,bi,2,f008,119.9512435,1C,auditory,2018_Jan_30_1606
2B.wav,0,1,1,463,R,,,,,0,78,78,78,,,,,,,,,,,,,,None,,,,,,,,bi,2,f008,119.9512435,1C,auditory,2018_Jan_30_1606
4A.wav,0,2,1,464,R,,,,,0,79,79,79,,,,,,,,,,,,,,3,0.167791691,,,,,,,bi,2,f008,119.9512435,1C,auditory,2018_Jan_30_1606
4B.wav,0,3,1,465,R,,,,,0,80,80,80,,,,,,,,,,,,,,None,,,,,,,,bi,2,f008,119.9512435,1C,auditory,2018_Jan_30_1606
2A.wav,0,1,1,466,R,,,,,0,81,81,81,,,,,,,,,,,,,,None,,,,,,,,bi,2,f008,119.9512435,1C,auditory,2018_Jan_30_1606
4C.wav,0,2,1,467,R,,,,,0,82,82,82,,,,,,,,,,,,,,None,,,,,,,,bi,2,f008,119.9512435,1C,auditory,2018_Jan_30_1606
4A.wav,0,3,1,468,R,,,,,0,83,83,83,,,,,,,,,,,,,,None,,,,,,,,bi,2,f008,119.9512435,1C,auditory,2018_Jan_30_1606
1A.wav,0,1,1,469,R,,,,,0,84,84,84,,,,,,,,,,,,,,3,0.177490104,,,,,,,bi,2,f008,119.9512435,1C,auditory,2018_Jan_30_1606
4C.wav,0,2,1,470,R,,,,,0,85,85,85,,,,,,,,,,,,,,3,0.202453787,,,,,,,bi,2,f008,119.9512435,1C,auditory,2018_Jan_30_1606
3C.wav,0,3,1,471,R,,,,,0,86,86,86,,,,,,,,,,,,,,None,,,,,,,,bi,2,f008,119.9512435,1C,auditory,2018_Jan_30_1606
1A.wav,0,1,1,472,R,,,,,0,87,87,87,,,,,,,,,,,,,,3,0.258669648,,,,,,,bi,2,f008,119.9512435,1C,auditory,2018_Jan_30_1606
4A.wav,0,2,1,473,R,,,,,0,88,88,88,,,,,,,,,,,,,,None,,,,,,,,bi,2,f008,119.9512435,1C,auditory,2018_Jan_30_1606
4B.wav,0,3,1,474,R,,,,,0,89,89,89,,,,,,,,,,,,,,None,,,,,,,,bi,2,f008,119.9512435,1C,auditory,2018_Jan_30_1606
2C.wav,0,1,1,475,R,,,,,0,90,90,90,,,,,,,,,,,,,,3,0.441969242,,,,,,,bi,2,f008,119.9512435,1C,auditory,2018_Jan_30_1606
1C.wav,0,2,1,476,R,,,,,0,91,91,91,,,,,,,,,,,,,,None,,,,,,,,bi,2,f008,119.9512435,1C,auditory,2018_Jan_30_1606
2B.wav,0,3,1,477,R,,,,,0,92,92,92,,,,,,,,,,,,,,None,,,,,,,,bi,2,f008,119.9512435,1C,auditory,2018_Jan_30_1606
2C.wav,0,1,1,478,R,,,,,0,93,93,93,,,,,,,,,,,,,,3,0.124268018,,,,,,,bi,2,f008,119.9512435,1C,auditory,2018_Jan_30_1606
1C.wav,0,2,1,479,R,,,,,0,94,94,94,,,,,,,,,,,,,,None,,,,,,,,bi,2,f008,119.9512435,1C,auditory,2018_Jan_30_1606
3A.wav,0,3,1,480,R,,,,,0,95,95,95,,,,,,,,,,,,,,3,0.108632969,,,,,,,bi,2,f008,119.9512435,1C,auditory,2018_Jan_30_1606
silence.wav,0,0,0,0,B,,,,,0,96,96,96,,,,,,,,,,,,,,None,,,,,,,,bi,2,f008,119.9512435,1C,auditory,2018_Jan_30_1606
silence.wav,0,0,0,0,B,,,,,0,97,97,97,,,,,,,,,,,,,,None,,,,,,,,bi,2,f008,119.9512435,1C,auditory,2018_Jan_30_1606
silence.wav,0,0,0,0,B,,,,,0,98,98,98,,,,,,,,,,,,,,None,,,,,,,,bi,2,f008,119.9512435,1C,auditory,2018_Jan_30_1606
silence.wav,0,0,0,0,B,,,,,0,99,99,99,,,,,,,,,,,,,,None,,,,,,,,bi,2,f008,119.9512435,1C,auditory,2018_Jan_30_1606
silence.wav,0,0,0,0,B,,,,,0,100,100,100,,,,,,,,,,,,,,None,,,,,,,,bi,2,f008,119.9512435,1C,auditory,2018_Jan_30_1606
silence.wav,0,0,0,0,B,,,,,0,101,101,101,,,,,,,,,,,,,,None,,,,,,,,bi,2,f008,119.9512435,1C,auditory,2018_Jan_30_1606
silence.wav,0,0,0,0,B,,,,,0,102,102,102,,,,,,,,,,,,,,None,,,,,,,,bi,2,f008,119.9512435,1C,auditory,2018_Jan_30_1606
silence.wav,0,0,0,0,B,,,,,0,103,103,103,,,,,,,,,,,,,,None,,,,,,,,bi,2,f008,119.9512435,1C,auditory,2018_Jan_30_1606
silence.wav,0,0,0,0,B,,,,,0,104,104,104,,,,,,,,,,,,,,None,,,,,,,,bi,2,f008,119.9512435,1C,auditory,2018_Jan_30_1606
silence.wav,0,0,0,0,B,,,,,0,105,105,105,,,,,,,,,,,,,,None,,,,,,,,bi,2,f008,119.9512435,1C,auditory,2018_Jan_30_1606
silence.wav,0,0,0,0,B,,,,,0,106,106,106,,,,,,,,,,,,,,None,,,,,,,,bi,2,f008,119.9512435,1C,auditory,2018_Jan_30_1606
silence.wav,0,0,0,0,B,,,,,0,107,107,107,,,,,,,,,,,,,,None,,,,,,,,bi,2,f008,119.9512435,1C,auditory,2018_Jan_30_1606
silence.wav,0,0,0,0,B,,,,,0,108,108,108,,,,,,,,,,,,,,None,,,,,,,,bi,2,f008,119.9512435,1C,auditory,2018_Jan_30_1606
silence.wav,0,0,0,0,B,,,,,0,109,109,109,,,,,,,,,,,,,,None,,,,,,,,bi,2,f008,119.9512435,1C,auditory,2018_Jan_30_1606
silence.wav,0,0,0,0,B,,,,,0,110,110,110,,,,,,,,,,,,,,None,,,,,,,,bi,2,f008,119.9512435,1C,auditory,2018_Jan_30_1606
silence.wav,0,0,0,0,B,,,,,0,111,111,111,,,,,,,,,,,,,,None,,,,,,,,bi,2,f008,119.9512435,1C,auditory,2018_Jan_30_1606
silence.wav,0,0,0,0,B,,,,,0,112,112,112,,,,,,,,,,,,,,None,,,,,,,,bi,2,f008,119.9512435,1C,auditory,2018_Jan_30_1606
silence.wav,0,0,0,0,B,,,,,0,113,113,113,,,,,,,,,,,,,,None,,,,,,,,bi,2,f008,119.9512435,1C,auditory,2018_Jan_30_1606
silence.wav,0,0,0,0,B,,,,,0,114,114,114,,,,,,,,,,,,,,None,,,,,,,,bi,2,f008,119.9512435,1C,auditory,2018_Jan_30_1606
silence.wav,0,0,0,0,B,,,,,0,115,115,115,,,,,,,,,,,,,,None,,,,,,,,bi,2,f008,119.9512435,1C,auditory,2018_Jan_30_1606
silence.wav,0,0,0,0,B,,,,,0,116,116,116,,,,,,,,,,,,,,None,,,,,,,,bi,2,f008,119.9512435,1C,auditory,2018_Jan_30_1606
silence.wav,0,0,0,0,B,,,,,0,117,117,117,,,,,,,,,,,,,,None,,,,,,,,bi,2,f008,119.9512435,1C,auditory,2018_Jan_30_1606
silence.wav,0,0,0,0,B,,,,,0,118,118,118,,,,,,,,,,,,,,None,,,,,,,,bi,2,f008,119.9512435,1C,auditory,2018_Jan_30_1606
silence.wav,0,0,0,0,B,,,,,0,119,119,119,,,,,,,,,,,,,,None,,,,,,,,bi,2,f008,119.9512435,1C,auditory,2018_Jan_30_1606
pi.wav,1,1,25,289,S,0,0,0,0,,,,,,,,,,,,,,,,None,,,,,,,,,,bi,2,f008,119.9512435,1C,auditory,2018_Jan_30_1606
tu.wav,1,2,25,290,S,0,1,1,1,,,,,,,,,,,,,,,,None,,,,,,,,,,bi,2,f008,119.9512435,1C,auditory,2018_Jan_30_1606
bi.wav,1,3,25,291,S,0,2,2,2,,,,,,,,,,,,,,,,3,0.383668973,,,,,,,,,bi,2,f008,119.9512435,1C,auditory,2018_Jan_30_1606
di.wav,2,1,25,292,S,0,3,3,3,,,,,,,,,,,,,,,,None,,,,,,,,,,bi,2,f008,119.9512435,1C,auditory,2018_Jan_30_1606
ba.wav,2,2,25,293,S,0,4,4,4,,,,,,,,,,,,,,,,None,,,,,,,,,,bi,2,f008,119.9512435,1C,auditory,2018_Jan_30_1606
pu.wav,2,3,25,294,S,0,5,5,5,,,,,,,,,,,,,,,,None,,,,,,,,,,bi,2,f008,119.9512435,1C,auditory,2018_Jan_30_1606
ta.wav,3,1,25,295,S,0,6,6,6,,,,,,,,,,,,,,,,None,,,,,,,,,,bi,2,f008,119.9512435,1C,auditory,2018_Jan_30_1606
ti.wav,3,2,25,296,S,0,7,7,7,,,,,,,,,,,,,,,,None,,,,,,,,,,bi,2,f008,119.9512435,1C,auditory,2018_Jan_30_1606
du.wav,3,3,25,297,S,0,8,8,8,,,,,,,,,,,,,,,,None,,,,,,,,,,bi,2,f008,119.9512435,1C,auditory,2018_Jan_30_1606
pi.wav,1,1,26,298,S,0,9,9,9,,,,,,,,,,,,,,,,None,,,,,,,,,,bi,2,f008,119.9512435,1C,auditory,2018_Jan_30_1606
tu.wav,1,2,26,299,S,0,10,10,10,,,,,,,,,,,,,,,,None,,,,,,,,,,bi,2,f008,119.9512435,1C,auditory,2018_Jan_30_1606
bi.wav,1,3,26,300,S,0,11,11,11,,,,,,,,,,,,,,,,3,0.28364727,,,,,,,,,bi,2,f008,119.9512435,1C,auditory,2018_Jan_30_1606
bu.wav,4,1,25,301,S,0,12,12,12,,,,,,,,,,,,,,,,None,,,,,,,,,,bi,2,f008,119.9512435,1C,auditory,2018_Jan_30_1606
pa.wav,4,2,25,302,S,0,13,13,13,,,,,,,,,,,,,,,,None,,,,,,,,,,bi,2,f008,119.9512435,1C,auditory,2018_Jan_30_1606
da.wav,4,3,25,303,S,0,14,14,14,,,,,,,,,,,,,,,,None,,,,,,,,,,bi,2,f008,119.9512435,1C,auditory,2018_Jan_30_1606
di.wav,2,1,26,304,S,0,15,15,15,,,,,,,,,,,,,,,,None,,,,,,,,,,bi,2,f008,119.9512435,1C,auditory,2018_Jan_30_1606
ba.wav,2,2,26,305,S,0,16,16,16,,,,,,,,,,,,,,,,None,,,,,,,,,,bi,2,f008,119.9512435,1C,auditory,2018_Jan_30_1606
pu.wav,2,3,26,306,S,0,17,17,17,,,,,,,,,,,,,,,,None,,,,,,,,,,bi,2,f008,119.9512435,1C,auditory,2018_Jan_30_1606
ta.wav,3,1,26,307,S,0,18,18,18,,,,,,,,,,,,,,,,None,,,,,,,,,,bi,2,f008,119.9512435,1C,auditory,2018_Jan_30_1606
ti.wav,3,2,26,308,S,0,19,19,19,,,,,,,,,,,,,,,,None,,,,,,,,,,bi,2,f008,119.9512435,1C,auditory,2018_Jan_30_1606
du.wav,3,3,26,309,S,0,20,20,20,,,,,,,,,,,,,,,,None,,,,,,,,,,bi,2,f008,119.9512435,1C,auditory,2018_Jan_30_1606
pi.wav,1,1,27,310,S,0,21,21,21,,,,,,,,,,,,,,,,None,,,,,,,,,,bi,2,f008,119.9512435,1C,auditory,2018_Jan_30_1606
tu.wav,1,2,27,311,S,0,22,22,22,,,,,,,,,,,,,,,,None,,,,,,,,,,bi,2,f008,119.9512435,1C,auditory,2018_Jan_30_1606
bi.wav,1,3,27,312,S,0,23,23,23,,,,,,,,,,,,,,,,3,0.308779344,,,,,,,,,bi,2,f008,119.9512435,1C,auditory,2018_Jan_30_1606
bu.wav,4,1,26,313,S,0,24,24,24,,,,,,,,,,,,,,,,None,,,,,,,,,,bi,2,f008,119.9512435,1C,auditory,2018_Jan_30_1606
pa.wav,4,2,26,314,S,0,25,25,25,,,,,,,,,,,,,,,,None,,,,,,,,,,bi,2,f008,119.9512435,1C,auditory,2018_Jan_30_1606
da.wav,4,3,26,315,S,0,26,26,26,,,,,,,,,,,,,,,,None,,,,,,,,,,bi,2,f008,119.9512435,1C,auditory,2018_Jan_30_1606
di.wav,2,1,27,316,S,0,27,27,27,,,,,,,,,,,,,,,,None,,,,,,,,,,bi,2,f008,119.9512435,1C,auditory,2018_Jan_30_1606
ba.wav,2,2,27,317,S,0,28,28,28,,,,,,,,,,,,,,,,None,,,,,,,,,,bi,2,f008,119.9512435,1C,auditory,2018_Jan_30_1606
pu.wav,2,3,27,318,S,0,29,29,29,,,,,,,,,,,,,,,,None,,,,,,,,,,bi,2,f008,119.9512435,1C,auditory,2018_Jan_30_1606
bu.wav,4,1,27,319,S,0,30,30,30,,,,,,,,,,,,,,,,None,,,,,,,,,,bi,2,f008,119.9512435,1C,auditory,2018_Jan_30_1606
pa.wav,4,2,27,320,S,0,31,31,31,,,,,,,,,,,,,,,,None,,,,,,,,,,bi,2,f008,119.9512435,1C,auditory,2018_Jan_30_1606
da.wav,4,3,27,321,S,0,32,32,32,,,,,,,,,,,,,,,,None,,,,,,,,,,bi,2,f008,119.9512435,1C,auditory,2018_Jan_30_1606
ta.wav,3,1,27,322,S,0,33,33,33,,,,,,,,,,,,,,,,None,,,,,,,,,,bi,2,f008,119.9512435,1C,auditory,2018_Jan_30_1606
ti.wav,3,2,27,323,S,0,34,34,34,,,,,,,,,,,,,,,,None,,,,,,,,,,bi,2,f008,119.9512435,1C,auditory,2018_Jan_30_1606
du.wav,3,3,27,324,S,0,35,35,35,,,,,,,,,,,,,,,,None,,,,,,,,,,bi,2,f008,119.9512435,1C,auditory,2018_Jan_30_1606
pi.wav,1,1,28,325,S,0,36,36,36,,,,,,,,,,,,,,,,None,,,,,,,,,,bi,2,f008,119.9512435,1C,auditory,2018_Jan_30_1606
tu.wav,1,2,28,326,S,0,37,37,37,,,,,,,,,,,,,,,,None,,,,,,,,,,bi,2,f008,119.9512435,1C,auditory,2018_Jan_30_1606
bi.wav,1,3,28,327,S,0,38,38,38,,,,,,,,,,,,,,,,3,0.342107965,,,,,,,,,bi,2,f008,119.9512435,1C,auditory,2018_Jan_30_1606
ta.wav,3,1,28,328,S,0,39,39,39,,,,,,,,,,,,,,,,None,,,,,,,,,,bi,2,f008,119.9512435,1C,auditory,2018_Jan_30_1606
ti.wav,3,2,28,329,S,0,40,40,40,,,,,,,,,,,,,,,,None,,,,,,,,,,bi,2,f008,119.9512435,1C,auditory,2018_Jan_30_1606
du.wav,3,3,28,330,S,0,41,41,41,,,,,,,,,,,,,,,,None,,,,,,,,,,bi,2,f008,119.9512435,1C,auditory,2018_Jan_30_1606
pi.wav,1,1,29,331,S,0,42,42,42,,,,,,,,,,,,,,,,None,,,,,,,,,,bi,2,f008,119.9512435,1C,auditory,2018_Jan_30_1606
tu.wav,1,2,29,332,S,0,43,43,43,,,,,,,,,,,,,,,,None,,,,,,,,,,bi,2,f008,119.9512435,1C,auditory,2018_Jan_30_1606
bi.wav,1,3,29,333,S,0,44,44,44,,,,,,,,,,,,,,,,None,,,,,,,,,,bi,2,f008,119.9512435,1C,auditory,2018_Jan_30_1606
bu.wav,4,1,28,334,S,0,45,45,45,,,,,,,,,,,,,,,,None,,,,,,,,,,bi,2,f008,119.9512435,1C,auditory,2018_Jan_30_1606
pa.wav,4,2,28,335,S,0,46,46,46,,,,,,,,,,,,,,,,None,,,,,,,,,,bi,2,f008,119.9512435,1C,auditory,2018_Jan_30_1606
da.wav,4,3,28,336,S,0,47,47,47,,,,,,,,,,,,,,,,None,,,,,,,,,,bi,2,f008,119.9512435,1C,auditory,2018_Jan_30_1606
di.wav,2,1,28,337,S,0,48,48,48,,,,,,,,,,,,,,,,None,,,,,,,,,,bi,2,f008,119.9512435,1C,auditory,2018_Jan_30_1606
ba.wav,2,2,28,338,S,0,49,49,49,,,,,,,,,,,,,,,,None,,,,,,,,,,bi,2,f008,119.9512435,1C,auditory,2018_Jan_30_1606
pu.wav,2,3,28,339,S,0,50,50,50,,,,,,,,,,,,,,,,None,,,,,,,,,,bi,2,f008,119.9512435,1C,auditory,2018_Jan_30_1606
ta.wav,3,1,29,340,S,0,51,51,51,,,,,,,,,,,,,,,,None,,,,,,,,,,bi,2,f008,119.9512435,1C,auditory,2018_Jan_30_1606
ti.wav,3,2,29,341,S,0,52,52,52,,,,,,,,,,,,,,,,None,,,,,,,,,,bi,2,f008,119.9512435,1C,auditory,2018_Jan_30_1606
du.wav,3,3,29,342,S,0,53,53,53,,,,,,,,,,,,,,,,None,,,,,,,,,,bi,2,f008,119.9512435,1C,auditory,2018_Jan_30_1606
pi.wav,1,1,30,343,S,0,54,54,54,,,,,,,,,,,,,,,,None,,,,,,,,,,bi,2,f008,119.9512435,1C,auditory,2018_Jan_30_1606
tu.wav,1,2,30,344,S,0,55,55,55,,,,,,,,,,,,,,,,None,,,,,,,,,,bi,2,f008,119.9512435,1C,auditory,2018_Jan_30_1606
bi.wav,1,3,30,345,S,0,56,56,56,,,,,,,,,,,,,,,,3,0.267018373,,,,,,,,,bi,2,f008,119.9512435,1C,auditory,2018_Jan_30_1606
bu.wav,4,1,29,346,S,0,57,57,57,,,,,,,,,,,,,,,,None,,,,,,,,,,bi,2,f008,119.9512435,1C,auditory,2018_Jan_30_1606
pa.wav,4,2,29,347,S,0,58,58,58,,,,,,,,,,,,,,,,None,,,,,,,,,,bi,2,f008,119.9512435,1C,auditory,2018_Jan_30_1606
da.wav,4,3,29,348,S,0,59,59,59,,,,,,,,,,,,,,,,None,,,,,,,,,,bi,2,f008,119.9512435,1C,auditory,2018_Jan_30_1606
di.wav,2,1,29,349,S,0,60,60,60,,,,,,,,,,,,,,,,None,,,,,,,,,,bi,2,f008,119.9512435,1C,auditory,2018_Jan_30_1606
ba.wav,2,2,29,350,S,0,61,61,61,,,,,,,,,,,,,,,,None,,,,,,,,,,bi,2,f008,119.9512435,1C,auditory,2018_Jan_30_1606
pu.wav,2,3,29,351,S,0,62,62,62,,,,,,,,,,,,,,,,None,,,,,,,,,,bi,2,f008,119.9512435,1C,auditory,2018_Jan_30_1606
bu.wav,4,1,30,352,S,0,63,63,63,,,,,,,,,,,,,,,,None,,,,,,,,,,bi,2,f008,119.9512435,1C,auditory,2018_Jan_30_1606
pa.wav,4,2,30,353,S,0,64,64,64,,,,,,,,,,,,,,,,None,,,,,,,,,,bi,2,f008,119.9512435,1C,auditory,2018_Jan_30_1606
da.wav,4,3,30,354,S,0,65,65,65,,,,,,,,,,,,,,,,None,,,,,,,,,,bi,2,f008,119.9512435,1C,auditory,2018_Jan_30_1606
pi.wav,1,1,31,355,S,0,66,66,66,,,,,,,,,,,,,,,,None,,,,,,,,,,bi,2,f008,119.9512435,1C,auditory,2018_Jan_30_1606
tu.wav,1,2,31,356,S,0,67,67,67,,,,,,,,,,,,,,,,None,,,,,,,,,,bi,2,f008,119.9512435,1C,auditory,2018_Jan_30_1606
bi.wav,1,3,31,357,S,0,68,68,68,,,,,,,,,,,,,,,,None,,,,,,,,,,bi,2,f008,119.9512435,1C,auditory,2018_Jan_30_1606
ta.wav,3,1,30,358,S,0,69,69,69,,,,,,,,,,,,,,,,None,,,,,,,,,,bi,2,f008,119.9512435,1C,auditory,2018_Jan_30_1606
ti.wav,3,2,30,359,S,0,70,70,70,,,,,,,,,,,,,,,,3,0.175446087,,,,,,,,,bi,2,f008,119.9512435,1C,auditory,2018_Jan_30_1606
du.wav,3,3,30,360,S,0,71,71,71,,,,,,,,,,,,,,,,None,,,,,,,,,,bi,2,f008,119.9512435,1C,auditory,2018_Jan_30_1606
di.wav,2,1,30,361,S,0,72,72,72,,,,,,,,,,,,,,,,None,,,,,,,,,,bi,2,f008,119.9512435,1C,auditory,2018_Jan_30_1606
ba.wav,2,2,30,362,S,0,73,73,73,,,,,,,,,,,,,,,,None,,,,,,,,,,bi,2,f008,119.9512435,1C,auditory,2018_Jan_30_1606
pu.wav,2,3,30,363,S,0,74,74,74,,,,,,,,,,,,,,,,None,,,,,,,,,,bi,2,f008,119.9512435,1C,auditory,2018_Jan_30_1606
pi.wav,1,1,32,364,S,0,75,75,75,,,,,,,,,,,,,,,,None,,,,,,,,,,bi,2,f008,119.9512435,1C,auditory,2018_Jan_30_1606
tu.wav,1,2,32,365,S,0,76,76,76,,,,,,,,,,,,,,,,None,,,,,,,,,,bi,2,f008,119.9512435,1C,auditory,2018_Jan_30_1606
bi.wav,1,3,32,366,S,0,77,77,77,,,,,,,,,,,,,,,,None,,,,,,,,,,bi,2,f008,119.9512435,1C,auditory,2018_Jan_30_1606
bu.wav,4,1,31,367,S,0,78,78,78,,,,,,,,,,,,,,,,3,0.127256105,,,,,,,,,bi,2,f008,119.9512435,1C,auditory,2018_Jan_30_1606
pa.wav,4,2,31,368,S,0,79,79,79,,,,,,,,,,,,,,,,None,,,,,,,,,,bi,2,f008,119.9512435,1C,auditory,2018_Jan_30_1606
da.wav,4,3,31,369,S,0,80,80,80,,,,,,,,,,,,,,,,None,,,,,,,,,,bi,2,f008,119.9512435,1C,auditory,2018_Jan_30_1606
ta.wav,3,1,31,370,S,0,81,81,81,,,,,,,,,,,,,,,,None,,,,,,,,,,bi,2,f008,119.9512435,1C,auditory,2018_Jan_30_1606
ti.wav,3,2,31,371,S,0,82,82,82,,,,,,,,,,,,,,,,None,,,,,,,,,,bi,2,f008,119.9512435,1C,auditory,2018_Jan_30_1606
du.wav,3,3,31,372,S,0,83,83,83,,,,,,,,,,,,,,,,None,,,,,,,,,,bi,2,f008,119.9512435,1C,auditory,2018_Jan_30_1606
di.wav,2,1,31,373,S,0,84,84,84,,,,,,,,,,,,,,,,None,,,,,,,,,,bi,2,f008,119.9512435,1C,auditory,2018_Jan_30_1606
ba.wav,2,2,31,374,S,0,85,85,85,,,,,,,,,,,,,,,,None,,,,,,,,,,bi,2,f008,119.9512435,1C,auditory,2018_Jan_30_1606
pu.wav,2,3,31,375,S,0,86,86,86,,,,,,,,,,,,,,,,None,,,,,,,,,,bi,2,f008,119.9512435,1C,auditory,2018_Jan_30_1606
bu.wav,4,1,32,376,S,0,87,87,87,,,,,,,,,,,,,,,,None,,,,,,,,,,bi,2,f008,119.9512435,1C,auditory,2018_Jan_30_1606
pa.wav,4,2,32,377,S,0,88,88,88,,,,,,,,,,,,,,,,None,,,,,,,,,,bi,2,f008,119.9512435,1C,auditory,2018_Jan_30_1606
da.wav,4,3,32,378,S,0,89,89,89,,,,,,,,,,,,,,,,None,,,,,,,,,,bi,2,f008,119.9512435,1C,auditory,2018_Jan_30_1606
ta.wav,3,1,32,382,S,0,90,90,90,,,,,,,,,,,,,,,,None,,,,,,,,,,bi,2,f008,119.9512435,1C,auditory,2018_Jan_30_1606
ti.wav,3,2,32,383,S,0,91,91,91,,,,,,,,,,,,,,,,None,,,,,,,,,,bi,2,f008,119.9512435,1C,auditory,2018_Jan_30_1606
du.wav,3,3,32,384,S,0,92,92,92,,,,,,,,,,,,,,,,None,,,,,,,,,,bi,2,f008,119.9512435,1C,auditory,2018_Jan_30_1606
di.wav,2,1,32,388,S,0,93,93,93,,,,,,,,,,,,,,,,None,,,,,,,,,,bi,2,f008,119.9512435,1C,auditory,2018_Jan_30_1606
ba.wav,2,2,32,389,S,0,94,94,94,,,,,,,,,,,,,,,,None,,,,,,,,,,bi,2,f008,119.9512435,1C,auditory,2018_Jan_30_1606
pu.wav,2,3,32,390,S,0,95,95,95,,,,,,,,,,,,,,,,None,,,,,,,,,,bi,2,f008,119.9512435,1C,auditory,2018_Jan_30_1606
silence.wav,0,0,0,0,B,0,96,96,96,,,,,,,,,,,,,,,,None,,,,,,,,,,bi,2,f008,119.9512435,1C,auditory,2018_Jan_30_1606
silence.wav,0,0,0,0,B,0,97,97,97,,,,,,,,,,,,,,,,None,,,,,,,,,,bi,2,f008,119.9512435,1C,auditory,2018_Jan_30_1606
silence.wav,0,0,0,0,B,0,98,98,98,,,,,,,,,,,,,,,,None,,,,,,,,,,bi,2,f008,119.9512435,1C,auditory,2018_Jan_30_1606
silence.wav,0,0,0,0,B,0,99,99,99,,,,,,,,,,,,,,,,None,,,,,,,,,,bi,2,f008,119.9512435,1C,auditory,2018_Jan_30_1606
silence.wav,0,0,0,0,B,0,100,100,100,,,,,,,,,,,,,,,,None,,,,,,,,,,bi,2,f008,119.9512435,1C,auditory,2018_Jan_30_1606
silence.wav,0,0,0,0,B,0,101,101,101,,,,,,,,,,,,,,,,None,,,,,,,,,,bi,2,f008,119.9512435,1C,auditory,2018_Jan_30_1606
silence.wav,0,0,0,0,B,0,102,102,102,,,,,,,,,,,,,,,,None,,,,,,,,,,bi,2,f008,119.9512435,1C,auditory,2018_Jan_30_1606
silence.wav,0,0,0,0,B,0,103,103,103,,,,,,,,,,,,,,,,None,,,,,,,,,,bi,2,f008,119.9512435,1C,auditory,2018_Jan_30_1606
silence.wav,0,0,0,0,B,0,104,104,104,,,,,,,,,,,,,,,,None,,,,,,,,,,bi,2,f008,119.9512435,1C,auditory,2018_Jan_30_1606
silence.wav,0,0,0,0,B,0,105,105,105,,,,,,,,,,,,,,,,None,,,,,,,,,,bi,2,f008,119.9512435,1C,auditory,2018_Jan_30_1606
silence.wav,0,0,0,0,B,0,106,106,106,,,,,,,,,,,,,,,,None,,,,,,,,,,bi,2,f008,119.9512435,1C,auditory,2018_Jan_30_1606
silence.wav,0,0,0,0,B,0,107,107,107,,,,,,,,,,,,,,,,None,,,,,,,,,,bi,2,f008,119.9512435,1C,auditory,2018_Jan_30_1606
silence.wav,0,0,0,0,B,0,108,108,108,,,,,,,,,,,,,,,,None,,,,,,,,,,bi,2,f008,119.9512435,1C,auditory,2018_Jan_30_1606
silence.wav,0,0,0,0,B,0,109,109,109,,,,,,,,,,,,,,,,None,,,,,,,,,,bi,2,f008,119.9512435,1C,auditory,2018_Jan_30_1606
silence.wav,0,0,0,0,B,0,110,110,110,,,,,,,,,,,,,,,,None,,,,,,,,,,bi,2,f008,119.9512435,1C,auditory,2018_Jan_30_1606
silence.wav,0,0,0,0,B,0,111,111,111,,,,,,,,,,,,,,,,None,,,,,,,,,,bi,2,f008,119.9512435,1C,auditory,2018_Jan_30_1606
silence.wav,0,0,0,0,B,0,112,112,112,,,,,,,,,,,,,,,,None,,,,,,,,,,bi,2,f008,119.9512435,1C,auditory,2018_Jan_30_1606
silence.wav,0,0,0,0,B,0,113,113,113,,,,,,,,,,,,,,,,None,,,,,,,,,,bi,2,f008,119.9512435,1C,auditory,2018_Jan_30_1606
silence.wav,0,0,0,0,B,0,114,114,114,,,,,,,,,,,,,,,,None,,,,,,,,,,bi,2,f008,119.9512435,1C,auditory,2018_Jan_30_1606
silence.wav,0,0,0,0,B,0,115,115,115,,,,,,,,,,,,,,,,None,,,,,,,,,,bi,2,f008,119.9512435,1C,auditory,2018_Jan_30_1606
silence.wav,0,0,0,0,B,0,116,116,116,,,,,,,,,,,,,,,,None,,,,,,,,,,bi,2,f008,119.9512435,1C,auditory,2018_Jan_30_1606
silence.wav,0,0,0,0,B,0,117,117,117,,,,,,,,,,,,,,,,None,,,,,,,,,,bi,2,f008,119.9512435,1C,auditory,2018_Jan_30_1606
silence.wav,0,0,0,0,B,0,118,118,118,,,,,,,,,,,,,,,,None,,,,,,,,,,bi,2,f008,119.9512435,1C,auditory,2018_Jan_30_1606
silence.wav,0,0,0,0,B,0,119,119,119,,,,,,,,,,,,,,,,None,,,,,,,,,,bi,2,f008,119.9512435,1C,auditory,2018_Jan_30_1606
silence.wav,0,0,0,0,B,0,120,120,120,,,,,,,,,,,,,,,,None,,,,,,,,,,bi,2,f008,119.9512435,1C,auditory,2018_Jan_30_1606
silence.wav,0,0,0,0,B,0,121,121,121,,,,,,,,,,,,,,,,None,,,,,,,,,,bi,2,f008,119.9512435,1C,auditory,2018_Jan_30_1606
silence.wav,0,0,0,0,B,0,122,122,122,,,,,,,,,,,,,,,,None,,,,,,,,,,bi,2,f008,119.9512435,1C,auditory,2018_Jan_30_1606
silence.wav,0,0,0,0,B,0,123,123,123,,,,,,,,,,,,,,,,None,,,,,,,,,,bi,2,f008,119.9512435,1C,auditory,2018_Jan_30_1606
silence.wav,0,0,0,0,B,0,124,124,124,,,,,,,,,,,,,,,,None,,,,,,,,,,bi,2,f008,119.9512435,1C,auditory,2018_Jan_30_1606
,,,,,,,,,,,,,,,,,,,,,,,,,,,,,3,2.242362742,,,,,bi,2,f008,119.9512435,1C,auditory,2018_Jan_30_1606
corrAns,soundFile3,soundFile2,soundFile1,soundFile6,soundFile5,soundFile4,test_trials.thisRepN,test_trials.thisTrialN,test_trials.thisN,test_trials.thisIndex,question_key_resp.keys,question_key_resp.corr,question_key_resp.rt,starget,Run,PartID,frameRate,ttarget,expName,date,,,,,,,,,,,3,5.193068832,,,bi,2,f008,119.9512435,1C,auditory,2018_Jan_30_1606
3,bi.wav,tu.wav,pi.wav,da.wav,ba.wav,ta.wav,0,0,0,12,3,1,1.592243432,bi,2,f008,118.1949819,1C,auditory,2018_Jan_30_1617,,,,,,,,,,,,,5,23.22128684,bi,2,f008,119.9512435,1C,auditory,2018_Jan_30_1606
4,da.wav,ba.wav,ta.wav,du.wav,ti.wav,ta.wav,0,1,1,10,3,0,1.200288597,bi,2,f008,118.1949819,1C,auditory,2018_Jan_30_1617,,,,,,,,,,,,,,,,,,,,,
3,du.wav,ti.wav,ta.wav,bi.wav,pa.wav,di.wav,0,2,2,13,3,1,1.375546666,bi,2,f008,118.1949819,1C,auditory,2018_Jan_30_1617,,,,,,,,,,,,,,,,,,,,,
3,da.wav,pa.wav,bu.wav,pu.wav,ti.wav,pi.wav,0,3,3,7,3,1,2.233982729,bi,2,f008,118.1949819,1C,auditory,2018_Jan_30_1617,,,,,,,,,,,,,,,,,,,,,
3,pu.wav,ba.wav,di.wav,da.wav,ba.wav,ta.wav,0,4,4,3,4,0,0.29180883,bi,2,f008,118.1949819,1C,auditory,2018_Jan_30_1617,,,,,,,,,,,,,,,,,,,,,
4,pu.wav,ti.wav,pi.wav,bi.wav,tu.wav,pi.wav,0,5,5,5,4,1,0.333529695,bi,2,f008,118.1949819,1C,auditory,2018_Jan_30_1617,,,,,,,,,,,,,,,,,,,,,
3,pu.wav,ba.wav,di.wav,bi.wav,pa.wav,di.wav,0,6,6,0,3,1,0.85854472,bi,2,f008,118.1949819,1C,auditory,2018_Jan_30_1617,,,,,,,,,,,,,,,,,,,,,
3,da.wav,pa.wav,bu.wav,du.wav,tu.wav,bu.wav,0,7,7,15,3,1,1.08388973,bi,2,f008,118.1949819,1C,auditory,2018_Jan_30_1617,,,,,,,,,,,,,,,,,,,,,
3,pu.wav,ba.wav,di.wav,pu.wav,ti.wav,pi.wav,0,8,8,4,3,1,0.700365824,bi,2,f008,118.1949819,1C,auditory,2018_Jan_30_1617,,,,,,,,,,,,,,,,,,,,,
3,da.wav,pa.wav,bu.wav,da.wav,ba.wav,ta.wav,0,9,9,2,4,0,0.417001861,bi,2,f008,118.1949819,1C,auditory,2018_Jan_30_1617,,,,,,,,,,,,,,,,,,,,,
3,du.wav,ti.wav,ta.wav,pu.wav,ti.wav,pi.wav,0,10,10,9,3,1,1.892228044,bi,2,f008,118.1949819,1C,auditory,2018_Jan_30_1617,,,,,,,,,,,,,,,,,,,,,
3,bi.wav,tu.wav,pi.wav,du.wav,tu.wav,bu.wav,0,11,11,8,3,1,0.358610285,bi,2,f008,118.1949819,1C,auditory,2018_Jan_30_1617,,,,,,,,,,,,,,,,,,,,,
4,bi.wav,pa.wav,di.wav,bi.wav,tu.wav,pi.wav,0,12,12,6,4,1,0.175330603,bi,2,f008,118.1949819,1C,auditory,2018_Jan_30_1617,,,,,,,,,,,,,,,,,,,,,
4,du.wav,tu.wav,bu.wav,du.wav,ti.wav,ta.wav,0,13,13,11,3,0,2.283984052,bi,2,f008,118.1949819,1C,auditory,2018_Jan_30_1617,,,,,,,,,,,,,,,,,,,,,
4,bi.wav,pa.wav,di.wav,da.wav,pa.wav,bu.wav,0,14,14,14,4,1,0.400285355,bi,2,f008,118.1949819,1C,auditory,2018_Jan_30_1617,,,,,,,,,,,,,,,,,,,,,
3,pu.wav,ba.wav,di.wav,du.wav,tu.wav,bu.wav,0,15,15,1,3,1,2.650713799,bi,2,f008,118.1949819,1C,auditory,2018_Jan_30_1617,,,,,,,,,,,,,,,,,,,,,
