word,location,image,repetition,trialnum,condition,corrAns,image3,image2,image1,image6,image5,image4,v_block_trials.thisRepN,v_block_trials.thisTrialN,v_block_trials.thisN,v_block_trials.thisIndex,l_block_trial_loop.thisRepN,l_block_trial_loop.thisTrialN,l_block_trial_loop.thisN,l_block_trial_loop.thisIndex,blank_block_trial_loop.thisRepN,blank_block_trial_loop.thisTrialN,blank_block_trial_loop.thisN,blank_block_trial_loop.thisIndex,forced_test_1_block.thisRepN,forced_test_1_block.thisTrialN,forced_test_1_block.thisN,forced_test_1_block.thisIndex,v_block_trial_key_resp.keys,v_block_trial_key_resp.rt,l_block_trial_key_resp.keys,l_block_trial_key_resp.rt,blank_block_trial_key_resp.keys,end_fam_block_key_resp.keys,end_fam_block_key_resp.rt,question_key_resp.keys,question_key_resp.corr,question_key_resp.rt,Run,vtarget,PartID,ltarget,frameRate,expName,date,
1,1,Alien4.bmp,33,379,S,,,,,,,,0,0,0,0,,,,,,,,,,,,,None,,,,,,,,,,6,12,f004,G,None,visual,2018_Jan_18_1504,
1,2,Alien5.bmp,33,380,S,,,,,,,,0,1,1,1,,,,,,,,,,,,,None,,,,,,,,,,6,12,f004,G,None,visual,2018_Jan_18_1504,
1,3,Alien6.bmp,33,381,S,,,,,,,,0,2,2,2,,,,,,,,,,,,,None,,,,,,,,,,6,12,f004,G,None,visual,2018_Jan_18_1504,
1,1,Alien4.bmp,34,385,S,,,,,,,,0,3,3,3,,,,,,,,,,,,,None,,,,,,,,,,6,12,f004,G,None,visual,2018_Jan_18_1504,
1,2,Alien5.bmp,34,386,S,,,,,,,,0,4,4,4,,,,,,,,,,,,,None,,,,,,,,,,6,12,f004,G,None,visual,2018_Jan_18_1504,
1,3,Alien6.bmp,34,387,S,,,,,,,,0,5,5,5,,,,,,,,,,,,,None,,,,,,,,,,6,12,f004,G,None,visual,2018_Jan_18_1504,
4,1,Alien7.bmp,33,391,S,,,,,,,,0,6,6,6,,,,,,,,,,,,,None,,,,,,,,,,6,12,f004,G,None,visual,2018_Jan_18_1504,
4,2,Alien8.bmp,33,392,S,,,,,,,,0,7,7,7,,,,,,,,,,,,,None,,,,,,,,,,6,12,f004,G,None,visual,2018_Jan_18_1504,
4,3,Alien9.bmp,33,393,S,,,,,,,,0,8,8,8,,,,,,,,,,,,,None,,,,,,,,,,6,12,f004,G,None,visual,2018_Jan_18_1504,
3,1,Alien10.bmp,33,394,S,,,,,,,,0,9,9,9,,,,,,,,,,,,,None,,,,,,,,,,6,12,f004,G,None,visual,2018_Jan_18_1504,
3,2,Alien11.bmp,33,395,S,,,,,,,,0,10,10,10,,,,,,,,,,,,,None,,,,,,,,,,6,12,f004,G,None,visual,2018_Jan_18_1504,
3,3,Alien12.bmp,33,396,S,,,,,,,,0,11,11,11,,,,,,,,,,,,,3,0.508722626138,,,,,,,,,6,12,f004,G,None,visual,2018_Jan_18_1504,
2,1,Alien1.bmp,33,397,S,,,,,,,,0,12,12,12,,,,,,,,,,,,,None,,,,,,,,,,6,12,f004,G,None,visual,2018_Jan_18_1504,
2,2,Alien2.bmp,33,398,S,,,,,,,,0,13,13,13,,,,,,,,,,,,,None,,,,,,,,,,6,12,f004,G,None,visual,2018_Jan_18_1504,
2,3,Alien3.bmp,33,399,S,,,,,,,,0,14,14,14,,,,,,,,,,,,,None,,,,,,,,,,6,12,f004,G,None,visual,2018_Jan_18_1504,
1,1,Alien4.bmp,35,400,S,,,,,,,,0,15,15,15,,,,,,,,,,,,,None,,,,,,,,,,6,12,f004,G,None,visual,2018_Jan_18_1504,
1,2,Alien5.bmp,35,401,S,,,,,,,,0,16,16,16,,,,,,,,,,,,,None,,,,,,,,,,6,12,f004,G,None,visual,2018_Jan_18_1504,
1,3,Alien6.bmp,35,402,S,,,,,,,,0,17,17,17,,,,,,,,,,,,,None,,,,,,,,,,6,12,f004,G,None,visual,2018_Jan_18_1504,
3,1,Alien10.bmp,34,403,S,,,,,,,,0,18,18,18,,,,,,,,,,,,,None,,,,,,,,,,6,12,f004,G,None,visual,2018_Jan_18_1504,
3,2,Alien11.bmp,34,404,S,,,,,,,,0,19,19,19,,,,,,,,,,,,,None,,,,,,,,,,6,12,f004,G,None,visual,2018_Jan_18_1504,
3,3,Alien12.bmp,34,405,S,,,,,,,,0,20,20,20,,,,,,,,,,,,,3,0.608719582669,,,,,,,,,6,12,f004,G,None,visual,2018_Jan_18_1504,
4,1,Alien7.bmp,34,406,S,,,,,,,,0,21,21,21,,,,,,,,,,,,,None,,,,,,,,,,6,12,f004,G,None,visual,2018_Jan_18_1504,
4,2,Alien8.bmp,34,407,S,,,,,,,,0,22,22,22,,,,,,,,,,,,,None,,,,,,,,,,6,12,f004,G,None,visual,2018_Jan_18_1504,
4,3,Alien9.bmp,34,408,S,,,,,,,,0,23,23,23,,,,,,,,,,,,,None,,,,,,,,,,6,12,f004,G,None,visual,2018_Jan_18_1504,
2,1,Alien1.bmp,34,409,S,,,,,,,,0,24,24,24,,,,,,,,,,,,,None,,,,,,,,,,6,12,f004,G,None,visual,2018_Jan_18_1504,
2,2,Alien2.bmp,34,410,S,,,,,,,,0,25,25,25,,,,,,,,,,,,,None,,,,,,,,,,6,12,f004,G,None,visual,2018_Jan_18_1504,
2,3,Alien3.bmp,34,411,S,,,,,,,,0,26,26,26,,,,,,,,,,,,,None,,,,,,,,,,6,12,f004,G,None,visual,2018_Jan_18_1504,
1,1,Alien4.bmp,36,412,S,,,,,,,,0,27,27,27,,,,,,,,,,,,,None,,,,,,,,,,6,12,f004,G,None,visual,2018_Jan_18_1504,
1,2,Alien5.bmp,36,413,S,,,,,,,,0,28,28,28,,,,,,,,,,,,,None,,,,,,,,,,6,12,f004,G,None,visual,2018_Jan_18_1504,
1,3,Alien6.bmp,36,414,S,,,,,,,,0,29,29,29,,,,,,,,,,,,,None,,,,,,,,,,6,12,f004,G,None,visual,2018_Jan_18_1504,
2,1,Alien1.bmp,35,415,S,,,,,,,,0,30,30,30,,,,,,,,,,,,,None,,,,,,,,,,6,12,f004,G,None,visual,2018_Jan_18_1504,
2,2,Alien2.bmp,35,416,S,,,,,,,,0,31,31,31,,,,,,,,,,,,,None,,,,,,,,,,6,12,f004,G,None,visual,2018_Jan_18_1504,
2,3,Alien3.bmp,35,417,S,,,,,,,,0,32,32,32,,,,,,,,,,,,,None,,,,,,,,,,6,12,f004,G,None,visual,2018_Jan_18_1504,
4,1,Alien7.bmp,35,418,S,,,,,,,,0,33,33,33,,,,,,,,,,,,,None,,,,,,,,,,6,12,f004,G,None,visual,2018_Jan_18_1504,
4,2,Alien8.bmp,35,419,S,,,,,,,,0,34,34,34,,,,,,,,,,,,,None,,,,,,,,,,6,12,f004,G,None,visual,2018_Jan_18_1504,
4,3,Alien9.bmp,35,420,S,,,,,,,,0,35,35,35,,,,,,,,,,,,,None,,,,,,,,,,6,12,f004,G,None,visual,2018_Jan_18_1504,
3,1,Alien10.bmp,35,421,S,,,,,,,,0,36,36,36,,,,,,,,,,,,,None,,,,,,,,,,6,12,f004,G,None,visual,2018_Jan_18_1504,
3,2,Alien11.bmp,35,422,S,,,,,,,,0,37,37,37,,,,,,,,,,,,,None,,,,,,,,,,6,12,f004,G,None,visual,2018_Jan_18_1504,
3,3,Alien12.bmp,35,423,S,,,,,,,,0,38,38,38,,,,,,,,,,,,,3,0.50860941736,,,,,,,,,6,12,f004,G,None,visual,2018_Jan_18_1504,
4,1,Alien7.bmp,36,424,S,,,,,,,,0,39,39,39,,,,,,,,,,,,,None,,,,,,,,,,6,12,f004,G,None,visual,2018_Jan_18_1504,
4,2,Alien8.bmp,36,425,S,,,,,,,,0,40,40,40,,,,,,,,,,,,,None,,,,,,,,,,6,12,f004,G,None,visual,2018_Jan_18_1504,
4,3,Alien9.bmp,36,426,S,,,,,,,,0,41,41,41,,,,,,,,,,,,,None,,,,,,,,,,6,12,f004,G,None,visual,2018_Jan_18_1504,
3,1,Alien10.bmp,36,427,S,,,,,,,,0,42,42,42,,,,,,,,,,,,,None,,,,,,,,,,6,12,f004,G,None,visual,2018_Jan_18_1504,
3,2,Alien11.bmp,36,428,S,,,,,,,,0,43,43,43,,,,,,,,,,,,,None,,,,,,,,,,6,12,f004,G,None,visual,2018_Jan_18_1504,
3,3,Alien12.bmp,36,429,S,,,,,,,,0,44,44,44,,,,,,,,,,,,,3,0.458646209911,,,,,,,,,6,12,f004,G,None,visual,2018_Jan_18_1504,
2,1,Alien1.bmp,36,430,S,,,,,,,,0,45,45,45,,,,,,,,,,,,,None,,,,,,,,,,6,12,f004,G,None,visual,2018_Jan_18_1504,
2,2,Alien2.bmp,36,431,S,,,,,,,,0,46,46,46,,,,,,,,,,,,,None,,,,,,,,,,6,12,f004,G,None,visual,2018_Jan_18_1504,
2,3,Alien3.bmp,36,432,S,,,,,,,,0,47,47,47,,,,,,,,,,,,,None,,,,,,,,,,6,12,f004,G,None,visual,2018_Jan_18_1504,
0,0,blank.png,0,0,B,,,,,,,,0,48,48,48,,,,,,,,,,,,,None,,,,,,,,,,6,12,f004,G,None,visual,2018_Jan_18_1504,
0,0,blank.png,0,0,B,,,,,,,,0,49,49,49,,,,,,,,,,,,,None,,,,,,,,,,6,12,f004,G,None,visual,2018_Jan_18_1504,
0,0,blank.png,0,0,B,,,,,,,,0,50,50,50,,,,,,,,,,,,,None,,,,,,,,,,6,12,f004,G,None,visual,2018_Jan_18_1504,
0,0,blank.png,0,0,B,,,,,,,,0,51,51,51,,,,,,,,,,,,,None,,,,,,,,,,6,12,f004,G,None,visual,2018_Jan_18_1504,
0,0,blank.png,0,0,B,,,,,,,,0,52,52,52,,,,,,,,,,,,,None,,,,,,,,,,6,12,f004,G,None,visual,2018_Jan_18_1504,
0,0,blank.png,0,0,B,,,,,,,,0,53,53,53,,,,,,,,,,,,,None,,,,,,,,,,6,12,f004,G,None,visual,2018_Jan_18_1504,
0,0,blank.png,0,0,B,,,,,,,,0,54,54,54,,,,,,,,,,,,,None,,,,,,,,,,6,12,f004,G,None,visual,2018_Jan_18_1504,
0,0,blank.png,0,0,B,,,,,,,,0,55,55,55,,,,,,,,,,,,,None,,,,,,,,,,6,12,f004,G,None,visual,2018_Jan_18_1504,
0,0,blank.png,0,0,B,,,,,,,,0,56,56,56,,,,,,,,,,,,,None,,,,,,,,,,6,12,f004,G,None,visual,2018_Jan_18_1504,
0,0,blank.png,0,0,B,,,,,,,,0,57,57,57,,,,,,,,,,,,,None,,,,,,,,,,6,12,f004,G,None,visual,2018_Jan_18_1504,
0,0,blank.png,0,0,B,,,,,,,,0,58,58,58,,,,,,,,,,,,,None,,,,,,,,,,6,12,f004,G,None,visual,2018_Jan_18_1504,
0,0,blank.png,0,0,B,,,,,,,,0,59,59,59,,,,,,,,,,,,,None,,,,,,,,,,6,12,f004,G,None,visual,2018_Jan_18_1504,
0,1,K.png,1,385,R,,,,,,,,,,,,0,0,0,0,,,,,,,,,,,None,,,,,,,,6,12,f004,G,None,visual,2018_Jan_18_1504,
0,2,E.png,1,386,R,,,,,,,,,,,,0,1,1,1,,,,,,,,,,,None,,,,,,,,6,12,f004,G,None,visual,2018_Jan_18_1504,
0,3,B.png,1,387,R,,,,,,,,,,,,0,2,2,2,,,,,,,,,,,None,,,,,,,,6,12,f004,G,None,visual,2018_Jan_18_1504,
0,1,B.png,1,388,R,,,,,,,,,,,,0,3,3,3,,,,,,,,,,,None,,,,,,,,6,12,f004,G,None,visual,2018_Jan_18_1504,
0,2,D.png,1,389,R,,,,,,,,,,,,0,4,4,4,,,,,,,,,,,None,,,,,,,,6,12,f004,G,None,visual,2018_Jan_18_1504,
0,3,B.png,1,390,R,,,,,,,,,,,,0,5,5,5,,,,,,,,,,,None,,,,,,,,6,12,f004,G,None,visual,2018_Jan_18_1504,
0,1,G.png,1,391,R,,,,,,,,,,,,0,6,6,6,,,,,,,,,,,3,0.400342243258,,,,,,,6,12,f004,G,None,visual,2018_Jan_18_1504,
0,2,K.png,1,392,R,,,,,,,,,,,,0,7,7,7,,,,,,,,,,,None,,,,,,,,6,12,f004,G,None,visual,2018_Jan_18_1504,
0,3,D.png,1,393,R,,,,,,,,,,,,0,8,8,8,,,,,,,,,,,None,,,,,,,,6,12,f004,G,None,visual,2018_Jan_18_1504,
0,1,L.png,1,394,R,,,,,,,,,,,,0,9,9,9,,,,,,,,,,,None,,,,,,,,6,12,f004,G,None,visual,2018_Jan_18_1504,
0,2,L.png,1,395,R,,,,,,,,,,,,0,10,10,10,,,,,,,,,,,None,,,,,,,,6,12,f004,G,None,visual,2018_Jan_18_1504,
0,3,G.png,1,396,R,,,,,,,,,,,,0,11,11,11,,,,,,,,,,,3,0.366993142292,,,,,,,6,12,f004,G,None,visual,2018_Jan_18_1504,
0,1,E.png,1,397,R,,,,,,,,,,,,0,12,12,12,,,,,,,,,,,None,,,,,,,,6,12,f004,G,None,visual,2018_Jan_18_1504,
0,2,M.png,1,398,R,,,,,,,,,,,,0,13,13,13,,,,,,,,,,,None,,,,,,,,6,12,f004,G,None,visual,2018_Jan_18_1504,
0,3,K.png,1,399,R,,,,,,,,,,,,0,14,14,14,,,,,,,,,,,None,,,,,,,,6,12,f004,G,None,visual,2018_Jan_18_1504,
0,1,C.png,1,400,R,,,,,,,,,,,,0,15,15,15,,,,,,,,,,,None,,,,,,,,6,12,f004,G,None,visual,2018_Jan_18_1504,
0,2,A.png,1,401,R,,,,,,,,,,,,0,16,16,16,,,,,,,,,,,None,,,,,,,,6,12,f004,G,None,visual,2018_Jan_18_1504,
0,3,F.png,1,402,R,,,,,,,,,,,,0,17,17,17,,,,,,,,,,,None,,,,,,,,6,12,f004,G,None,visual,2018_Jan_18_1504,
0,1,J.png,1,403,R,,,,,,,,,,,,0,18,18,18,,,,,,,,,,,None,,,,,,,,6,12,f004,G,None,visual,2018_Jan_18_1504,
0,2,M.png,1,404,R,,,,,,,,,,,,0,19,19,19,,,,,,,,,,,None,,,,,,,,6,12,f004,G,None,visual,2018_Jan_18_1504,
0,3,C.png,1,405,R,,,,,,,,,,,,0,20,20,20,,,,,,,,,,,None,,,,,,,,6,12,f004,G,None,visual,2018_Jan_18_1504,
0,1,H.png,1,406,R,,,,,,,,,,,,0,21,21,21,,,,,,,,,,,None,,,,,,,,6,12,f004,G,None,visual,2018_Jan_18_1504,
0,2,M.png,1,407,R,,,,,,,,,,,,0,22,22,22,,,,,,,,,,,None,,,,,,,,6,12,f004,G,None,visual,2018_Jan_18_1504,
0,3,H.png,1,408,R,,,,,,,,,,,,0,23,23,23,,,,,,,,,,,None,,,,,,,,6,12,f004,G,None,visual,2018_Jan_18_1504,
0,0,blank.png,0,0,B,,,,,,,,,,,,,,,,0,0,0,0,,,,,,,,,None,,,,,,6,12,f004,G,None,visual,2018_Jan_18_1504,
0,0,blank.png,0,0,B,,,,,,,,,,,,,,,,0,1,1,1,,,,,,,,,None,,,,,,6,12,f004,G,None,visual,2018_Jan_18_1504,
0,0,blank.png,0,0,B,,,,,,,,,,,,,,,,0,2,2,2,,,,,,,,,None,,,,,,6,12,f004,G,None,visual,2018_Jan_18_1504,
0,0,blank.png,0,0,B,,,,,,,,,,,,,,,,0,3,3,3,,,,,,,,,None,,,,,,6,12,f004,G,None,visual,2018_Jan_18_1504,
0,0,blank.png,0,0,B,,,,,,,,,,,,,,,,0,4,4,4,,,,,,,,,None,,,,,,6,12,f004,G,None,visual,2018_Jan_18_1504,
0,0,blank.png,0,0,B,,,,,,,,,,,,,,,,0,5,5,5,,,,,,,,,None,,,,,,6,12,f004,G,None,visual,2018_Jan_18_1504,
0,0,blank.png,0,0,B,,,,,,,,,,,,,,,,0,6,6,6,,,,,,,,,None,,,,,,6,12,f004,G,None,visual,2018_Jan_18_1504,
0,0,blank.png,0,0,B,,,,,,,,,,,,,,,,0,7,7,7,,,,,,,,,None,,,,,,6,12,f004,G,None,visual,2018_Jan_18_1504,
0,0,blank.png,0,0,B,,,,,,,,,,,,,,,,0,8,8,8,,,,,,,,,None,,,,,,6,12,f004,G,None,visual,2018_Jan_18_1504,
0,0,blank.png,0,0,B,,,,,,,,,,,,,,,,0,9,9,9,,,,,,,,,None,,,,,,6,12,f004,G,None,visual,2018_Jan_18_1504,
0,0,blank.png,0,0,B,,,,,,,,,,,,,,,,0,10,10,10,,,,,,,,,None,,,,,,6,12,f004,G,None,visual,2018_Jan_18_1504,
0,0,blank.png,0,0,B,,,,,,,,,,,,,,,,0,11,11,11,,,,,,,,,None,,,,,,6,12,f004,G,None,visual,2018_Jan_18_1504,
0,1,A.png,1,433,R,,,,,,,,,,,,0,0,0,0,,,,,,,,,,,None,,,,,,,,6,12,f004,G,None,visual,2018_Jan_18_1504,
0,2,E.png,1,434,R,,,,,,,,,,,,0,1,1,1,,,,,,,,,,,None,,,,,,,,6,12,f004,G,None,visual,2018_Jan_18_1504,
0,3,E.png,1,435,R,,,,,,,,,,,,0,2,2,2,,,,,,,,,,,None,,,,,,,,6,12,f004,G,None,visual,2018_Jan_18_1504,
0,1,B.png,1,436,R,,,,,,,,,,,,0,3,3,3,,,,,,,,,,,None,,,,,,,,6,12,f004,G,None,visual,2018_Jan_18_1504,
0,2,C.png,1,437,R,,,,,,,,,,,,0,4,4,4,,,,,,,,,,,None,,,,,,,,6,12,f004,G,None,visual,2018_Jan_18_1504,
0,3,J.png,1,438,R,,,,,,,,,,,,0,5,5,5,,,,,,,,,,,None,,,,,,,,6,12,f004,G,None,visual,2018_Jan_18_1504,
0,1,M.png,1,439,R,,,,,,,,,,,,0,6,6,6,,,,,,,,,,,None,,,,,,,,6,12,f004,G,None,visual,2018_Jan_18_1504,
0,2,G.png,1,440,R,,,,,,,,,,,,0,7,7,7,,,,,,,,,,,3,0.3671507244,,,,,,,6,12,f004,G,None,visual,2018_Jan_18_1504,
0,3,A.png,1,441,R,,,,,,,,,,,,0,8,8,8,,,,,,,,,,,None,,,,,,,,6,12,f004,G,None,visual,2018_Jan_18_1504,
0,1,M.png,1,442,R,,,,,,,,,,,,0,9,9,9,,,,,,,,,,,None,,,,,,,,6,12,f004,G,None,visual,2018_Jan_18_1504,
0,2,M.png,1,443,R,,,,,,,,,,,,0,10,10,10,,,,,,,,,,,None,,,,,,,,6,12,f004,G,None,visual,2018_Jan_18_1504,
0,3,H.png,1,444,R,,,,,,,,,,,,0,11,11,11,,,,,,,,,,,None,,,,,,,,6,12,f004,G,None,visual,2018_Jan_18_1504,
0,1,K.png,1,445,R,,,,,,,,,,,,0,12,12,12,,,,,,,,,,,None,,,,,,,,6,12,f004,G,None,visual,2018_Jan_18_1504,
0,2,B.png,1,446,R,,,,,,,,,,,,0,13,13,13,,,,,,,,,,,None,,,,,,,,6,12,f004,G,None,visual,2018_Jan_18_1504,
0,3,J.png,1,447,R,,,,,,,,,,,,0,14,14,14,,,,,,,,,,,None,,,,,,,,6,12,f004,G,None,visual,2018_Jan_18_1504,
0,1,F.png,1,448,R,,,,,,,,,,,,0,15,15,15,,,,,,,,,,,None,,,,,,,,6,12,f004,G,None,visual,2018_Jan_18_1504,
0,2,F.png,1,449,R,,,,,,,,,,,,0,16,16,16,,,,,,,,,,,None,,,,,,,,6,12,f004,G,None,visual,2018_Jan_18_1504,
0,3,H.png,1,450,R,,,,,,,,,,,,0,17,17,17,,,,,,,,,,,None,,,,,,,,6,12,f004,G,None,visual,2018_Jan_18_1504,
0,1,L.png,1,451,R,,,,,,,,,,,,0,18,18,18,,,,,,,,,,,None,,,,,,,,6,12,f004,G,None,visual,2018_Jan_18_1504,
0,2,K.png,1,452,R,,,,,,,,,,,,0,19,19,19,,,,,,,,,,,None,,,,,,,,6,12,f004,G,None,visual,2018_Jan_18_1504,
0,3,L.png,1,453,R,,,,,,,,,,,,0,20,20,20,,,,,,,,,,,None,,,,,,,,6,12,f004,G,None,visual,2018_Jan_18_1504,
0,1,D.png,1,454,R,,,,,,,,,,,,0,21,21,21,,,,,,,,,,,None,,,,,,,,6,12,f004,G,None,visual,2018_Jan_18_1504,
0,2,K.png,1,455,R,,,,,,,,,,,,0,22,22,22,,,,,,,,,,,None,,,,,,,,6,12,f004,G,None,visual,2018_Jan_18_1504,
0,3,B.png,1,456,R,,,,,,,,,,,,0,23,23,23,,,,,,,,,,,None,,,,,,,,6,12,f004,G,None,visual,2018_Jan_18_1504,
0,1,C.png,1,409,R,,,,,,,,,,,,0,24,24,24,,,,,,,,,,,None,,,,,,,,6,12,f004,G,None,visual,2018_Jan_18_1504,
0,2,L.png,1,410,R,,,,,,,,,,,,0,25,25,25,,,,,,,,,,,None,,,,,,,,6,12,f004,G,None,visual,2018_Jan_18_1504,
0,3,A.png,1,411,R,,,,,,,,,,,,0,26,26,26,,,,,,,,,,,None,,,,,,,,6,12,f004,G,None,visual,2018_Jan_18_1504,
0,1,G.png,1,412,R,,,,,,,,,,,,0,27,27,27,,,,,,,,,,,3,0.467036178801,,,,,,,6,12,f004,G,None,visual,2018_Jan_18_1504,
0,2,H.png,1,413,R,,,,,,,,,,,,0,28,28,28,,,,,,,,,,,None,,,,,,,,6,12,f004,G,None,visual,2018_Jan_18_1504,
0,3,A.png,1,414,R,,,,,,,,,,,,0,29,29,29,,,,,,,,,,,None,,,,,,,,6,12,f004,G,None,visual,2018_Jan_18_1504,
0,1,F.png,1,415,R,,,,,,,,,,,,0,30,30,30,,,,,,,,,,,None,,,,,,,,6,12,f004,G,None,visual,2018_Jan_18_1504,
0,2,K.png,1,416,R,,,,,,,,,,,,0,31,31,31,,,,,,,,,,,None,,,,,,,,6,12,f004,G,None,visual,2018_Jan_18_1504,
0,3,E.png,1,417,R,,,,,,,,,,,,0,32,32,32,,,,,,,,,,,None,,,,,,,,6,12,f004,G,None,visual,2018_Jan_18_1504,
0,1,J.png,1,418,R,,,,,,,,,,,,0,33,33,33,,,,,,,,,,,None,,,,,,,,6,12,f004,G,None,visual,2018_Jan_18_1504,
0,2,C.png,1,419,R,,,,,,,,,,,,0,34,34,34,,,,,,,,,,,None,,,,,,,,6,12,f004,G,None,visual,2018_Jan_18_1504,
0,3,D.png,1,420,R,,,,,,,,,,,,0,35,35,35,,,,,,,,,,,None,,,,,,,,6,12,f004,G,None,visual,2018_Jan_18_1504,
0,1,B.png,1,421,R,,,,,,,,,,,,0,36,36,36,,,,,,,,,,,None,,,,,,,,6,12,f004,G,None,visual,2018_Jan_18_1504,
0,2,H.png,1,422,R,,,,,,,,,,,,0,37,37,37,,,,,,,,,,,None,,,,,,,,6,12,f004,G,None,visual,2018_Jan_18_1504,
0,3,L.png,1,423,R,,,,,,,,,,,,0,38,38,38,,,,,,,,,,,None,,,,,,,,6,12,f004,G,None,visual,2018_Jan_18_1504,
0,1,G.png,1,424,R,,,,,,,,,,,,0,39,39,39,,,,,,,,,,,3,0.417032580357,,,,,,,6,12,f004,G,None,visual,2018_Jan_18_1504,
0,2,F.png,1,425,R,,,,,,,,,,,,0,40,40,40,,,,,,,,,,,None,,,,,,,,6,12,f004,G,None,visual,2018_Jan_18_1504,
0,3,J.png,1,426,R,,,,,,,,,,,,0,41,41,41,,,,,,,,,,,None,,,,,,,,6,12,f004,G,None,visual,2018_Jan_18_1504,
0,1,A.png,1,427,R,,,,,,,,,,,,0,42,42,42,,,,,,,,,,,None,,,,,,,,6,12,f004,G,None,visual,2018_Jan_18_1504,
0,2,F.png,1,428,R,,,,,,,,,,,,0,43,43,43,,,,,,,,,,,None,,,,,,,,6,12,f004,G,None,visual,2018_Jan_18_1504,
0,3,M.png,1,429,R,,,,,,,,,,,,0,44,44,44,,,,,,,,,,,None,,,,,,,,6,12,f004,G,None,visual,2018_Jan_18_1504,
0,1,D.png,1,430,R,,,,,,,,,,,,0,45,45,45,,,,,,,,,,,None,,,,,,,,6,12,f004,G,None,visual,2018_Jan_18_1504,
0,2,E.png,1,431,R,,,,,,,,,,,,0,46,46,46,,,,,,,,,,,None,,,,,,,,6,12,f004,G,None,visual,2018_Jan_18_1504,
0,3,J.png,1,432,R,,,,,,,,,,,,0,47,47,47,,,,,,,,,,,None,,,,,,,,6,12,f004,G,None,visual,2018_Jan_18_1504,
0,0,blank.png,0,0,B,,,,,,,,,,,,,,,,0,0,0,0,,,,,,,,,None,,,,,,6,12,f004,G,None,visual,2018_Jan_18_1504,
0,0,blank.png,0,0,B,,,,,,,,,,,,,,,,0,1,1,1,,,,,,,,,None,,,,,,6,12,f004,G,None,visual,2018_Jan_18_1504,
0,0,blank.png,0,0,B,,,,,,,,,,,,,,,,0,2,2,2,,,,,,,,,None,,,,,,6,12,f004,G,None,visual,2018_Jan_18_1504,
0,0,blank.png,0,0,B,,,,,,,,,,,,,,,,0,3,3,3,,,,,,,,,None,,,,,,6,12,f004,G,None,visual,2018_Jan_18_1504,
0,0,blank.png,0,0,B,,,,,,,,,,,,,,,,0,4,4,4,,,,,,,,,None,,,,,,6,12,f004,G,None,visual,2018_Jan_18_1504,
0,0,blank.png,0,0,B,,,,,,,,,,,,,,,,0,5,5,5,,,,,,,,,None,,,,,,6,12,f004,G,None,visual,2018_Jan_18_1504,
0,0,blank.png,0,0,B,,,,,,,,,,,,,,,,0,6,6,6,,,,,,,,,None,,,,,,6,12,f004,G,None,visual,2018_Jan_18_1504,
0,0,blank.png,0,0,B,,,,,,,,,,,,,,,,0,7,7,7,,,,,,,,,None,,,,,,6,12,f004,G,None,visual,2018_Jan_18_1504,
0,0,blank.png,0,0,B,,,,,,,,,,,,,,,,0,8,8,8,,,,,,,,,None,,,,,,6,12,f004,G,None,visual,2018_Jan_18_1504,
0,0,blank.png,0,0,B,,,,,,,,,,,,,,,,0,9,9,9,,,,,,,,,None,,,,,,6,12,f004,G,None,visual,2018_Jan_18_1504,
0,0,blank.png,0,0,B,,,,,,,,,,,,,,,,0,10,10,10,,,,,,,,,None,,,,,,6,12,f004,G,None,visual,2018_Jan_18_1504,
0,0,blank.png,0,0,B,,,,,,,,,,,,,,,,0,11,11,11,,,,,,,,,None,,,,,,6,12,f004,G,None,visual,2018_Jan_18_1504,
0,1,A.png,1,433,R,,,,,,,,,,,,0,0,0,0,,,,,,,,,,,None,,,,,,,,6,12,f004,G,None,visual,2018_Jan_18_1504,
0,2,E.png,1,434,R,,,,,,,,,,,,0,1,1,1,,,,,,,,,,,None,,,,,,,,6,12,f004,G,None,visual,2018_Jan_18_1504,
0,3,E.png,1,435,R,,,,,,,,,,,,0,2,2,2,,,,,,,,,,,None,,,,,,,,6,12,f004,G,None,visual,2018_Jan_18_1504,
0,1,B.png,1,436,R,,,,,,,,,,,,0,3,3,3,,,,,,,,,,,None,,,,,,,,6,12,f004,G,None,visual,2018_Jan_18_1504,
0,2,C.png,1,437,R,,,,,,,,,,,,0,4,4,4,,,,,,,,,,,None,,,,,,,,6,12,f004,G,None,visual,2018_Jan_18_1504,
0,3,J.png,1,438,R,,,,,,,,,,,,0,5,5,5,,,,,,,,,,,None,,,,,,,,6,12,f004,G,None,visual,2018_Jan_18_1504,
0,1,M.png,1,439,R,,,,,,,,,,,,0,6,6,6,,,,,,,,,,,None,,,,,,,,6,12,f004,G,None,visual,2018_Jan_18_1504,
0,2,G.png,1,440,R,,,,,,,,,,,,0,7,7,7,,,,,,,,,,,3,0.391985554714,,,,,,,6,12,f004,G,None,visual,2018_Jan_18_1504,
0,3,A.png,1,441,R,,,,,,,,,,,,0,8,8,8,,,,,,,,,,,None,,,,,,,,6,12,f004,G,None,visual,2018_Jan_18_1504,
0,1,M.png,1,442,R,,,,,,,,,,,,0,9,9,9,,,,,,,,,,,None,,,,,,,,6,12,f004,G,None,visual,2018_Jan_18_1504,
0,2,M.png,1,443,R,,,,,,,,,,,,0,10,10,10,,,,,,,,,,,None,,,,,,,,6,12,f004,G,None,visual,2018_Jan_18_1504,
0,3,H.png,1,444,R,,,,,,,,,,,,0,11,11,11,,,,,,,,,,,None,,,,,,,,6,12,f004,G,None,visual,2018_Jan_18_1504,
0,1,K.png,1,445,R,,,,,,,,,,,,0,12,12,12,,,,,,,,,,,None,,,,,,,,6,12,f004,G,None,visual,2018_Jan_18_1504,
0,2,B.png,1,446,R,,,,,,,,,,,,0,13,13,13,,,,,,,,,,,None,,,,,,,,6,12,f004,G,None,visual,2018_Jan_18_1504,
0,3,J.png,1,447,R,,,,,,,,,,,,0,14,14,14,,,,,,,,,,,None,,,,,,,,6,12,f004,G,None,visual,2018_Jan_18_1504,
0,1,F.png,1,448,R,,,,,,,,,,,,0,15,15,15,,,,,,,,,,,None,,,,,,,,6,12,f004,G,None,visual,2018_Jan_18_1504,
0,2,F.png,1,449,R,,,,,,,,,,,,0,16,16,16,,,,,,,,,,,None,,,,,,,,6,12,f004,G,None,visual,2018_Jan_18_1504,
0,3,H.png,1,450,R,,,,,,,,,,,,0,17,17,17,,,,,,,,,,,None,,,,,,,,6,12,f004,G,None,visual,2018_Jan_18_1504,
0,1,L.png,1,451,R,,,,,,,,,,,,0,18,18,18,,,,,,,,,,,None,,,,,,,,6,12,f004,G,None,visual,2018_Jan_18_1504,
0,2,K.png,1,452,R,,,,,,,,,,,,0,19,19,19,,,,,,,,,,,None,,,,,,,,6,12,f004,G,None,visual,2018_Jan_18_1504,
0,3,L.png,1,453,R,,,,,,,,,,,,0,20,20,20,,,,,,,,,,,None,,,,,,,,6,12,f004,G,None,visual,2018_Jan_18_1504,
0,1,D.png,1,454,R,,,,,,,,,,,,0,21,21,21,,,,,,,,,,,None,,,,,,,,6,12,f004,G,None,visual,2018_Jan_18_1504,
0,2,K.png,1,455,R,,,,,,,,,,,,0,22,22,22,,,,,,,,,,,None,,,,,,,,6,12,f004,G,None,visual,2018_Jan_18_1504,
0,3,B.png,1,456,R,,,,,,,,,,,,0,23,23,23,,,,,,,,,,,None,,,,,,,,6,12,f004,G,None,visual,2018_Jan_18_1504,
0,0,blank.png,0,0,B,,,,,,,,,,,,,,,,0,0,0,0,,,,,,,,,None,,,,,,6,12,f004,G,None,visual,2018_Jan_18_1504,
0,0,blank.png,0,0,B,,,,,,,,,,,,,,,,0,1,1,1,,,,,,,,,None,,,,,,6,12,f004,G,None,visual,2018_Jan_18_1504,
0,0,blank.png,0,0,B,,,,,,,,,,,,,,,,0,2,2,2,,,,,,,,,None,,,,,,6,12,f004,G,None,visual,2018_Jan_18_1504,
0,0,blank.png,0,0,B,,,,,,,,,,,,,,,,0,3,3,3,,,,,,,,,None,,,,,,6,12,f004,G,None,visual,2018_Jan_18_1504,
0,0,blank.png,0,0,B,,,,,,,,,,,,,,,,0,4,4,4,,,,,,,,,None,,,,,,6,12,f004,G,None,visual,2018_Jan_18_1504,
0,0,blank.png,0,0,B,,,,,,,,,,,,,,,,0,5,5,5,,,,,,,,,None,,,,,,6,12,f004,G,None,visual,2018_Jan_18_1504,
0,0,blank.png,0,0,B,,,,,,,,,,,,,,,,0,6,6,6,,,,,,,,,None,,,,,,6,12,f004,G,None,visual,2018_Jan_18_1504,
0,0,blank.png,0,0,B,,,,,,,,,,,,,,,,0,7,7,7,,,,,,,,,None,,,,,,6,12,f004,G,None,visual,2018_Jan_18_1504,
0,0,blank.png,0,0,B,,,,,,,,,,,,,,,,0,8,8,8,,,,,,,,,None,,,,,,6,12,f004,G,None,visual,2018_Jan_18_1504,
0,0,blank.png,0,0,B,,,,,,,,,,,,,,,,0,9,9,9,,,,,,,,,None,,,,,,6,12,f004,G,None,visual,2018_Jan_18_1504,
0,0,blank.png,0,0,B,,,,,,,,,,,,,,,,0,10,10,10,,,,,,,,,None,,,,,,6,12,f004,G,None,visual,2018_Jan_18_1504,
0,0,blank.png,0,0,B,,,,,,,,,,,,,,,,0,11,11,11,,,,,,,,,None,,,,,,6,12,f004,G,None,visual,2018_Jan_18_1504,
1,1,Alien4.bmp,37,433,S,,,,,,,,0,0,0,0,,,,,,,,,,,,,None,,,,,,,,,,6,12,f004,G,None,visual,2018_Jan_18_1504,
1,2,Alien5.bmp,37,434,S,,,,,,,,0,1,1,1,,,,,,,,,,,,,None,,,,,,,,,,6,12,f004,G,None,visual,2018_Jan_18_1504,
1,3,Alien6.bmp,37,435,S,,,,,,,,0,2,2,2,,,,,,,,,,,,,None,,,,,,,,,,6,12,f004,G,None,visual,2018_Jan_18_1504,
3,1,Alien10.bmp,37,436,S,,,,,,,,0,3,3,3,,,,,,,,,,,,,None,,,,,,,,,,6,12,f004,G,None,visual,2018_Jan_18_1504,
3,2,Alien11.bmp,37,437,S,,,,,,,,0,4,4,4,,,,,,,,,,,,,None,,,,,,,,,,6,12,f004,G,None,visual,2018_Jan_18_1504,
3,3,Alien12.bmp,37,438,S,,,,,,,,0,5,5,5,,,,,,,,,,,,,3,0.467051823158,,,,,,,,,6,12,f004,G,None,visual,2018_Jan_18_1504,
1,1,Alien4.bmp,38,439,S,,,,,,,,0,6,6,6,,,,,,,,,,,,,None,,,,,,,,,,6,12,f004,G,None,visual,2018_Jan_18_1504,
1,2,Alien5.bmp,38,440,S,,,,,,,,0,7,7,7,,,,,,,,,,,,,None,,,,,,,,,,6,12,f004,G,None,visual,2018_Jan_18_1504,
1,3,Alien6.bmp,38,441,S,,,,,,,,0,8,8,8,,,,,,,,,,,,,None,,,,,,,,,,6,12,f004,G,None,visual,2018_Jan_18_1504,
4,1,Alien7.bmp,37,442,S,,,,,,,,0,9,9,9,,,,,,,,,,,,,None,,,,,,,,,,6,12,f004,G,None,visual,2018_Jan_18_1504,
4,2,Alien8.bmp,37,443,S,,,,,,,,0,10,10,10,,,,,,,,,,,,,None,,,,,,,,,,6,12,f004,G,None,visual,2018_Jan_18_1504,
4,3,Alien9.bmp,37,444,S,,,,,,,,0,11,11,11,,,,,,,,,,,,,None,,,,,,,,,,6,12,f004,G,None,visual,2018_Jan_18_1504,
2,1,Alien1.bmp,37,445,S,,,,,,,,0,12,12,12,,,,,,,,,,,,,None,,,,,,,,,,6,12,f004,G,None,visual,2018_Jan_18_1504,
2,2,Alien2.bmp,37,446,S,,,,,,,,0,13,13,13,,,,,,,,,,,,,None,,,,,,,,,,6,12,f004,G,None,visual,2018_Jan_18_1504,
2,3,Alien3.bmp,37,447,S,,,,,,,,0,14,14,14,,,,,,,,,,,,,None,,,,,,,,,,6,12,f004,G,None,visual,2018_Jan_18_1504,
1,1,Alien4.bmp,39,448,S,,,,,,,,0,15,15,15,,,,,,,,,,,,,None,,,,,,,,,,6,12,f004,G,None,visual,2018_Jan_18_1504,
1,2,Alien5.bmp,39,449,S,,,,,,,,0,16,16,16,,,,,,,,,,,,,None,,,,,,,,,,6,12,f004,G,None,visual,2018_Jan_18_1504,
1,3,Alien6.bmp,39,450,S,,,,,,,,0,17,17,17,,,,,,,,,,,,,None,,,,,,,,,,6,12,f004,G,None,visual,2018_Jan_18_1504,
4,1,Alien7.bmp,38,451,S,,,,,,,,0,18,18,18,,,,,,,,,,,,,None,,,,,,,,,,6,12,f004,G,None,visual,2018_Jan_18_1504,
4,2,Alien8.bmp,38,452,S,,,,,,,,0,19,19,19,,,,,,,,,,,,,None,,,,,,,,,,6,12,f004,G,None,visual,2018_Jan_18_1504,
4,3,Alien9.bmp,38,453,S,,,,,,,,0,20,20,20,,,,,,,,,,,,,None,,,,,,,,,,6,12,f004,G,None,visual,2018_Jan_18_1504,
2,1,Alien1.bmp,38,454,S,,,,,,,,0,21,21,21,,,,,,,,,,,,,None,,,,,,,,,,6,12,f004,G,None,visual,2018_Jan_18_1504,
2,2,Alien2.bmp,38,455,S,,,,,,,,0,22,22,22,,,,,,,,,,,,,None,,,,,,,,,,6,12,f004,G,None,visual,2018_Jan_18_1504,
2,3,Alien3.bmp,38,456,S,,,,,,,,0,23,23,23,,,,,,,,,,,,,None,,,,,,,,,,6,12,f004,G,None,visual,2018_Jan_18_1504,
0,0,blank.png,0,0,B,,,,,,,,0,24,24,24,,,,,,,,,,,,,None,,,,,,,,,,6,12,f004,G,None,visual,2018_Jan_18_1504,
0,0,blank.png,0,0,B,,,,,,,,0,25,25,25,,,,,,,,,,,,,None,,,,,,,,,,6,12,f004,G,None,visual,2018_Jan_18_1504,
0,0,blank.png,0,0,B,,,,,,,,0,26,26,26,,,,,,,,,,,,,None,,,,,,,,,,6,12,f004,G,None,visual,2018_Jan_18_1504,
0,0,blank.png,0,0,B,,,,,,,,0,27,27,27,,,,,,,,,,,,,None,,,,,,,,,,6,12,f004,G,None,visual,2018_Jan_18_1504,
0,0,blank.png,0,0,B,,,,,,,,0,28,28,28,,,,,,,,,,,,,None,,,,,,,,,,6,12,f004,G,None,visual,2018_Jan_18_1504,
0,0,blank.png,0,0,B,,,,,,,,0,29,29,29,,,,,,,,,,,,,None,,,,,,,,,,6,12,f004,G,None,visual,2018_Jan_18_1504,
0,0,blank.png,0,0,B,,,,,,,,0,30,30,30,,,,,,,,,,,,,None,,,,,,,,,,6,12,f004,G,None,visual,2018_Jan_18_1504,
0,0,blank.png,0,0,B,,,,,,,,0,31,31,31,,,,,,,,,,,,,None,,,,,,,,,,6,12,f004,G,None,visual,2018_Jan_18_1504,
0,0,blank.png,0,0,B,,,,,,,,0,32,32,32,,,,,,,,,,,,,None,,,,,,,,,,6,12,f004,G,None,visual,2018_Jan_18_1504,
0,0,blank.png,0,0,B,,,,,,,,0,33,33,33,,,,,,,,,,,,,None,,,,,,,,,,6,12,f004,G,None,visual,2018_Jan_18_1504,
0,0,blank.png,0,0,B,,,,,,,,0,34,34,34,,,,,,,,,,,,,None,,,,,,,,,,6,12,f004,G,None,visual,2018_Jan_18_1504,
0,0,blank.png,0,0,B,,,,,,,,0,35,35,35,,,,,,,,,,,,,None,,,,,,,,,,6,12,f004,G,None,visual,2018_Jan_18_1504,
3,1,Alien10.bmp,38,457,S,,,,,,,,0,36,36,36,,,,,,,,,,,,,None,,,,,,,,,,6,12,f004,G,None,visual,2018_Jan_18_1504,
3,2,Alien11.bmp,38,458,S,,,,,,,,0,37,37,37,,,,,,,,,,,,,None,,,,,,,,,,6,12,f004,G,None,visual,2018_Jan_18_1504,
3,3,Alien12.bmp,38,459,S,,,,,,,,0,38,38,38,,,,,,,,,,,,,3,0.375267342199,,,,,,,,,6,12,f004,G,None,visual,2018_Jan_18_1504,
2,1,Alien1.bmp,39,460,S,,,,,,,,0,39,39,39,,,,,,,,,,,,,None,,,,,,,,,,6,12,f004,G,None,visual,2018_Jan_18_1504,
2,2,Alien2.bmp,39,461,S,,,,,,,,0,40,40,40,,,,,,,,,,,,,None,,,,,,,,,,6,12,f004,G,None,visual,2018_Jan_18_1504,
2,3,Alien3.bmp,39,462,S,,,,,,,,0,41,41,41,,,,,,,,,,,,,None,,,,,,,,,,6,12,f004,G,None,visual,2018_Jan_18_1504,
1,1,Alien4.bmp,40,463,S,,,,,,,,0,42,42,42,,,,,,,,,,,,,None,,,,,,,,,,6,12,f004,G,None,visual,2018_Jan_18_1504,
1,2,Alien5.bmp,40,464,S,,,,,,,,0,43,43,43,,,,,,,,,,,,,None,,,,,,,,,,6,12,f004,G,None,visual,2018_Jan_18_1504,
1,3,Alien6.bmp,40,465,S,,,,,,,,0,44,44,44,,,,,,,,,,,,,None,,,,,,,,,,6,12,f004,G,None,visual,2018_Jan_18_1504,
3,1,Alien10.bmp,39,466,S,,,,,,,,0,45,45,45,,,,,,,,,,,,,None,,,,,,,,,,6,12,f004,G,None,visual,2018_Jan_18_1504,
3,2,Alien11.bmp,39,467,S,,,,,,,,0,46,46,46,,,,,,,,,,,,,None,,,,,,,,,,6,12,f004,G,None,visual,2018_Jan_18_1504,
3,3,Alien12.bmp,39,468,S,,,,,,,,0,47,47,47,,,,,,,,,,,,,3,0.433707558084,,,,,,,,,6,12,f004,G,None,visual,2018_Jan_18_1504,
4,1,Alien7.bmp,39,469,S,,,,,,,,0,48,48,48,,,,,,,,,,,,,None,,,,,,,,,,6,12,f004,G,None,visual,2018_Jan_18_1504,
4,2,Alien8.bmp,39,470,S,,,,,,,,0,49,49,49,,,,,,,,,,,,,None,,,,,,,,,,6,12,f004,G,None,visual,2018_Jan_18_1504,
4,3,Alien9.bmp,39,471,S,,,,,,,,0,50,50,50,,,,,,,,,,,,,None,,,,,,,,,,6,12,f004,G,None,visual,2018_Jan_18_1504,
3,1,Alien10.bmp,40,472,S,,,,,,,,0,51,51,51,,,,,,,,,,,,,None,,,,,,,,,,6,12,f004,G,None,visual,2018_Jan_18_1504,
3,2,Alien11.bmp,40,473,S,,,,,,,,0,52,52,52,,,,,,,,,,,,,None,,,,,,,,,,6,12,f004,G,None,visual,2018_Jan_18_1504,
3,3,Alien12.bmp,40,474,S,,,,,,,,0,53,53,53,,,,,,,,,,,,,3,0.438976319041,,,,,,,,,6,12,f004,G,None,visual,2018_Jan_18_1504,
2,1,Alien1.bmp,40,475,S,,,,,,,,0,54,54,54,,,,,,,,,,,,,None,,,,,,,,,,6,12,f004,G,None,visual,2018_Jan_18_1504,
2,2,Alien2.bmp,40,476,S,,,,,,,,0,55,55,55,,,,,,,,,,,,,None,,,,,,,,,,6,12,f004,G,None,visual,2018_Jan_18_1504,
2,3,Alien3.bmp,40,477,S,,,,,,,,0,56,56,56,,,,,,,,,,,,,None,,,,,,,,,,6,12,f004,G,None,visual,2018_Jan_18_1504,
4,1,Alien7.bmp,40,478,S,,,,,,,,0,57,57,57,,,,,,,,,,,,,None,,,,,,,,,,6,12,f004,G,None,visual,2018_Jan_18_1504,
4,2,Alien8.bmp,40,479,S,,,,,,,,0,58,58,58,,,,,,,,,,,,,None,,,,,,,,,,6,12,f004,G,None,visual,2018_Jan_18_1504,
4,3,Alien9.bmp,40,480,S,,,,,,,,0,59,59,59,,,,,,,,,,,,,None,,,,,,,,,,6,12,f004,G,None,visual,2018_Jan_18_1504,
1,1,Alien4.bmp,41,481,S,,,,,,,,0,60,60,60,,,,,,,,,,,,,None,,,,,,,,,,6,12,f004,G,None,visual,2018_Jan_18_1504,
1,2,Alien5.bmp,41,482,S,,,,,,,,0,61,61,61,,,,,,,,,,,,,None,,,,,,,,,,6,12,f004,G,None,visual,2018_Jan_18_1504,
1,3,Alien6.bmp,41,483,S,,,,,,,,0,62,62,62,,,,,,,,,,,,,None,,,,,,,,,,6,12,f004,G,None,visual,2018_Jan_18_1504,
4,1,Alien7.bmp,41,484,S,,,,,,,,0,63,63,63,,,,,,,,,,,,,None,,,,,,,,,,6,12,f004,G,None,visual,2018_Jan_18_1504,
4,2,Alien8.bmp,41,485,S,,,,,,,,0,64,64,64,,,,,,,,,,,,,None,,,,,,,,,,6,12,f004,G,None,visual,2018_Jan_18_1504,
4,3,Alien9.bmp,41,486,S,,,,,,,,0,65,65,65,,,,,,,,,,,,,None,,,,,,,,,,6,12,f004,G,None,visual,2018_Jan_18_1504,
2,1,Alien1.bmp,41,487,S,,,,,,,,0,66,66,66,,,,,,,,,,,,,None,,,,,,,,,,6,12,f004,G,None,visual,2018_Jan_18_1504,
2,2,Alien2.bmp,41,488,S,,,,,,,,0,67,67,67,,,,,,,,,,,,,None,,,,,,,,,,6,12,f004,G,None,visual,2018_Jan_18_1504,
2,3,Alien3.bmp,41,489,S,,,,,,,,0,68,68,68,,,,,,,,,,,,,None,,,,,,,,,,6,12,f004,G,None,visual,2018_Jan_18_1504,
3,1,Alien10.bmp,41,490,S,,,,,,,,0,69,69,69,,,,,,,,,,,,,None,,,,,,,,,,6,12,f004,G,None,visual,2018_Jan_18_1504,
3,2,Alien11.bmp,41,491,S,,,,,,,,0,70,70,70,,,,,,,,,,,,,None,,,,,,,,,,6,12,f004,G,None,visual,2018_Jan_18_1504,
3,3,Alien12.bmp,41,492,S,,,,,,,,0,71,71,71,,,,,,,,,,,,,3,0.450262784027,,,,,,,,,6,12,f004,G,None,visual,2018_Jan_18_1504,
4,1,Alien7.bmp,42,493,S,,,,,,,,0,72,72,72,,,,,,,,,,,,,None,,,,,,,,,,6,12,f004,G,None,visual,2018_Jan_18_1504,
4,2,Alien8.bmp,42,494,S,,,,,,,,0,73,73,73,,,,,,,,,,,,,None,,,,,,,,,,6,12,f004,G,None,visual,2018_Jan_18_1504,
4,3,Alien9.bmp,42,495,S,,,,,,,,0,74,74,74,,,,,,,,,,,,,None,,,,,,,,,,6,12,f004,G,None,visual,2018_Jan_18_1504,
1,1,Alien4.bmp,42,496,S,,,,,,,,0,75,75,75,,,,,,,,,,,,,None,,,,,,,,,,6,12,f004,G,None,visual,2018_Jan_18_1504,
1,2,Alien5.bmp,42,497,S,,,,,,,,0,76,76,76,,,,,,,,,,,,,None,,,,,,,,,,6,12,f004,G,None,visual,2018_Jan_18_1504,
1,3,Alien6.bmp,42,498,S,,,,,,,,0,77,77,77,,,,,,,,,,,,,None,,,,,,,,,,6,12,f004,G,None,visual,2018_Jan_18_1504,
2,1,Alien1.bmp,42,499,S,,,,,,,,0,78,78,78,,,,,,,,,,,,,None,,,,,,,,,,6,12,f004,G,None,visual,2018_Jan_18_1504,
2,2,Alien2.bmp,42,500,S,,,,,,,,0,79,79,79,,,,,,,,,,,,,None,,,,,,,,,,6,12,f004,G,None,visual,2018_Jan_18_1504,
2,3,Alien3.bmp,42,501,S,,,,,,,,0,80,80,80,,,,,,,,,,,,,None,,,,,,,,,,6,12,f004,G,None,visual,2018_Jan_18_1504,
3,1,Alien10.bmp,42,502,S,,,,,,,,0,81,81,81,,,,,,,,,,,,,None,,,,,,,,,,6,12,f004,G,None,visual,2018_Jan_18_1504,
3,2,Alien11.bmp,42,503,S,,,,,,,,0,82,82,82,,,,,,,,,,,,,None,,,,,,,,,,6,12,f004,G,None,visual,2018_Jan_18_1504,
3,3,Alien12.bmp,42,504,S,,,,,,,,0,83,83,83,,,,,,,,,,,,,3,0.575225130655,,,,,,,,,6,12,f004,G,None,visual,2018_Jan_18_1504,
0,0,blank.png,0,0,B,,,,,,,,0,84,84,84,,,,,,,,,,,,,None,,,,,,,,,,6,12,f004,G,None,visual,2018_Jan_18_1504,
0,0,blank.png,0,0,B,,,,,,,,0,85,85,85,,,,,,,,,,,,,None,,,,,,,,,,6,12,f004,G,None,visual,2018_Jan_18_1504,
0,0,blank.png,0,0,B,,,,,,,,0,86,86,86,,,,,,,,,,,,,None,,,,,,,,,,6,12,f004,G,None,visual,2018_Jan_18_1504,
0,0,blank.png,0,0,B,,,,,,,,0,87,87,87,,,,,,,,,,,,,None,,,,,,,,,,6,12,f004,G,None,visual,2018_Jan_18_1504,
0,0,blank.png,0,0,B,,,,,,,,0,88,88,88,,,,,,,,,,,,,None,,,,,,,,,,6,12,f004,G,None,visual,2018_Jan_18_1504,
0,0,blank.png,0,0,B,,,,,,,,0,89,89,89,,,,,,,,,,,,,None,,,,,,,,,,6,12,f004,G,None,visual,2018_Jan_18_1504,
0,0,blank.png,0,0,B,,,,,,,,0,90,90,90,,,,,,,,,,,,,None,,,,,,,,,,6,12,f004,G,None,visual,2018_Jan_18_1504,
0,0,blank.png,0,0,B,,,,,,,,0,91,91,91,,,,,,,,,,,,,None,,,,,,,,,,6,12,f004,G,None,visual,2018_Jan_18_1504,
0,0,blank.png,0,0,B,,,,,,,,0,92,92,92,,,,,,,,,,,,,None,,,,,,,,,,6,12,f004,G,None,visual,2018_Jan_18_1504,
0,0,blank.png,0,0,B,,,,,,,,0,93,93,93,,,,,,,,,,,,,None,,,,,,,,,,6,12,f004,G,None,visual,2018_Jan_18_1504,
0,0,blank.png,0,0,B,,,,,,,,0,94,94,94,,,,,,,,,,,,,None,,,,,,,,,,6,12,f004,G,None,visual,2018_Jan_18_1504,
0,0,blank.png,0,0,B,,,,,,,,0,95,95,95,,,,,,,,,,,,,None,,,,,,,,,,6,12,f004,G,None,visual,2018_Jan_18_1504,
1,1,Alien4.bmp,43,505,S,,,,,,,,0,96,96,96,,,,,,,,,,,,,None,,,,,,,,,,6,12,f004,G,None,visual,2018_Jan_18_1504,
1,2,Alien5.bmp,43,506,S,,,,,,,,0,97,97,97,,,,,,,,,,,,,None,,,,,,,,,,6,12,f004,G,None,visual,2018_Jan_18_1504,
1,3,Alien6.bmp,43,507,S,,,,,,,,0,98,98,98,,,,,,,,,,,,,None,,,,,,,,,,6,12,f004,G,None,visual,2018_Jan_18_1504,
3,1,Alien10.bmp,43,508,S,,,,,,,,0,99,99,99,,,,,,,,,,,,,None,,,,,,,,,,6,12,f004,G,None,visual,2018_Jan_18_1504,
3,2,Alien11.bmp,43,509,S,,,,,,,,0,100,100,100,,,,,,,,,,,,,None,,,,,,,,,,6,12,f004,G,None,visual,2018_Jan_18_1504,
3,3,Alien12.bmp,43,510,S,,,,,,,,0,101,101,101,,,,,,,,,,,,,3,0.425277197734,,,,,,,,,6,12,f004,G,None,visual,2018_Jan_18_1504,
4,1,Alien7.bmp,43,511,S,,,,,,,,0,102,102,102,,,,,,,,,,,,,None,,,,,,,,,,6,12,f004,G,None,visual,2018_Jan_18_1504,
4,2,Alien8.bmp,43,512,S,,,,,,,,0,103,103,103,,,,,,,,,,,,,None,,,,,,,,,,6,12,f004,G,None,visual,2018_Jan_18_1504,
4,3,Alien9.bmp,43,513,S,,,,,,,,0,104,104,104,,,,,,,,,,,,,None,,,,,,,,,,6,12,f004,G,None,visual,2018_Jan_18_1504,
2,1,Alien1.bmp,43,514,S,,,,,,,,0,105,105,105,,,,,,,,,,,,,None,,,,,,,,,,6,12,f004,G,None,visual,2018_Jan_18_1504,
2,2,Alien2.bmp,43,515,S,,,,,,,,0,106,106,106,,,,,,,,,,,,,None,,,,,,,,,,6,12,f004,G,None,visual,2018_Jan_18_1504,
2,3,Alien3.bmp,43,516,S,,,,,,,,0,107,107,107,,,,,,,,,,,,,None,,,,,,,,,,6,12,f004,G,None,visual,2018_Jan_18_1504,
4,1,Alien7.bmp,44,517,S,,,,,,,,0,108,108,108,,,,,,,,,,,,,None,,,,,,,,,,6,12,f004,G,None,visual,2018_Jan_18_1504,
4,2,Alien8.bmp,44,518,S,,,,,,,,0,109,109,109,,,,,,,,,,,,,None,,,,,,,,,,6,12,f004,G,None,visual,2018_Jan_18_1504,
4,3,Alien9.bmp,44,519,S,,,,,,,,0,110,110,110,,,,,,,,,,,,,None,,,,,,,,,,6,12,f004,G,None,visual,2018_Jan_18_1504,
3,1,Alien10.bmp,44,520,S,,,,,,,,0,111,111,111,,,,,,,,,,,,,None,,,,,,,,,,6,12,f004,G,None,visual,2018_Jan_18_1504,
3,2,Alien11.bmp,44,521,S,,,,,,,,0,112,112,112,,,,,,,,,,,,,None,,,,,,,,,,6,12,f004,G,None,visual,2018_Jan_18_1504,
3,3,Alien12.bmp,44,522,S,,,,,,,,0,113,113,113,,,,,,,,,,,,,3,0.442042912822,,,,,,,,,6,12,f004,G,None,visual,2018_Jan_18_1504,
1,1,Alien4.bmp,44,523,S,,,,,,,,0,114,114,114,,,,,,,,,,,,,None,,,,,,,,,,6,12,f004,G,None,visual,2018_Jan_18_1504,
1,2,Alien5.bmp,44,524,S,,,,,,,,0,115,115,115,,,,,,,,,,,,,None,,,,,,,,,,6,12,f004,G,None,visual,2018_Jan_18_1504,
1,3,Alien6.bmp,44,525,S,,,,,,,,0,116,116,116,,,,,,,,,,,,,None,,,,,,,,,,6,12,f004,G,None,visual,2018_Jan_18_1504,
2,1,Alien1.bmp,44,526,S,,,,,,,,0,117,117,117,,,,,,,,,,,,,None,,,,,,,,,,6,12,f004,G,None,visual,2018_Jan_18_1504,
2,2,Alien2.bmp,44,527,S,,,,,,,,0,118,118,118,,,,,,,,,,,,,None,,,,,,,,,,6,12,f004,G,None,visual,2018_Jan_18_1504,
2,3,Alien3.bmp,44,528,S,,,,,,,,0,119,119,119,,,,,,,,,,,,,None,,,,,,,,,,6,12,f004,G,None,visual,2018_Jan_18_1504,
0,1,D.png,1,457,R,,,,,,,,,,,,0,0,0,0,,,,,,,,,,,None,,,,,,,,6,12,f004,G,None,visual,2018_Jan_18_1504,
0,2,A.png,1,458,R,,,,,,,,,,,,0,1,1,1,,,,,,,,,,,None,,,,,,,,6,12,f004,G,None,visual,2018_Jan_18_1504,
0,3,F.png,1,459,R,,,,,,,,,,,,0,2,2,2,,,,,,,,,,,None,,,,,,,,6,12,f004,G,None,visual,2018_Jan_18_1504,
0,1,G.png,1,460,R,,,,,,,,,,,,0,3,3,3,,,,,,,,,,,3,0.550332273822,,,,,,,6,12,f004,G,None,visual,2018_Jan_18_1504,
0,2,H.png,1,461,R,,,,,,,,,,,,0,4,4,4,,,,,,,,,,,None,,,,,,,,6,12,f004,G,None,visual,2018_Jan_18_1504,
0,3,B.png,1,462,R,,,,,,,,,,,,0,5,5,5,,,,,,,,,,,None,,,,,,,,6,12,f004,G,None,visual,2018_Jan_18_1504,
0,1,K.png,1,463,R,,,,,,,,,,,,0,6,6,6,,,,,,,,,,,None,,,,,,,,6,12,f004,G,None,visual,2018_Jan_18_1504,
0,2,C.png,1,464,R,,,,,,,,,,,,0,7,7,7,,,,,,,,,,,None,,,,,,,,6,12,f004,G,None,visual,2018_Jan_18_1504,
0,3,J.png,1,465,R,,,,,,,,,,,,0,8,8,8,,,,,,,,,,,None,,,,,,,,6,12,f004,G,None,visual,2018_Jan_18_1504,
0,1,C.png,1,466,R,,,,,,,,,,,,0,9,9,9,,,,,,,,,,,None,,,,,,,,6,12,f004,G,None,visual,2018_Jan_18_1504,
0,2,A.png,1,467,R,,,,,,,,,,,,0,10,10,10,,,,,,,,,,,None,,,,,,,,6,12,f004,G,None,visual,2018_Jan_18_1504,
0,3,H.png,1,468,R,,,,,,,,,,,,0,11,11,11,,,,,,,,,,,None,,,,,,,,6,12,f004,G,None,visual,2018_Jan_18_1504,
0,1,J.png,1,469,R,,,,,,,,,,,,0,12,12,12,,,,,,,,,,,None,,,,,,,,6,12,f004,G,None,visual,2018_Jan_18_1504,
0,2,G.png,1,470,R,,,,,,,,,,,,0,13,13,13,,,,,,,,,,,3,0.416995318141,,,,,,,6,12,f004,G,None,visual,2018_Jan_18_1504,
0,3,G.png,1,471,R,,,,,,,,,,,,0,14,14,14,,,,,,,,,,,3,0.50030535087,,,,,,,6,12,f004,G,None,visual,2018_Jan_18_1504,
0,1,F.png,1,472,R,,,,,,,,,,,,0,15,15,15,,,,,,,,,,,None,,,,,,,,6,12,f004,G,None,visual,2018_Jan_18_1504,
0,2,C.png,1,473,R,,,,,,,,,,,,0,16,16,16,,,,,,,,,,,None,,,,,,,,6,12,f004,G,None,visual,2018_Jan_18_1504,
0,3,L.png,1,474,R,,,,,,,,,,,,0,17,17,17,,,,,,,,,,,None,,,,,,,,6,12,f004,G,None,visual,2018_Jan_18_1504,
0,1,M.png,1,475,R,,,,,,,,,,,,0,18,18,18,,,,,,,,,,,None,,,,,,,,6,12,f004,G,None,visual,2018_Jan_18_1504,
0,2,L.png,1,476,R,,,,,,,,,,,,0,19,19,19,,,,,,,,,,,None,,,,,,,,6,12,f004,G,None,visual,2018_Jan_18_1504,
0,3,D.png,1,477,R,,,,,,,,,,,,0,20,20,20,,,,,,,,,,,None,,,,,,,,6,12,f004,G,None,visual,2018_Jan_18_1504,
0,1,D.png,1,478,R,,,,,,,,,,,,0,21,21,21,,,,,,,,,,,None,,,,,,,,6,12,f004,G,None,visual,2018_Jan_18_1504,
0,2,E.png,1,479,R,,,,,,,,,,,,0,22,22,22,,,,,,,,,,,None,,,,,,,,6,12,f004,G,None,visual,2018_Jan_18_1504,
0,3,E.png,1,480,R,,,,,,,,,,,,0,23,23,23,,,,,,,,,,,None,,,,,,,,6,12,f004,G,None,visual,2018_Jan_18_1504,
0,0,blank.png,0,0,B,,,,,,,,,,,,,,,,0,0,0,0,,,,,,,,,None,,,,,,6,12,f004,G,None,visual,2018_Jan_18_1504,
0,0,blank.png,0,0,B,,,,,,,,,,,,,,,,0,1,1,1,,,,,,,,,None,,,,,,6,12,f004,G,None,visual,2018_Jan_18_1504,
0,0,blank.png,0,0,B,,,,,,,,,,,,,,,,0,2,2,2,,,,,,,,,None,,,,,,6,12,f004,G,None,visual,2018_Jan_18_1504,
0,0,blank.png,0,0,B,,,,,,,,,,,,,,,,0,3,3,3,,,,,,,,,None,,,,,,6,12,f004,G,None,visual,2018_Jan_18_1504,
0,0,blank.png,0,0,B,,,,,,,,,,,,,,,,0,4,4,4,,,,,,,,,None,,,,,,6,12,f004,G,None,visual,2018_Jan_18_1504,
0,0,blank.png,0,0,B,,,,,,,,,,,,,,,,0,5,5,5,,,,,,,,,None,,,,,,6,12,f004,G,None,visual,2018_Jan_18_1504,
0,0,blank.png,0,0,B,,,,,,,,,,,,,,,,0,6,6,6,,,,,,,,,None,,,,,,6,12,f004,G,None,visual,2018_Jan_18_1504,
0,0,blank.png,0,0,B,,,,,,,,,,,,,,,,0,7,7,7,,,,,,,,,None,,,,,,6,12,f004,G,None,visual,2018_Jan_18_1504,
0,0,blank.png,0,0,B,,,,,,,,,,,,,,,,0,8,8,8,,,,,,,,,None,,,,,,6,12,f004,G,None,visual,2018_Jan_18_1504,
0,0,blank.png,0,0,B,,,,,,,,,,,,,,,,0,9,9,9,,,,,,,,,None,,,,,,6,12,f004,G,None,visual,2018_Jan_18_1504,
0,0,blank.png,0,0,B,,,,,,,,,,,,,,,,0,10,10,10,,,,,,,,,None,,,,,,6,12,f004,G,None,visual,2018_Jan_18_1504,
0,0,blank.png,0,0,B,,,,,,,,,,,,,,,,0,11,11,11,,,,,,,,,None,,,,,,6,12,f004,G,None,visual,2018_Jan_18_1504,
0,1,H.png,1,481,R,,,,,,,,,,,,0,0,0,0,,,,,,,,,,,None,,,,,,,,6,12,f004,G,None,visual,2018_Jan_18_1504,
0,2,F.png,1,482,R,,,,,,,,,,,,0,1,1,1,,,,,,,,,,,None,,,,,,,,6,12,f004,G,None,visual,2018_Jan_18_1504,
0,3,D.png,1,483,R,,,,,,,,,,,,0,2,2,2,,,,,,,,,,,None,,,,,,,,6,12,f004,G,None,visual,2018_Jan_18_1504,
0,1,F.png,1,484,R,,,,,,,,,,,,0,3,3,3,,,,,,,,,,,None,,,,,,,,6,12,f004,G,None,visual,2018_Jan_18_1504,
0,2,K.png,1,485,R,,,,,,,,,,,,0,4,4,4,,,,,,,,,,,None,,,,,,,,6,12,f004,G,None,visual,2018_Jan_18_1504,
0,3,A.png,1,486,R,,,,,,,,,,,,0,5,5,5,,,,,,,,,,,None,,,,,,,,6,12,f004,G,None,visual,2018_Jan_18_1504,
0,1,B.png,1,487,R,,,,,,,,,,,,0,6,6,6,,,,,,,,,,,None,,,,,,,,6,12,f004,G,None,visual,2018_Jan_18_1504,
0,2,D.png,1,488,R,,,,,,,,,,,,0,7,7,7,,,,,,,,,,,None,,,,,,,,6,12,f004,G,None,visual,2018_Jan_18_1504,
0,3,E.png,1,489,R,,,,,,,,,,,,0,8,8,8,,,,,,,,,,,None,,,,,,,,6,12,f004,G,None,visual,2018_Jan_18_1504,
0,1,L.png,1,490,R,,,,,,,,,,,,0,9,9,9,,,,,,,,,,,None,,,,,,,,6,12,f004,G,None,visual,2018_Jan_18_1504,
0,2,C.png,1,491,R,,,,,,,,,,,,0,10,10,10,,,,,,,,,,,None,,,,,,,,6,12,f004,G,None,visual,2018_Jan_18_1504,
0,3,B.png,1,492,R,,,,,,,,,,,,0,11,11,11,,,,,,,,,,,None,,,,,,,,6,12,f004,G,None,visual,2018_Jan_18_1504,
0,1,K.png,1,493,R,,,,,,,,,,,,0,12,12,12,,,,,,,,,,,None,,,,,,,,6,12,f004,G,None,visual,2018_Jan_18_1504,
0,2,M.png,1,494,R,,,,,,,,,,,,0,13,13,13,,,,,,,,,,,None,,,,,,,,6,12,f004,G,None,visual,2018_Jan_18_1504,
0,3,M.png,1,495,R,,,,,,,,,,,,0,14,14,14,,,,,,,,,,,None,,,,,,,,6,12,f004,G,None,visual,2018_Jan_18_1504,
0,1,L.png,1,496,R,,,,,,,,,,,,0,15,15,15,,,,,,,,,,,None,,,,,,,,6,12,f004,G,None,visual,2018_Jan_18_1504,
0,2,J.png,1,497,R,,,,,,,,,,,,0,16,16,16,,,,,,,,,,,None,,,,,,,,6,12,f004,G,None,visual,2018_Jan_18_1504,
0,3,C.png,1,498,R,,,,,,,,,,,,0,17,17,17,,,,,,,,,,,None,,,,,,,,6,12,f004,G,None,visual,2018_Jan_18_1504,
0,1,E.png,1,499,R,,,,,,,,,,,,0,18,18,18,,,,,,,,,,,None,,,,,,,,6,12,f004,G,None,visual,2018_Jan_18_1504,
0,2,G.png,1,500,R,,,,,,,,,,,,0,19,19,19,,,,,,,,,,,3,0.56702687731,,,,,,,6,12,f004,G,None,visual,2018_Jan_18_1504,
0,3,J.png,1,501,R,,,,,,,,,,,,0,20,20,20,,,,,,,,,,,None,,,,,,,,6,12,f004,G,None,visual,2018_Jan_18_1504,
0,1,H.png,1,502,R,,,,,,,,,,,,0,21,21,21,,,,,,,,,,,None,,,,,,,,6,12,f004,G,None,visual,2018_Jan_18_1504,
0,2,G.png,1,503,R,,,,,,,,,,,,0,22,22,22,,,,,,,,,,,3,0.483707742766,,,,,,,6,12,f004,G,None,visual,2018_Jan_18_1504,
0,3,A.png,1,504,R,,,,,,,,,,,,0,23,23,23,,,,,,,,,,,None,,,,,,,,6,12,f004,G,None,visual,2018_Jan_18_1504,
0,0,blank.png,0,0,B,,,,,,,,,,,,,,,,0,0,0,0,,,,,,,,,None,,,,,,6,12,f004,G,None,visual,2018_Jan_18_1504,
0,0,blank.png,0,0,B,,,,,,,,,,,,,,,,0,1,1,1,,,,,,,,,None,,,,,,6,12,f004,G,None,visual,2018_Jan_18_1504,
0,0,blank.png,0,0,B,,,,,,,,,,,,,,,,0,2,2,2,,,,,,,,,None,,,,,,6,12,f004,G,None,visual,2018_Jan_18_1504,
0,0,blank.png,0,0,B,,,,,,,,,,,,,,,,0,3,3,3,,,,,,,,,None,,,,,,6,12,f004,G,None,visual,2018_Jan_18_1504,
0,0,blank.png,0,0,B,,,,,,,,,,,,,,,,0,4,4,4,,,,,,,,,None,,,,,,6,12,f004,G,None,visual,2018_Jan_18_1504,
0,0,blank.png,0,0,B,,,,,,,,,,,,,,,,0,5,5,5,,,,,,,,,None,,,,,,6,12,f004,G,None,visual,2018_Jan_18_1504,
0,0,blank.png,0,0,B,,,,,,,,,,,,,,,,0,6,6,6,,,,,,,,,None,,,,,,6,12,f004,G,None,visual,2018_Jan_18_1504,
0,0,blank.png,0,0,B,,,,,,,,,,,,,,,,0,7,7,7,,,,,,,,,None,,,,,,6,12,f004,G,None,visual,2018_Jan_18_1504,
0,0,blank.png,0,0,B,,,,,,,,,,,,,,,,0,8,8,8,,,,,,,,,None,,,,,,6,12,f004,G,None,visual,2018_Jan_18_1504,
0,0,blank.png,0,0,B,,,,,,,,,,,,,,,,0,9,9,9,,,,,,,,,None,,,,,,6,12,f004,G,None,visual,2018_Jan_18_1504,
0,0,blank.png,0,0,B,,,,,,,,,,,,,,,,0,10,10,10,,,,,,,,,None,,,,,,6,12,f004,G,None,visual,2018_Jan_18_1504,
0,0,blank.png,0,0,B,,,,,,,,,,,,,,,,0,11,11,11,,,,,,,,,None,,,,,,6,12,f004,G,None,visual,2018_Jan_18_1504,
0,1,E.png,1,505,R,,,,,,,,,,,,0,0,0,0,,,,,,,,,,,None,,,,,,,,6,12,f004,G,None,visual,2018_Jan_18_1504,
0,2,J.png,1,506,R,,,,,,,,,,,,0,1,1,1,,,,,,,,,,,None,,,,,,,,6,12,f004,G,None,visual,2018_Jan_18_1504,
0,3,F.png,1,507,R,,,,,,,,,,,,0,2,2,2,,,,,,,,,,,None,,,,,,,,6,12,f004,G,None,visual,2018_Jan_18_1504,
0,1,D.png,1,508,R,,,,,,,,,,,,0,3,3,3,,,,,,,,,,,None,,,,,,,,6,12,f004,G,None,visual,2018_Jan_18_1504,
0,2,H.png,1,509,R,,,,,,,,,,,,0,4,4,4,,,,,,,,,,,None,,,,,,,,6,12,f004,G,None,visual,2018_Jan_18_1504,
0,3,J.png,1,510,R,,,,,,,,,,,,0,5,5,5,,,,,,,,,,,None,,,,,,,,6,12,f004,G,None,visual,2018_Jan_18_1504,
0,1,C.png,1,511,R,,,,,,,,,,,,0,6,6,6,,,,,,,,,,,None,,,,,,,,6,12,f004,G,None,visual,2018_Jan_18_1504,
0,2,G.png,1,512,R,,,,,,,,,,,,0,7,7,7,,,,,,,,,,,3,0.425357127097,,,,,,,6,12,f004,G,None,visual,2018_Jan_18_1504,
0,3,M.png,1,513,R,,,,,,,,,,,,0,8,8,8,,,,,,,,,,,None,,,,,,,,6,12,f004,G,None,visual,2018_Jan_18_1504,
0,1,L.png,1,514,R,,,,,,,,,,,,0,9,9,9,,,,,,,,,,,None,,,,,,,,6,12,f004,G,None,visual,2018_Jan_18_1504,
0,2,D.png,1,515,R,,,,,,,,,,,,0,10,10,10,,,,,,,,,,,None,,,,,,,,6,12,f004,G,None,visual,2018_Jan_18_1504,
0,3,K.png,1,516,R,,,,,,,,,,,,0,11,11,11,,,,,,,,,,,None,,,,,,,,6,12,f004,G,None,visual,2018_Jan_18_1504,
0,1,C.png,1,517,R,,,,,,,,,,,,0,12,12,12,,,,,,,,,,,None,,,,,,,,6,12,f004,G,None,visual,2018_Jan_18_1504,
0,2,E.png,1,518,R,,,,,,,,,,,,0,13,13,13,,,,,,,,,,,None,,,,,,,,6,12,f004,G,None,visual,2018_Jan_18_1504,
0,3,A.png,1,519,R,,,,,,,,,,,,0,14,14,14,,,,,,,,,,,None,,,,,,,,6,12,f004,G,None,visual,2018_Jan_18_1504,
0,1,L.png,1,520,R,,,,,,,,,,,,0,15,15,15,,,,,,,,,,,None,,,,,,,,6,12,f004,G,None,visual,2018_Jan_18_1504,
0,2,G.png,1,521,R,,,,,,,,,,,,0,16,16,16,,,,,,,,,,,3,0.342046809848,,,,,,,6,12,f004,G,None,visual,2018_Jan_18_1504,
0,3,M.png,1,522,R,,,,,,,,,,,,0,17,17,17,,,,,,,,,,,None,,,,,,,,6,12,f004,G,None,visual,2018_Jan_18_1504,
0,1,H.png,1,523,R,,,,,,,,,,,,0,18,18,18,,,,,,,,,,,None,,,,,,,,6,12,f004,G,None,visual,2018_Jan_18_1504,
0,2,F.png,1,524,R,,,,,,,,,,,,0,19,19,19,,,,,,,,,,,None,,,,,,,,6,12,f004,G,None,visual,2018_Jan_18_1504,
0,3,B.png,1,525,R,,,,,,,,,,,,0,20,20,20,,,,,,,,,,,None,,,,,,,,6,12,f004,G,None,visual,2018_Jan_18_1504,
0,1,A.png,1,526,R,,,,,,,,,,,,0,21,21,21,,,,,,,,,,,None,,,,,,,,6,12,f004,G,None,visual,2018_Jan_18_1504,
0,2,B.png,1,527,R,,,,,,,,,,,,0,22,22,22,,,,,,,,,,,None,,,,,,,,6,12,f004,G,None,visual,2018_Jan_18_1504,
0,3,K.png,1,528,R,,,,,,,,,,,,0,23,23,23,,,,,,,,,,,None,,,,,,,,6,12,f004,G,None,visual,2018_Jan_18_1504,
0,1,F.png,1,529,R,,,,,,,,,,,,0,24,24,24,,,,,,,,,,,None,,,,,,,,6,12,f004,G,None,visual,2018_Jan_18_1504,
0,2,E.png,1,530,R,,,,,,,,,,,,0,25,25,25,,,,,,,,,,,None,,,,,,,,6,12,f004,G,None,visual,2018_Jan_18_1504,
0,3,D.png,1,531,R,,,,,,,,,,,,0,26,26,26,,,,,,,,,,,None,,,,,,,,6,12,f004,G,None,visual,2018_Jan_18_1504,
0,1,B.png,1,532,R,,,,,,,,,,,,0,27,27,27,,,,,,,,,,,None,,,,,,,,6,12,f004,G,None,visual,2018_Jan_18_1504,
0,2,H.png,1,533,R,,,,,,,,,,,,0,28,28,28,,,,,,,,,,,None,,,,,,,,6,12,f004,G,None,visual,2018_Jan_18_1504,
0,3,G.png,1,534,R,,,,,,,,,,,,0,29,29,29,,,,,,,,,,,3,0.41698735347,,,,,,,6,12,f004,G,None,visual,2018_Jan_18_1504,
0,1,H.png,1,535,R,,,,,,,,,,,,0,30,30,30,,,,,,,,,,,None,,,,,,,,6,12,f004,G,None,visual,2018_Jan_18_1504,
0,2,L.png,1,536,R,,,,,,,,,,,,0,31,31,31,,,,,,,,,,,None,,,,,,,,6,12,f004,G,None,visual,2018_Jan_18_1504,
0,3,K.png,1,537,R,,,,,,,,,,,,0,32,32,32,,,,,,,,,,,None,,,,,,,,6,12,f004,G,None,visual,2018_Jan_18_1504,
0,1,C.png,1,538,R,,,,,,,,,,,,0,33,33,33,,,,,,,,,,,None,,,,,,,,6,12,f004,G,None,visual,2018_Jan_18_1504,
0,2,G.png,1,539,R,,,,,,,,,,,,0,34,34,34,,,,,,,,,,,3,0.400376945734,,,,,,,6,12,f004,G,None,visual,2018_Jan_18_1504,
0,3,L.png,1,540,R,,,,,,,,,,,,0,35,35,35,,,,,,,,,,,None,,,,,,,,6,12,f004,G,None,visual,2018_Jan_18_1504,
0,1,E.png,1,541,R,,,,,,,,,,,,0,36,36,36,,,,,,,,,,,None,,,,,,,,6,12,f004,G,None,visual,2018_Jan_18_1504,
0,2,M.png,1,542,R,,,,,,,,,,,,0,37,37,37,,,,,,,,,,,None,,,,,,,,6,12,f004,G,None,visual,2018_Jan_18_1504,
0,3,A.png,1,543,R,,,,,,,,,,,,0,38,38,38,,,,,,,,,,,None,,,,,,,,6,12,f004,G,None,visual,2018_Jan_18_1504,
0,1,K.png,1,544,R,,,,,,,,,,,,0,39,39,39,,,,,,,,,,,None,,,,,,,,6,12,f004,G,None,visual,2018_Jan_18_1504,
0,2,L.png,1,545,R,,,,,,,,,,,,0,40,40,40,,,,,,,,,,,None,,,,,,,,6,12,f004,G,None,visual,2018_Jan_18_1504,
0,3,B.png,1,546,R,,,,,,,,,,,,0,41,41,41,,,,,,,,,,,None,,,,,,,,6,12,f004,G,None,visual,2018_Jan_18_1504,
0,1,J.png,1,547,R,,,,,,,,,,,,0,42,42,42,,,,,,,,,,,None,,,,,,,,6,12,f004,G,None,visual,2018_Jan_18_1504,
0,2,D.png,1,548,R,,,,,,,,,,,,0,43,43,43,,,,,,,,,,,None,,,,,,,,6,12,f004,G,None,visual,2018_Jan_18_1504,
0,3,C.png,1,549,R,,,,,,,,,,,,0,44,44,44,,,,,,,,,,,None,,,,,,,,6,12,f004,G,None,visual,2018_Jan_18_1504,
0,1,M.png,1,550,R,,,,,,,,,,,,0,45,45,45,,,,,,,,,,,None,,,,,,,,6,12,f004,G,None,visual,2018_Jan_18_1504,
0,2,H.png,1,551,R,,,,,,,,,,,,0,46,46,46,,,,,,,,,,,None,,,,,,,,6,12,f004,G,None,visual,2018_Jan_18_1504,
0,3,E.png,1,552,R,,,,,,,,,,,,0,47,47,47,,,,,,,,,,,None,,,,,,,,6,12,f004,G,None,visual,2018_Jan_18_1504,
4,1,Alien7.bmp,45,529,S,,,,,,,,0,0,0,0,,,,,,,,,,,,,None,,,,,,,,,,6,12,f004,G,None,visual,2018_Jan_18_1504,
4,2,Alien8.bmp,45,530,S,,,,,,,,0,1,1,1,,,,,,,,,,,,,None,,,,,,,,,,6,12,f004,G,None,visual,2018_Jan_18_1504,
4,3,Alien9.bmp,45,531,S,,,,,,,,0,2,2,2,,,,,,,,,,,,,None,,,,,,,,,,6,12,f004,G,None,visual,2018_Jan_18_1504,
1,1,Alien4.bmp,45,532,S,,,,,,,,0,3,3,3,,,,,,,,,,,,,None,,,,,,,,,,6,12,f004,G,None,visual,2018_Jan_18_1504,
1,2,Alien5.bmp,45,533,S,,,,,,,,0,4,4,4,,,,,,,,,,,,,None,,,,,,,,,,6,12,f004,G,None,visual,2018_Jan_18_1504,
1,3,Alien6.bmp,45,534,S,,,,,,,,0,5,5,5,,,,,,,,,,,,,None,,,,,,,,,,6,12,f004,G,None,visual,2018_Jan_18_1504,
3,1,Alien10.bmp,45,535,S,,,,,,,,0,6,6,6,,,,,,,,,,,,,None,,,,,,,,,,6,12,f004,G,None,visual,2018_Jan_18_1504,
3,2,Alien11.bmp,45,536,S,,,,,,,,0,7,7,7,,,,,,,,,,,,,None,,,,,,,,,,6,12,f004,G,None,visual,2018_Jan_18_1504,
3,3,Alien12.bmp,45,537,S,,,,,,,,0,8,8,8,,,,,,,,,,,,,3,0.442042628769,,,,,,,,,6,12,f004,G,None,visual,2018_Jan_18_1504,
4,1,Alien7.bmp,46,538,S,,,,,,,,0,9,9,9,,,,,,,,,,,,,None,,,,,,,,,,6,12,f004,G,None,visual,2018_Jan_18_1504,
4,2,Alien8.bmp,46,539,S,,,,,,,,0,10,10,10,,,,,,,,,,,,,None,,,,,,,,,,6,12,f004,G,None,visual,2018_Jan_18_1504,
4,3,Alien9.bmp,46,540,S,,,,,,,,0,11,11,11,,,,,,,,,,,,,None,,,,,,,,,,6,12,f004,G,None,visual,2018_Jan_18_1504,
1,1,Alien4.bmp,46,541,S,,,,,,,,0,12,12,12,,,,,,,,,,,,,None,,,,,,,,,,6,12,f004,G,None,visual,2018_Jan_18_1504,
1,2,Alien5.bmp,46,542,S,,,,,,,,0,13,13,13,,,,,,,,,,,,,None,,,,,,,,,,6,12,f004,G,None,visual,2018_Jan_18_1504,
1,3,Alien6.bmp,46,543,S,,,,,,,,0,14,14,14,,,,,,,,,,,,,None,,,,,,,,,,6,12,f004,G,None,visual,2018_Jan_18_1504,
3,1,Alien10.bmp,46,544,S,,,,,,,,0,15,15,15,,,,,,,,,,,,,None,,,,,,,,,,6,12,f004,G,None,visual,2018_Jan_18_1504,
3,2,Alien11.bmp,46,545,S,,,,,,,,0,16,16,16,,,,,,,,,,,,,None,,,,,,,,,,6,12,f004,G,None,visual,2018_Jan_18_1504,
3,3,Alien12.bmp,46,546,S,,,,,,,,0,17,17,17,,,,,,,,,,,,,3,0.725412280764,,,,,,,,,6,12,f004,G,None,visual,2018_Jan_18_1504,
2,1,Alien1.bmp,45,547,S,,,,,,,,0,18,18,18,,,,,,,,,,,,,None,,,,,,,,,,6,12,f004,G,None,visual,2018_Jan_18_1504,
2,2,Alien2.bmp,45,548,S,,,,,,,,0,19,19,19,,,,,,,,,,,,,None,,,,,,,,,,6,12,f004,G,None,visual,2018_Jan_18_1504,
2,3,Alien3.bmp,45,549,S,,,,,,,,0,20,20,20,,,,,,,,,,,,,None,,,,,,,,,,6,12,f004,G,None,visual,2018_Jan_18_1504,
4,1,Alien7.bmp,47,550,S,,,,,,,,0,21,21,21,,,,,,,,,,,,,None,,,,,,,,,,6,12,f004,G,None,visual,2018_Jan_18_1504,
4,2,Alien8.bmp,47,551,S,,,,,,,,0,22,22,22,,,,,,,,,,,,,None,,,,,,,,,,6,12,f004,G,None,visual,2018_Jan_18_1504,
4,3,Alien9.bmp,47,552,S,,,,,,,,0,23,23,23,,,,,,,,,,,,,None,,,,,,,,,,6,12,f004,G,None,visual,2018_Jan_18_1504,
2,1,Alien1.bmp,46,553,S,,,,,,,,0,24,24,24,,,,,,,,,,,,,None,,,,,,,,,,6,12,f004,G,None,visual,2018_Jan_18_1504,
2,2,Alien2.bmp,46,554,S,,,,,,,,0,25,25,25,,,,,,,,,,,,,None,,,,,,,,,,6,12,f004,G,None,visual,2018_Jan_18_1504,
2,3,Alien3.bmp,46,555,S,,,,,,,,0,26,26,26,,,,,,,,,,,,,None,,,,,,,,,,6,12,f004,G,None,visual,2018_Jan_18_1504,
3,1,Alien10.bmp,47,556,S,,,,,,,,0,27,27,27,,,,,,,,,,,,,None,,,,,,,,,,6,12,f004,G,None,visual,2018_Jan_18_1504,
3,2,Alien11.bmp,47,557,S,,,,,,,,0,28,28,28,,,,,,,,,,,,,None,,,,,,,,,,6,12,f004,G,None,visual,2018_Jan_18_1504,
3,3,Alien12.bmp,47,558,S,,,,,,,,0,29,29,29,,,,,,,,,,,,,3,0.400252358988,,,,,,,,,6,12,f004,G,None,visual,2018_Jan_18_1504,
1,1,Alien4.bmp,47,559,S,,,,,,,,0,30,30,30,,,,,,,,,,,,,None,,,,,,,,,,6,12,f004,G,None,visual,2018_Jan_18_1504,
1,2,Alien5.bmp,47,560,S,,,,,,,,0,31,31,31,,,,,,,,,,,,,None,,,,,,,,,,6,12,f004,G,None,visual,2018_Jan_18_1504,
1,3,Alien6.bmp,47,561,S,,,,,,,,0,32,32,32,,,,,,,,,,,,,None,,,,,,,,,,6,12,f004,G,None,visual,2018_Jan_18_1504,
2,1,Alien1.bmp,47,562,S,,,,,,,,0,33,33,33,,,,,,,,,,,,,None,,,,,,,,,,6,12,f004,G,None,visual,2018_Jan_18_1504,
2,2,Alien2.bmp,47,563,S,,,,,,,,0,34,34,34,,,,,,,,,,,,,None,,,,,,,,,,6,12,f004,G,None,visual,2018_Jan_18_1504,
2,3,Alien3.bmp,47,564,S,,,,,,,,0,35,35,35,,,,,,,,,,,,,None,,,,,,,,,,6,12,f004,G,None,visual,2018_Jan_18_1504,
3,1,Alien10.bmp,48,565,S,,,,,,,,0,36,36,36,,,,,,,,,,,,,None,,,,,,,,,,6,12,f004,G,None,visual,2018_Jan_18_1504,
3,2,Alien11.bmp,48,566,S,,,,,,,,0,37,37,37,,,,,,,,,,,,,None,,,,,,,,,,6,12,f004,G,None,visual,2018_Jan_18_1504,
3,3,Alien12.bmp,48,567,S,,,,,,,,0,38,38,38,,,,,,,,,,,,,3,0.416979958303,,,,,,,,,6,12,f004,G,None,visual,2018_Jan_18_1504,
4,1,Alien7.bmp,48,568,S,,,,,,,,0,39,39,39,,,,,,,,,,,,,None,,,,,,,,,,6,12,f004,G,None,visual,2018_Jan_18_1504,
4,2,Alien8.bmp,48,569,S,,,,,,,,0,40,40,40,,,,,,,,,,,,,None,,,,,,,,,,6,12,f004,G,None,visual,2018_Jan_18_1504,
4,3,Alien9.bmp,48,570,S,,,,,,,,0,41,41,41,,,,,,,,,,,,,None,,,,,,,,,,6,12,f004,G,None,visual,2018_Jan_18_1504,
1,1,Alien4.bmp,48,571,S,,,,,,,,0,42,42,42,,,,,,,,,,,,,None,,,,,,,,,,6,12,f004,G,None,visual,2018_Jan_18_1504,
1,2,Alien5.bmp,48,572,S,,,,,,,,0,43,43,43,,,,,,,,,,,,,None,,,,,,,,,,6,12,f004,G,None,visual,2018_Jan_18_1504,
1,3,Alien6.bmp,48,573,S,,,,,,,,0,44,44,44,,,,,,,,,,,,,None,,,,,,,,,,6,12,f004,G,None,visual,2018_Jan_18_1504,
2,1,Alien1.bmp,48,574,S,,,,,,,,0,45,45,45,,,,,,,,,,,,,None,,,,,,,,,,6,12,f004,G,None,visual,2018_Jan_18_1504,
2,2,Alien2.bmp,48,575,S,,,,,,,,0,46,46,46,,,,,,,,,,,,,None,,,,,,,,,,6,12,f004,G,None,visual,2018_Jan_18_1504,
2,3,Alien3.bmp,48,576,S,,,,,,,,0,47,47,47,,,,,,,,,,,,,None,,,,,,,,,,6,12,f004,G,None,visual,2018_Jan_18_1504,
0,1,A.png,1,553,R,,,,,,,,,,,,0,0,0,0,,,,,,,,,,,None,,,,,,,,6,12,f004,G,None,visual,2018_Jan_18_1504,
0,2,A.png,1,554,R,,,,,,,,,,,,0,1,1,1,,,,,,,,,,,None,,,,,,,,6,12,f004,G,None,visual,2018_Jan_18_1504,
0,3,L.png,1,555,R,,,,,,,,,,,,0,2,2,2,,,,,,,,,,,None,,,,,,,,6,12,f004,G,None,visual,2018_Jan_18_1504,
0,1,K.png,1,556,R,,,,,,,,,,,,0,3,3,3,,,,,,,,,,,None,,,,,,,,6,12,f004,G,None,visual,2018_Jan_18_1504,
0,2,F.png,1,557,R,,,,,,,,,,,,0,4,4,4,,,,,,,,,,,None,,,,,,,,6,12,f004,G,None,visual,2018_Jan_18_1504,
0,3,D.png,1,558,R,,,,,,,,,,,,0,5,5,5,,,,,,,,,,,None,,,,,,,,6,12,f004,G,None,visual,2018_Jan_18_1504,
0,1,B.png,1,559,R,,,,,,,,,,,,0,6,6,6,,,,,,,,,,,None,,,,,,,,6,12,f004,G,None,visual,2018_Jan_18_1504,
0,2,J.png,1,560,R,,,,,,,,,,,,0,7,7,7,,,,,,,,,,,None,,,,,,,,6,12,f004,G,None,visual,2018_Jan_18_1504,
0,3,J.png,1,561,R,,,,,,,,,,,,0,8,8,8,,,,,,,,,,,None,,,,,,,,6,12,f004,G,None,visual,2018_Jan_18_1504,
0,1,G.png,1,562,R,,,,,,,,,,,,0,9,9,9,,,,,,,,,,,3,0.489870512392,,,,,,,6,12,f004,G,None,visual,2018_Jan_18_1504,
0,2,M.png,1,563,R,,,,,,,,,,,,0,10,10,10,,,,,,,,,,,None,,,,,,,,6,12,f004,G,None,visual,2018_Jan_18_1504,
0,3,H.png,1,564,R,,,,,,,,,,,,0,11,11,11,,,,,,,,,,,None,,,,,,,,6,12,f004,G,None,visual,2018_Jan_18_1504,
0,1,J.png,1,565,R,,,,,,,,,,,,0,12,12,12,,,,,,,,,,,None,,,,,,,,6,12,f004,G,None,visual,2018_Jan_18_1504,
0,2,A.png,1,566,R,,,,,,,,,,,,0,13,13,13,,,,,,,,,,,None,,,,,,,,6,12,f004,G,None,visual,2018_Jan_18_1504,
0,3,M.png,1,567,R,,,,,,,,,,,,0,14,14,14,,,,,,,,,,,None,,,,,,,,6,12,f004,G,None,visual,2018_Jan_18_1504,
0,1,C.png,1,568,R,,,,,,,,,,,,0,15,15,15,,,,,,,,,,,None,,,,,,,,6,12,f004,G,None,visual,2018_Jan_18_1504,
0,2,E.png,1,569,R,,,,,,,,,,,,0,16,16,16,,,,,,,,,,,None,,,,,,,,6,12,f004,G,None,visual,2018_Jan_18_1504,
0,3,D.png,1,570,R,,,,,,,,,,,,0,17,17,17,,,,,,,,,,,None,,,,,,,,6,12,f004,G,None,visual,2018_Jan_18_1504,
0,1,F.png,1,571,R,,,,,,,,,,,,0,18,18,18,,,,,,,,,,,None,,,,,,,,6,12,f004,G,None,visual,2018_Jan_18_1504,
0,2,C.png,1,572,R,,,,,,,,,,,,0,19,19,19,,,,,,,,,,,None,,,,,,,,6,12,f004,G,None,visual,2018_Jan_18_1504,
0,3,K.png,1,573,R,,,,,,,,,,,,0,20,20,20,,,,,,,,,,,None,,,,,,,,6,12,f004,G,None,visual,2018_Jan_18_1504,
0,1,B.png,1,574,R,,,,,,,,,,,,0,21,21,21,,,,,,,,,,,None,,,,,,,,6,12,f004,G,None,visual,2018_Jan_18_1504,
0,2,G.png,1,575,R,,,,,,,,,,,,0,22,22,22,,,,,,,,,,,3,0.550332842395,,,,,,,6,12,f004,G,None,visual,2018_Jan_18_1504,
0,3,F.png,1,576,R,,,,,,,,,,,,0,23,23,23,,,,,,,,,,,None,,,,,,,,6,12,f004,G,None,visual,2018_Jan_18_1504,
,,,,,,,,,,,,,,,,,,,,,,,,,,,,,,,,,,3,3.41753348662,,,,6,12,f004,G,None,visual,2018_Jan_18_1504,
,,,,,,4,Alien6.BMP,Alien2.BMP,Alien10.BMP,Alien9.BMP,Alien8.BMP,Alien7.BMP,,,,,,,,,,,,,0,0,0,16,,,,,,,,3,0,3.97595905373,6,12,f004,G,None,visual,2018_Jan_18_1504,
,,,,,,4,Alien6.BMP,Alien2.BMP,Alien10.BMP,Alien6.BMP,Alien5.BMP,Alien4.BMP,,,,,,,,,,,,,0,1,1,6,,,,,,,,4,1,5.09290661383,6,12,f004,G,None,visual,2018_Jan_18_1504,
,,,,,,4,Alien3.BMP,Alien11.BMP,Alien7.BMP,Alien6.BMP,Alien5.BMP,Alien4.BMP,,,,,,,,,,,,,0,2,2,4,,,,,,,,3,0,0.758753701579,6,12,f004,G,None,visual,2018_Jan_18_1504,
,,,,,,3,Alien9.BMP,Alien8.BMP,Alien7.BMP,Alien6.BMP,Alien2.BMP,Alien10.BMP,,,,,,,,,,,,,0,3,3,10,,,,,,,,3,1,3.25916230585,6,12,f004,G,None,visual,2018_Jan_18_1504,
,,,,,,3,Alien6.BMP,Alien5.BMP,Alien4.BMP,Alien6.BMP,Alien2.BMP,Alien10.BMP,,,,,,,,,,,,,0,4,4,9,,,,,,,,4,0,1.27552126581,6,12,f004,G,None,visual,2018_Jan_18_1504,
,,,,,,3,Alien6.BMP,Alien5.BMP,Alien4.BMP,Alien9.BMP,Alien5.BMP,Alien1.BMP,,,,,,,,,,,,,0,5,5,23,,,,,,,,4,0,1.80059460225,6,12,f004,G,None,visual,2018_Jan_18_1504,
,,,,,,4,Alien9.BMP,Alien5.BMP,Alien1.BMP,Alien3.BMP,Alien2.BMP,Alien1.BMP,,,,,,,,,,,,,0,6,6,1,,,,,,,,3,0,0.258649452589,6,12,f004,G,None,visual,2018_Jan_18_1504,
,,,,,,3,Alien3.BMP,Alien2.BMP,Alien1.BMP,Alien12.BMP,Alien8.BMP,Alien4.BMP,,,,,,,,,,,,,0,7,7,27,,,,,,,,4,0,1.38385699037,6,12,f004,G,None,visual,2018_Jan_18_1504,
,,,,,,3,Alien3.BMP,Alien2.BMP,Alien1.BMP,Alien3.BMP,Alien11.BMP,Alien7.BMP,,,,,,,,,,,,,0,8,8,7,,,,,,,,4,0,3.02582896315,6,12,f004,G,None,visual,2018_Jan_18_1504,
,,,,,,4,Alien9.BMP,Alien5.BMP,Alien1.BMP,Alien12.BMP,Alien11.BMP,Alien10.BMP,,,,,,,,,,,,,0,9,9,19,,,,,,,,4,1,1.14191721706,6,12,f004,G,None,visual,2018_Jan_18_1504,
,,,,,,3,Alien9.BMP,Alien8.BMP,Alien7.BMP,Alien9.BMP,Alien5.BMP,Alien1.BMP,,,,,,,,,,,,,0,10,10,26,,,,,,,,4,0,0.925399082713,6,12,f004,G,None,visual,2018_Jan_18_1504,
,,,,,,3,Alien6.BMP,Alien5.BMP,Alien4.BMP,Alien3.BMP,Alien11.BMP,Alien7.BMP,,,,,,,,,,,,,0,11,11,8,,,,,,,,4,0,1.09222309431,6,12,f004,G,None,visual,2018_Jan_18_1504,
,,,,,,4,Alien9.BMP,Alien5.BMP,Alien1.BMP,Alien6.BMP,Alien5.BMP,Alien4.BMP,,,,,,,,,,,,,0,12,12,20,,,,,,,,4,1,0.350351160858,6,12,f004,G,None,visual,2018_Jan_18_1504,
,,,,,,4,Alien12.BMP,Alien8.BMP,Alien4.BMP,Alien12.BMP,Alien11.BMP,Alien10.BMP,,,,,,,,,,,,,0,13,13,5,,,,,,,,3,0,0.250317226164,6,12,f004,G,None,visual,2018_Jan_18_1504,
,,,,,,3,Alien12.BMP,Alien11.BMP,Alien10.BMP,Alien3.BMP,Alien11.BMP,Alien7.BMP,,,,,,,,,,,,,0,14,14,21,,,,,,,,4,0,3.17586393561,6,12,f004,G,None,visual,2018_Jan_18_1504,
,,,,,,4,Alien3.BMP,Alien11.BMP,Alien7.BMP,Alien12.BMP,Alien11.BMP,Alien10.BMP,,,,,,,,,,,,,0,15,15,22,,,,,,,,4,1,1.44235324161,6,12,f004,G,None,visual,2018_Jan_18_1504,
,,,,,,4,Alien3.BMP,Alien11.BMP,Alien7.BMP,Alien9.BMP,Alien8.BMP,Alien7.BMP,,,,,,,,,,,,,0,16,16,31,,,,,,,,4,1,2.68408764619,6,12,f004,G,None,visual,2018_Jan_18_1504,
,,,,,,4,Alien3.BMP,Alien11.BMP,Alien7.BMP,Alien3.BMP,Alien2.BMP,Alien1.BMP,,,,,,,,,,,,,0,17,17,29,,,,,,,,4,1,0.750399572775,6,12,f004,G,None,visual,2018_Jan_18_1504,
,,,,,,4,Alien12.BMP,Alien8.BMP,Alien4.BMP,Alien3.BMP,Alien2.BMP,Alien1.BMP,,,,,,,,,,,,,0,18,18,11,,,,,,,,3,0,2.32569865929,6,12,f004,G,None,visual,2018_Jan_18_1504,
,,,,,,4,Alien12.BMP,Alien8.BMP,Alien4.BMP,Alien6.BMP,Alien5.BMP,Alien4.BMP,,,,,,,,,,,,,0,19,19,15,,,,,,,,3,0,1.10045747133,6,12,f004,G,None,visual,2018_Jan_18_1504,
,,,,,,4,Alien9.BMP,Alien5.BMP,Alien1.BMP,Alien9.BMP,Alien8.BMP,Alien7.BMP,,,,,,,,,,,,,0,20,20,14,,,,,,,,3,0,1.07548724581,6,12,f004,G,None,visual,2018_Jan_18_1504,
,,,,,,3,Alien3.BMP,Alien2.BMP,Alien1.BMP,Alien9.BMP,Alien5.BMP,Alien1.BMP,,,,,,,,,,,,,0,21,21,25,,,,,,,,3,1,0.992140804417,6,12,f004,G,None,visual,2018_Jan_18_1504,
,,,,,,4,Alien6.BMP,Alien2.BMP,Alien10.BMP,Alien3.BMP,Alien2.BMP,Alien1.BMP,,,,,,,,,,,,,0,22,22,13,,,,,,,,4,1,0.500363377389,6,12,f004,G,None,visual,2018_Jan_18_1504,
,,,,,,3,Alien12.BMP,Alien11.BMP,Alien10.BMP,Alien9.BMP,Alien5.BMP,Alien1.BMP,,,,,,,,,,,,,0,23,23,0,,,,,,,,3,1,0.316993810702,6,12,f004,G,None,visual,2018_Jan_18_1504,
,,,,,,3,Alien12.BMP,Alien11.BMP,Alien10.BMP,Alien6.BMP,Alien2.BMP,Alien10.BMP,,,,,,,,,,,,,0,24,24,3,,,,,,,,3,1,0.350336938165,6,12,f004,G,None,visual,2018_Jan_18_1504,
,,,,,,3,Alien6.BMP,Alien5.BMP,Alien4.BMP,Alien12.BMP,Alien8.BMP,Alien4.BMP,,,,,,,,,,,,,0,25,25,17,,,,,,,,3,1,0.250306133181,6,12,f004,G,None,visual,2018_Jan_18_1504,
,,,,,,3,Alien9.BMP,Alien8.BMP,Alien7.BMP,Alien12.BMP,Alien8.BMP,Alien4.BMP,,,,,,,,,,,,,0,26,26,2,,,,,,,,3,1,0.65039977245,6,12,f004,G,None,visual,2018_Jan_18_1504,
,,,,,,3,Alien12.BMP,Alien11.BMP,Alien10.BMP,Alien12.BMP,Alien8.BMP,Alien4.BMP,,,,,,,,,,,,,0,27,27,18,,,,,,,,3,1,6.00358513603,6,12,f004,G,None,visual,2018_Jan_18_1504,
,,,,,,3,Alien3.BMP,Alien2.BMP,Alien1.BMP,Alien6.BMP,Alien2.BMP,Alien10.BMP,,,,,,,,,,,,,0,28,28,28,,,,,,,,3,1,2.2340538404,6,12,f004,G,None,visual,2018_Jan_18_1504,
,,,,,,4,Alien6.BMP,Alien2.BMP,Alien10.BMP,Alien12.BMP,Alien11.BMP,Alien10.BMP,,,,,,,,,,,,,0,29,29,24,,,,,,,,3,0,0.583720912226,6,12,f004,G,None,visual,2018_Jan_18_1504,
,,,,,,3,Alien9.BMP,Alien8.BMP,Alien7.BMP,Alien3.BMP,Alien11.BMP,Alien7.BMP,,,,,,,,,,,,,0,30,30,12,,,,,,,,3,1,0.425359971356,6,12,f004,G,None,visual,2018_Jan_18_1504,
,,,,,,4,Alien12.BMP,Alien8.BMP,Alien4.BMP,Alien9.BMP,Alien8.BMP,Alien7.BMP,,,,,,,,,,,,,0,31,31,30,,,,,,,,3,0,1.12546325289,6,12,f004,G,None,visual,2018_Jan_18_1504,
