Subject,Session,AgeMonth,AgeYears,gender,Group,languages,SessionDate,Block,Procedure[Block],Trial,answer.ACC,answer.CRESP,answer.OnsetToOnsetTime,answer.RESP,answer.RT,answer.RTTime,correctAnswer,correctKeyboard,nonword,Procedure[Trial],word
101,1,3,26,male,1,hebrew,11/05/2017,1,exposureProc,1,,,,,,,,,,SoundExposure,
101,1,3,26,male,1,hebrew,11/05/2017,2,SegmentationTest,1,1,q,0,q,1652,218711,dukame,q,gekalu,SegmentationProc,dukame
101,1,3,26,male,1,hebrew,11/05/2017,2,SegmentationTest,2,1,q,0,q,2377,224607,tobelu,q,tomubi,SegmentationProc,tobelu
101,1,3,26,male,1,hebrew,11/05/2017,2,SegmentationTest,3,1,p,0,p,2824,230943,kimuga,p,duloga,SegmentationProc,kimuga
101,1,3,26,male,1,hebrew,11/05/2017,2,SegmentationTest,4,1,q,0,q,278,234735,nalobi,q,nadime,SegmentationProc,nalobi
101,1,3,26,male,1,hebrew,11/05/2017,2,SegmentationTest,5,1,p,0,p,1010,239271,gedino,p,kibeno,SegmentationProc,gedino
101,1,3,26,male,1,hebrew,11/05/2017,2,SegmentationTest,6,0,p,0,q,2090,244871,nalobi,p,duloga,SegmentationProc,nalobi
101,1,3,26,male,1,hebrew,11/05/2017,2,SegmentationTest,7,1,q,0,q,237,248623,kimuga,q,gekalu,SegmentationProc,kimuga
101,1,3,26,male,1,hebrew,11/05/2017,2,SegmentationTest,8,1,p,0,p,260,252399,dukame,p,kibeno,SegmentationProc,dukame
101,1,3,26,male,1,hebrew,11/05/2017,2,SegmentationTest,9,1,p,0,p,249,256158,gedino,p,tomubi,SegmentationProc,gedino
101,1,3,26,male,1,hebrew,11/05/2017,2,SegmentationTest,10,1,q,0,q,535,260214,tobelu,q,nadime,SegmentationProc,tobelu
101,1,3,26,male,1,hebrew,11/05/2017,2,SegmentationTest,11,0,q,0,p,521,264254,nalobi,q,gekalu,SegmentationProc,nalobi
101,1,3,26,male,1,hebrew,11/05/2017,2,SegmentationTest,12,1,q,0,q,141,267910,dukame,q,tomubi,SegmentationProc,dukame
101,1,3,26,male,1,hebrew,11/05/2017,2,SegmentationTest,13,1,q,0,q,704,272126,kimuga,q,kibeno,SegmentationProc,kimuga
101,1,3,26,male,1,hebrew,11/05/2017,2,SegmentationTest,14,1,p,0,p,299,275942,gedino,p,nadime,SegmentationProc,gedino
101,1,3,26,male,1,hebrew,11/05/2017,2,SegmentationTest,15,0,p,0,q,447,279910,tobelu,p,duloga,SegmentationProc,tobelu
101,1,3,26,male,1,hebrew,11/05/2017,2,SegmentationTest,16,1,q,0,q,429,283862,dukame,q,nadime,SegmentationProc,dukame
101,1,3,26,male,1,hebrew,11/05/2017,2,SegmentationTest,17,1,q,0,q,2116,289502,tobelu,q,gekalu,SegmentationProc,tobelu
101,1,3,26,male,1,hebrew,11/05/2017,2,SegmentationTest,18,0,q,0,p,1198,294222,gedino,q,duloga,SegmentationProc,gedino
101,1,3,26,male,1,hebrew,11/05/2017,2,SegmentationTest,19,1,p,0,p,309,298054,kimuga,p,tomubi,SegmentationProc,kimuga
101,1,3,26,male,1,hebrew,11/05/2017,2,SegmentationTest,20,0,p,0,q,761,302326,nalobi,p,kibeno,SegmentationProc,nalobi
101,1,3,26,male,1,hebrew,11/05/2017,2,SegmentationTest,21,1,p,0,p,210,306062,gedino,p,gekalu,SegmentationProc,gedino
101,1,3,26,male,1,hebrew,11/05/2017,2,SegmentationTest,22,1,q,0,q,722,310294,tobelu,q,kibeno,SegmentationProc,tobelu
101,1,3,26,male,1,hebrew,11/05/2017,2,SegmentationTest,23,1,q,0,q,173,313982,nalobi,q,tomubi,SegmentationProc,nalobi
101,1,3,26,male,1,hebrew,11/05/2017,2,SegmentationTest,24,1,p,0,p,326,317821,kimuga,p,nadime,SegmentationProc,kimuga
101,1,3,26,male,1,hebrew,11/05/2017,2,SegmentationTest,25,1,p,0,p,337,321669,dukame,p,duloga,SegmentationProc,dukame
102,1,5,20,female,1,arabic,11/05/2017,1,exposureProc,1,,,,,,,,,,SoundExposure,
102,1,5,20,female,1,arabic,11/05/2017,2,SegmentationTest,1,1,q,0,q,1666,210574,dukame,q,gekalu,SegmentationProc,dukame
102,1,5,20,female,1,arabic,11/05/2017,2,SegmentationTest,2,1,p,0,p,2070,216166,kimuga,p,duloga,SegmentationProc,kimuga
102,1,5,20,female,1,arabic,11/05/2017,2,SegmentationTest,3,1,q,0,q,882,220566,tobelu,q,tomubi,SegmentationProc,tobelu
102,1,5,20,female,1,arabic,11/05/2017,2,SegmentationTest,4,0,p,0,q,853,224941,gedino,p,kibeno,SegmentationProc,gedino
102,1,5,20,female,1,arabic,11/05/2017,2,SegmentationTest,5,1,q,0,q,1154,229613,nalobi,q,nadime,SegmentationProc,nalobi
102,1,5,20,female,1,arabic,11/05/2017,2,SegmentationTest,6,0,q,0,p,2372,235501,kimuga,q,gekalu,SegmentationProc,kimuga
102,1,5,20,female,1,arabic,11/05/2017,2,SegmentationTest,7,0,p,0,q,1443,240461,dukame,p,kibeno,SegmentationProc,dukame
102,1,5,20,female,1,arabic,11/05/2017,2,SegmentationTest,8,0,p,0,q,4393,248365,gedino,p,tomubi,SegmentationProc,gedino
102,1,5,20,female,1,arabic,11/05/2017,2,SegmentationTest,9,1,q,0,q,1927,253805,tobelu,q,nadime,SegmentationProc,tobelu
102,1,5,20,female,1,arabic,11/05/2017,2,SegmentationTest,10,1,p,0,p,705,258021,nalobi,p,duloga,SegmentationProc,nalobi
102,1,5,20,female,1,arabic,11/05/2017,2,SegmentationTest,11,1,q,0,q,628,262165,dukame,q,tomubi,SegmentationProc,dukame
102,1,5,20,female,1,arabic,11/05/2017,2,SegmentationTest,12,1,q,0,q,1411,267101,kimuga,q,kibeno,SegmentationProc,kimuga
102,1,5,20,female,1,arabic,11/05/2017,2,SegmentationTest,13,1,p,0,p,2170,272781,gedino,p,nadime,SegmentationProc,gedino
102,1,5,20,female,1,arabic,11/05/2017,2,SegmentationTest,14,0,p,0,q,1570,277869,tobelu,p,duloga,SegmentationProc,tobelu
102,1,5,20,female,1,arabic,11/05/2017,2,SegmentationTest,15,1,q,0,q,1778,283165,nalobi,q,gekalu,SegmentationProc,nalobi
102,1,5,20,female,1,arabic,11/05/2017,2,SegmentationTest,16,0,q,0,p,1713,288388,dukame,q,nadime,SegmentationProc,dukame
102,1,5,20,female,1,arabic,11/05/2017,2,SegmentationTest,17,0,q,0,p,931,292844,tobelu,q,gekalu,SegmentationProc,tobelu
102,1,5,20,female,1,arabic,11/05/2017,2,SegmentationTest,18,1,q,0,q,1142,297508,gedino,q,duloga,SegmentationProc,gedino
102,1,5,20,female,1,arabic,11/05/2017,2,SegmentationTest,19,0,p,0,q,2000,303020,kimuga,p,tomubi,SegmentationProc,kimuga
102,1,5,20,female,1,arabic,11/05/2017,2,SegmentationTest,20,0,p,0,q,1462,308004,nalobi,p,kibeno,SegmentationProc,nalobi
102,1,5,20,female,1,arabic,11/05/2017,2,SegmentationTest,21,0,p,0,q,1011,312540,gedino,p,gekalu,SegmentationProc,gedino
102,1,5,20,female,1,arabic,11/05/2017,2,SegmentationTest,22,1,q,0,q,4441,320508,tobelu,q,kibeno,SegmentationProc,tobelu
102,1,5,20,female,1,arabic,11/05/2017,2,SegmentationTest,23,1,q,0,q,677,324700,nalobi,q,tomubi,SegmentationProc,nalobi
102,1,5,20,female,1,arabic,11/05/2017,2,SegmentationTest,24,0,p,0,q,1506,329716,kimuga,p,nadime,SegmentationProc,kimuga
102,1,5,20,female,1,arabic,11/05/2017,2,SegmentationTest,25,1,p,0,p,3085,336316,dukame,p,duloga,SegmentationProc,dukame
103,1,1,24,female,1,hebrew,11/05/2017,1,exposureProc,1,,,,,,,,,,SoundExposure,
103,1,1,24,female,1,hebrew,11/05/2017,2,SegmentationTest,1,1,q,0,q,60,167523,nalobi,q,nadime,SegmentationProc,nalobi
103,1,1,24,female,1,hebrew,11/05/2017,2,SegmentationTest,2,1,p,0,p,681,171731,kimuga,p,duloga,SegmentationProc,kimuga
103,1,1,24,female,1,hebrew,11/05/2017,2,SegmentationTest,3,1,q,0,q,129,175379,dukame,q,gekalu,SegmentationProc,dukame
103,1,1,24,female,1,hebrew,11/05/2017,2,SegmentationTest,4,1,p,0,p,92,178995,gedino,p,kibeno,SegmentationProc,gedino
103,1,1,24,female,1,hebrew,11/05/2017,2,SegmentationTest,5,1,q,0,q,55,182571,tobelu,q,tomubi,SegmentationProc,tobelu
103,1,1,24,female,1,hebrew,11/05/2017,2,SegmentationTest,6,0,p,0,q,66,186155,nalobi,p,duloga,SegmentationProc,nalobi
103,1,1,24,female,1,hebrew,11/05/2017,2,SegmentationTest,7,0,q,0,p,952,190627,kimuga,q,gekalu,SegmentationProc,kimuga
103,1,1,24,female,1,hebrew,11/05/2017,2,SegmentationTest,8,0,p,0,q,85,194227,dukame,p,kibeno,SegmentationProc,dukame
103,1,1,24,female,1,hebrew,11/05/2017,2,SegmentationTest,9,1,p,0,p,46,197787,gedino,p,tomubi,SegmentationProc,gedino
103,1,1,24,female,1,hebrew,11/05/2017,2,SegmentationTest,10,1,q,0,q,190,201491,tobelu,q,nadime,SegmentationProc,tobelu
103,1,1,24,female,1,hebrew,11/05/2017,2,SegmentationTest,11,1,q,0,q,203,205211,nalobi,q,gekalu,SegmentationProc,nalobi
103,1,1,24,female,1,hebrew,11/05/2017,2,SegmentationTest,12,1,q,0,q,76,208803,dukame,q,tomubi,SegmentationProc,dukame
103,1,1,24,female,1,hebrew,11/05/2017,2,SegmentationTest,13,0,q,0,p,100,212427,kimuga,q,kibeno,SegmentationProc,kimuga
103,1,1,24,female,1,hebrew,11/05/2017,2,SegmentationTest,14,1,p,0,p,47,215987,gedino,p,nadime,SegmentationProc,gedino
103,1,1,24,female,1,hebrew,11/05/2017,2,SegmentationTest,15,0,p,0,q,103,219603,tobelu,p,duloga,SegmentationProc,tobelu
103,1,1,24,female,1,hebrew,11/05/2017,2,SegmentationTest,16,1,q,0,q,157,223283,dukame,q,nadime,SegmentationProc,dukame
103,1,1,24,female,1,hebrew,11/05/2017,2,SegmentationTest,17,0,q,0,p,93,226899,tobelu,q,gekalu,SegmentationProc,tobelu
103,1,1,24,female,1,hebrew,11/05/2017,2,SegmentationTest,18,1,q,0,q,384,230803,gedino,q,duloga,SegmentationProc,gedino
103,1,1,24,female,1,hebrew,11/05/2017,2,SegmentationTest,19,1,p,0,p,261,234587,kimuga,p,tomubi,SegmentationProc,kimuga
103,1,1,24,female,1,hebrew,11/05/2017,2,SegmentationTest,20,0,p,0,q,147,238259,nalobi,p,kibeno,SegmentationProc,nalobi
103,1,1,24,female,1,hebrew,11/05/2017,2,SegmentationTest,21,0,p,0,q,488,242267,gedino,p,gekalu,SegmentationProc,gedino
103,1,1,24,female,1,hebrew,11/05/2017,2,SegmentationTest,22,0,q,0,p,611,246403,tobelu,q,kibeno,SegmentationProc,tobelu
103,1,1,24,female,1,hebrew,11/05/2017,2,SegmentationTest,23,1,q,0,q,342,250267,nalobi,q,tomubi,SegmentationProc,nalobi
103,1,1,24,female,1,hebrew,11/05/2017,2,SegmentationTest,24,0,p,0,q,52,253843,kimuga,p,nadime,SegmentationProc,kimuga
103,1,1,24,female,1,hebrew,11/05/2017,2,SegmentationTest,25,1,p,0,p,199,257563,dukame,p,duloga,SegmentationProc,dukame
104,1,1,21,female,1,hebrew,11/05/2017,1,exposureProc,1,,,,,,,,,,SoundExposure,
104,1,1,21,female,1,hebrew,11/05/2017,2,SegmentationTest,1,1,p,0,p,9389,229456,kimuga,p,duloga,SegmentationProc,kimuga
104,1,1,21,female,1,hebrew,11/05/2017,2,SegmentationTest,2,1,p,0,p,2723,235696,gedino,p,kibeno,SegmentationProc,gedino
104,1,1,21,female,1,hebrew,11/05/2017,2,SegmentationTest,3,1,q,0,q,676,239888,dukame,q,gekalu,SegmentationProc,dukame
104,1,1,21,female,1,hebrew,11/05/2017,2,SegmentationTest,4,1,q,0,q,1692,245104,tobelu,q,tomubi,SegmentationProc,tobelu
104,1,1,21,female,1,hebrew,11/05/2017,2,SegmentationTest,5,1,q,0,q,895,249520,nalobi,q,nadime,SegmentationProc,nalobi
104,1,1,21,female,1,hebrew,11/05/2017,2,SegmentationTest,6,1,q,0,q,1354,254392,kimuga,q,gekalu,SegmentationProc,kimuga
104,1,1,21,female,1,hebrew,11/05/2017,2,SegmentationTest,7,1,p,0,p,440,258344,dukame,p,kibeno,SegmentationProc,dukame
104,1,1,21,female,1,hebrew,11/05/2017,2,SegmentationTest,8,1,p,0,p,688,262552,gedino,p,tomubi,SegmentationProc,gedino
104,1,1,21,female,1,hebrew,11/05/2017,2,SegmentationTest,9,1,q,0,q,1499,267576,tobelu,q,nadime,SegmentationProc,tobelu
104,1,1,21,female,1,hebrew,11/05/2017,2,SegmentationTest,10,0,p,0,q,1494,272584,nalobi,p,duloga,SegmentationProc,nalobi
104,1,1,21,female,1,hebrew,11/05/2017,2,SegmentationTest,11,1,q,0,q,145,276248,dukame,q,tomubi,SegmentationProc,dukame
104,1,1,21,female,1,hebrew,11/05/2017,2,SegmentationTest,12,1,q,0,q,550,280320,kimuga,q,kibeno,SegmentationProc,kimuga
104,1,1,21,female,1,hebrew,11/05/2017,2,SegmentationTest,13,0,p,0,q,3484,287320,gedino,p,nadime,SegmentationProc,gedino
104,1,1,21,female,1,hebrew,11/05/2017,2,SegmentationTest,14,0,p,0,q,900,291736,tobelu,p,duloga,SegmentationProc,tobelu
104,1,1,21,female,1,hebrew,11/05/2017,2,SegmentationTest,15,0,q,0,p,406,295655,nalobi,q,gekalu,SegmentationProc,nalobi
104,1,1,21,female,1,hebrew,11/05/2017,2,SegmentationTest,16,0,q,0,p,359,299527,dukame,q,nadime,SegmentationProc,dukame
104,1,1,21,female,1,hebrew,11/05/2017,2,SegmentationTest,17,0,q,0,p,1055,304103,tobelu,q,gekalu,SegmentationProc,tobelu
104,1,1,21,female,1,hebrew,11/05/2017,2,SegmentationTest,18,1,q,0,q,1482,309103,gedino,q,duloga,SegmentationProc,gedino
104,1,1,21,female,1,hebrew,11/05/2017,2,SegmentationTest,19,1,p,0,p,954,313575,kimuga,p,tomubi,SegmentationProc,kimuga
104,1,1,21,female,1,hebrew,11/05/2017,2,SegmentationTest,20,0,p,0,q,1546,318647,nalobi,p,kibeno,SegmentationProc,nalobi
104,1,1,21,female,1,hebrew,11/05/2017,2,SegmentationTest,21,1,p,0,p,288,322455,gedino,p,gekalu,SegmentationProc,gedino
104,1,1,21,female,1,hebrew,11/05/2017,2,SegmentationTest,22,1,q,0,q,1179,327159,tobelu,q,kibeno,SegmentationProc,tobelu
104,1,1,21,female,1,hebrew,11/05/2017,2,SegmentationTest,23,1,q,0,q,622,331295,nalobi,q,tomubi,SegmentationProc,nalobi
104,1,1,21,female,1,hebrew,11/05/2017,2,SegmentationTest,24,1,p,0,p,675,335495,kimuga,p,nadime,SegmentationProc,kimuga
104,1,1,21,female,1,hebrew,11/05/2017,2,SegmentationTest,25,0,p,0,q,820,339839,dukame,p,duloga,SegmentationProc,dukame
105,1,4,31,male,1,hebrew,11/06/2017,1,exposureProc,1,,,,,,,,,,SoundExposure,
105,1,4,31,male,1,hebrew,11/06/2017,2,SegmentationTest,1,1,p,0,p,1329,164464,gedino,p,kibeno,SegmentationProc,gedino
105,1,4,31,male,1,hebrew,11/06/2017,2,SegmentationTest,2,1,q,0,q,804,168792,dukame,q,gekalu,SegmentationProc,dukame
105,1,4,31,male,1,hebrew,11/06/2017,2,SegmentationTest,3,1,p,0,p,629,172936,kimuga,p,duloga,SegmentationProc,kimuga
105,1,4,31,male,1,hebrew,11/06/2017,2,SegmentationTest,4,1,q,0,q,634,177088,nalobi,q,nadime,SegmentationProc,nalobi
105,1,4,31,male,1,hebrew,11/06/2017,2,SegmentationTest,5,1,q,0,q,699,181312,tobelu,q,tomubi,SegmentationProc,tobelu
105,1,4,31,male,1,hebrew,11/06/2017,2,SegmentationTest,6,1,p,0,p,1157,185983,nalobi,p,duloga,SegmentationProc,nalobi
105,1,4,31,male,1,hebrew,11/06/2017,2,SegmentationTest,7,1,q,0,q,821,190327,kimuga,q,gekalu,SegmentationProc,kimuga
105,1,4,31,male,1,hebrew,11/06/2017,2,SegmentationTest,8,0,p,0,q,779,194631,dukame,p,kibeno,SegmentationProc,dukame
105,1,4,31,male,1,hebrew,11/06/2017,2,SegmentationTest,9,1,p,0,p,990,199135,gedino,p,tomubi,SegmentationProc,gedino
105,1,4,31,male,1,hebrew,11/06/2017,2,SegmentationTest,10,1,q,0,q,611,203263,tobelu,q,nadime,SegmentationProc,tobelu
105,1,4,31,male,1,hebrew,11/06/2017,2,SegmentationTest,11,1,q,0,q,614,207399,nalobi,q,gekalu,SegmentationProc,nalobi
105,1,4,31,male,1,hebrew,11/06/2017,2,SegmentationTest,12,1,q,0,q,1073,211991,dukame,q,tomubi,SegmentationProc,dukame
105,1,4,31,male,1,hebrew,11/06/2017,2,SegmentationTest,13,1,q,0,q,1399,216903,kimuga,q,kibeno,SegmentationProc,kimuga
105,1,4,31,male,1,hebrew,11/06/2017,2,SegmentationTest,14,1,p,0,p,471,220895,gedino,p,nadime,SegmentationProc,gedino
105,1,4,31,male,1,hebrew,11/06/2017,2,SegmentationTest,15,1,p,0,p,973,225383,tobelu,p,duloga,SegmentationProc,tobelu
105,1,4,31,male,1,hebrew,11/06/2017,2,SegmentationTest,16,1,q,0,q,720,229623,dukame,q,nadime,SegmentationProc,dukame
105,1,4,31,male,1,hebrew,11/06/2017,2,SegmentationTest,17,1,q,0,q,503,233646,tobelu,q,gekalu,SegmentationProc,tobelu
105,1,4,31,male,1,hebrew,11/06/2017,2,SegmentationTest,18,1,q,0,q,525,237694,gedino,q,duloga,SegmentationProc,gedino
105,1,4,31,male,1,hebrew,11/06/2017,2,SegmentationTest,19,1,p,0,p,373,241582,kimuga,p,tomubi,SegmentationProc,kimuga
105,1,4,31,male,1,hebrew,11/06/2017,2,SegmentationTest,20,1,p,0,p,1112,246214,nalobi,p,kibeno,SegmentationProc,nalobi
105,1,4,31,male,1,hebrew,11/06/2017,2,SegmentationTest,21,1,p,0,p,430,250158,gedino,p,gekalu,SegmentationProc,gedino
105,1,4,31,male,1,hebrew,11/06/2017,2,SegmentationTest,22,1,q,0,q,1724,255398,tobelu,q,kibeno,SegmentationProc,tobelu
105,1,4,31,male,1,hebrew,11/06/2017,2,SegmentationTest,23,1,q,0,q,436,259350,nalobi,q,tomubi,SegmentationProc,nalobi
105,1,4,31,male,1,hebrew,11/06/2017,2,SegmentationTest,24,0,p,0,q,596,263470,kimuga,p,nadime,SegmentationProc,kimuga
105,1,4,31,male,1,hebrew,11/06/2017,2,SegmentationTest,25,0,p,0,q,572,267566,dukame,p,duloga,SegmentationProc,dukame
106,1,9,24,female,1,hebrew,11/07/2017,1,exposureProc,1,,,,,,,,,,SoundExposure,
106,1,9,24,female,1,hebrew,11/07/2017,2,SegmentationTest,1,1,q,0,q,798,183143,dukame,q,gekalu,SegmentationProc,dukame
106,1,9,24,female,1,hebrew,11/07/2017,2,SegmentationTest,2,1,q,0,q,581,187247,nalobi,q,nadime,SegmentationProc,nalobi
106,1,9,24,female,1,hebrew,11/07/2017,2,SegmentationTest,3,1,p,0,p,862,191631,kimuga,p,duloga,SegmentationProc,kimuga
106,1,9,24,female,1,hebrew,11/07/2017,2,SegmentationTest,4,0,q,0,p,915,196071,tobelu,q,tomubi,SegmentationProc,tobelu
106,1,9,24,female,1,hebrew,11/07/2017,2,SegmentationTest,5,0,p,0,q,1221,200814,gedino,p,kibeno,SegmentationProc,gedino
106,1,9,24,female,1,hebrew,11/07/2017,2,SegmentationTest,6,1,p,0,p,675,205006,nalobi,p,duloga,SegmentationProc,nalobi
106,1,9,24,female,1,hebrew,11/07/2017,2,SegmentationTest,7,1,q,0,q,368,208886,kimuga,q,gekalu,SegmentationProc,kimuga
106,1,9,24,female,1,hebrew,11/07/2017,2,SegmentationTest,8,1,p,0,p,1842,214246,dukame,p,kibeno,SegmentationProc,dukame
106,1,9,24,female,1,hebrew,11/07/2017,2,SegmentationTest,9,0,p,0,q,1119,218878,gedino,p,tomubi,SegmentationProc,gedino
106,1,9,24,female,1,hebrew,11/07/2017,2,SegmentationTest,10,1,q,0,q,1450,223846,tobelu,q,nadime,SegmentationProc,tobelu
106,1,9,24,female,1,hebrew,11/07/2017,2,SegmentationTest,11,1,q,0,q,447,227814,nalobi,q,gekalu,SegmentationProc,nalobi
106,1,9,24,female,1,hebrew,11/07/2017,2,SegmentationTest,12,0,q,0,p,477,231814,dukame,q,tomubi,SegmentationProc,dukame
106,1,9,24,female,1,hebrew,11/07/2017,2,SegmentationTest,13,1,q,0,q,345,235686,kimuga,q,kibeno,SegmentationProc,kimuga
106,1,9,24,female,1,hebrew,11/07/2017,2,SegmentationTest,14,0,p,0,q,579,239790,gedino,p,nadime,SegmentationProc,gedino
106,1,9,24,female,1,hebrew,11/07/2017,2,SegmentationTest,15,0,p,0,q,612,243926,tobelu,p,duloga,SegmentationProc,tobelu
106,1,9,24,female,1,hebrew,11/07/2017,2,SegmentationTest,16,1,q,0,q,1043,248494,dukame,q,nadime,SegmentationProc,dukame
106,1,9,24,female,1,hebrew,11/07/2017,2,SegmentationTest,17,1,q,0,q,1041,253046,tobelu,q,gekalu,SegmentationProc,tobelu
106,1,9,24,female,1,hebrew,11/07/2017,2,SegmentationTest,18,0,q,0,p,655,257214,gedino,q,duloga,SegmentationProc,gedino
106,1,9,24,female,1,hebrew,11/07/2017,2,SegmentationTest,19,1,p,0,p,117,260846,kimuga,p,tomubi,SegmentationProc,kimuga
106,1,9,24,female,1,hebrew,11/07/2017,2,SegmentationTest,20,1,p,0,p,1393,265758,nalobi,p,kibeno,SegmentationProc,nalobi
106,1,9,24,female,1,hebrew,11/07/2017,2,SegmentationTest,21,1,p,0,p,320,269590,gedino,p,gekalu,SegmentationProc,gedino
106,1,9,24,female,1,hebrew,11/07/2017,2,SegmentationTest,22,1,q,0,q,2684,275790,tobelu,q,kibeno,SegmentationProc,tobelu
106,1,9,24,female,1,hebrew,11/07/2017,2,SegmentationTest,23,1,q,0,q,949,280261,nalobi,q,tomubi,SegmentationProc,nalobi
106,1,9,24,female,1,hebrew,11/07/2017,2,SegmentationTest,24,1,p,0,p,607,284389,kimuga,p,nadime,SegmentationProc,kimuga
106,1,9,24,female,1,hebrew,11/07/2017,2,SegmentationTest,25,0,p,0,q,1096,288998,dukame,p,duloga,SegmentationProc,dukame
107,1,11,22,female,1,hebrew,11/09/2017,1,exposureProc,1,,,,,,,,,,SoundExposure,
107,1,11,22,female,1,hebrew,11/09/2017,2,SegmentationTest,1,1,p,0,p,1964,208944,gedino,p,kibeno,SegmentationProc,gedino
107,1,11,22,female,1,hebrew,11/09/2017,2,SegmentationTest,2,1,q,0,q,2524,214992,dukame,q,gekalu,SegmentationProc,dukame
107,1,11,22,female,1,hebrew,11/09/2017,2,SegmentationTest,3,0,p,0,q,429,218936,kimuga,p,duloga,SegmentationProc,kimuga
107,1,11,22,female,1,hebrew,11/09/2017,2,SegmentationTest,4,1,q,0,q,508,222968,tobelu,q,tomubi,SegmentationProc,tobelu
107,1,11,22,female,1,hebrew,11/09/2017,2,SegmentationTest,5,1,q,0,q,872,227352,nalobi,q,nadime,SegmentationProc,nalobi
107,1,11,22,female,1,hebrew,11/09/2017,2,SegmentationTest,6,1,q,0,q,1845,232712,kimuga,q,gekalu,SegmentationProc,kimuga
107,1,11,22,female,1,hebrew,11/09/2017,2,SegmentationTest,7,1,p,0,p,737,236976,dukame,p,kibeno,SegmentationProc,dukame
107,1,11,22,female,1,hebrew,11/09/2017,2,SegmentationTest,8,1,p,0,p,564,241056,gedino,p,tomubi,SegmentationProc,gedino
107,1,11,22,female,1,hebrew,11/09/2017,2,SegmentationTest,9,0,q,0,p,1405,245984,tobelu,q,nadime,SegmentationProc,tobelu
107,1,11,22,female,1,hebrew,11/09/2017,2,SegmentationTest,10,1,p,0,p,724,250224,nalobi,p,duloga,SegmentationProc,nalobi
107,1,11,22,female,1,hebrew,11/09/2017,2,SegmentationTest,11,0,q,0,p,5030,258767,dukame,q,tomubi,SegmentationProc,dukame
107,1,11,22,female,1,hebrew,11/09/2017,2,SegmentationTest,12,1,q,0,q,377,262671,kimuga,q,kibeno,SegmentationProc,kimuga
107,1,11,22,female,1,hebrew,11/09/2017,2,SegmentationTest,13,1,p,0,p,361,266559,gedino,p,nadime,SegmentationProc,gedino
107,1,11,22,female,1,hebrew,11/09/2017,2,SegmentationTest,14,0,p,0,q,675,270759,tobelu,p,duloga,SegmentationProc,tobelu
107,1,11,22,female,1,hebrew,11/09/2017,2,SegmentationTest,15,1,q,0,q,336,274607,nalobi,q,gekalu,SegmentationProc,nalobi
107,1,11,22,female,1,hebrew,11/09/2017,2,SegmentationTest,16,1,q,0,q,274,278399,dukame,q,nadime,SegmentationProc,dukame
107,1,11,22,female,1,hebrew,11/09/2017,2,SegmentationTest,17,1,q,0,q,392,282303,tobelu,q,gekalu,SegmentationProc,tobelu
107,1,11,22,female,1,hebrew,11/09/2017,2,SegmentationTest,18,1,q,0,q,345,286159,gedino,q,duloga,SegmentationProc,gedino
107,1,11,22,female,1,hebrew,11/09/2017,2,SegmentationTest,19,0,p,0,q,299,289983,kimuga,p,tomubi,SegmentationProc,kimuga
107,1,11,22,female,1,hebrew,11/09/2017,2,SegmentationTest,20,1,p,0,p,151,293655,nalobi,p,kibeno,SegmentationProc,nalobi
107,1,11,22,female,1,hebrew,11/09/2017,2,SegmentationTest,21,1,p,0,p,153,297327,gedino,p,gekalu,SegmentationProc,gedino
107,1,11,22,female,1,hebrew,11/09/2017,2,SegmentationTest,22,1,q,0,q,291,301135,tobelu,q,kibeno,SegmentationProc,tobelu
107,1,11,22,female,1,hebrew,11/09/2017,2,SegmentationTest,23,1,q,0,q,288,304935,nalobi,q,tomubi,SegmentationProc,nalobi
107,1,11,22,female,1,hebrew,11/09/2017,2,SegmentationTest,24,0,p,0,q,1837,310287,kimuga,p,nadime,SegmentationProc,kimuga
107,1,11,22,female,1,hebrew,11/09/2017,2,SegmentationTest,25,1,p,0,p,242,314047,dukame,p,duloga,SegmentationProc,dukame
108,1,6,22,female,1,hebrew,11/09/2017,1,exposureProc,1,,,,,,,,,,SoundExposure,
108,1,6,22,female,1,hebrew,11/09/2017,2,SegmentationTest,1,1,p,0,p,522,158784,kimuga,p,duloga,SegmentationProc,kimuga
108,1,6,22,female,1,hebrew,11/09/2017,2,SegmentationTest,2,1,p,0,p,861,163160,gedino,p,kibeno,SegmentationProc,gedino
108,1,6,22,female,1,hebrew,11/09/2017,2,SegmentationTest,3,1,q,0,q,1418,168104,nalobi,q,nadime,SegmentationProc,nalobi
108,1,6,22,female,1,hebrew,11/09/2017,2,SegmentationTest,4,1,q,0,q,88,171712,tobelu,q,tomubi,SegmentationProc,tobelu
108,1,6,22,female,1,hebrew,11/09/2017,2,SegmentationTest,5,1,q,0,q,429,175656,dukame,q,gekalu,SegmentationProc,dukame
108,1,6,22,female,1,hebrew,11/09/2017,2,SegmentationTest,6,1,p,0,p,252,179432,nalobi,p,duloga,SegmentationProc,nalobi
108,1,6,22,female,1,hebrew,11/09/2017,2,SegmentationTest,7,1,q,0,q,2225,185175,kimuga,q,gekalu,SegmentationProc,kimuga
108,1,6,22,female,1,hebrew,11/09/2017,2,SegmentationTest,8,0,p,0,q,4167,192855,dukame,p,kibeno,SegmentationProc,dukame
108,1,6,22,female,1,hebrew,11/09/2017,2,SegmentationTest,9,1,p,0,p,861,197239,gedino,p,tomubi,SegmentationProc,gedino
108,1,6,22,female,1,hebrew,11/09/2017,2,SegmentationTest,10,0,q,0,p,1986,202751,tobelu,q,nadime,SegmentationProc,tobelu
108,1,6,22,female,1,hebrew,11/09/2017,2,SegmentationTest,11,1,q,0,q,393,206663,nalobi,q,gekalu,SegmentationProc,nalobi
108,1,6,22,female,1,hebrew,11/09/2017,2,SegmentationTest,12,1,q,0,q,778,210951,dukame,q,tomubi,SegmentationProc,dukame
108,1,6,22,female,1,hebrew,11/09/2017,2,SegmentationTest,13,1,q,0,q,1138,215615,kimuga,q,kibeno,SegmentationProc,kimuga
108,1,6,22,female,1,hebrew,11/09/2017,2,SegmentationTest,14,1,p,0,p,1220,220351,gedino,p,nadime,SegmentationProc,gedino
108,1,6,22,female,1,hebrew,11/09/2017,2,SegmentationTest,15,0,p,0,q,5187,229055,tobelu,p,duloga,SegmentationProc,tobelu
108,1,6,22,female,1,hebrew,11/09/2017,2,SegmentationTest,16,1,q,0,q,383,232959,dukame,q,nadime,SegmentationProc,dukame
108,1,6,22,female,1,hebrew,11/09/2017,2,SegmentationTest,17,1,q,0,q,1216,237695,tobelu,q,gekalu,SegmentationProc,tobelu
108,1,6,22,female,1,hebrew,11/09/2017,2,SegmentationTest,18,0,q,0,p,671,241887,gedino,q,duloga,SegmentationProc,gedino
108,1,6,22,female,1,hebrew,11/09/2017,2,SegmentationTest,19,1,p,0,p,2459,247862,kimuga,p,tomubi,SegmentationProc,kimuga
108,1,6,22,female,1,hebrew,11/09/2017,2,SegmentationTest,20,1,p,0,p,2463,253838,nalobi,p,kibeno,SegmentationProc,nalobi
108,1,6,22,female,1,hebrew,11/09/2017,2,SegmentationTest,21,0,p,0,q,9539,266902,gedino,p,gekalu,SegmentationProc,gedino
108,1,6,22,female,1,hebrew,11/09/2017,2,SegmentationTest,22,1,q,0,q,589,271014,tobelu,q,kibeno,SegmentationProc,tobelu
108,1,6,22,female,1,hebrew,11/09/2017,2,SegmentationTest,23,0,q,0,p,262,274790,nalobi,q,tomubi,SegmentationProc,nalobi
108,1,6,22,female,1,hebrew,11/09/2017,2,SegmentationTest,24,1,p,0,p,1235,279550,kimuga,p,nadime,SegmentationProc,kimuga
108,1,6,22,female,1,hebrew,11/09/2017,2,SegmentationTest,25,0,p,0,q,497,283566,dukame,p,duloga,SegmentationProc,dukame
109,1,5,22,female,1,hebrew,11/09/2017,1,exposureProc,1,,,,,,,,,,SoundExposure,
109,1,5,22,female,1,hebrew,11/09/2017,2,SegmentationTest,1,1,q,0,q,553,169080,tobelu,q,tomubi,SegmentationProc,tobelu
109,1,5,22,female,1,hebrew,11/09/2017,2,SegmentationTest,2,0,p,0,q,1011,173608,kimuga,p,duloga,SegmentationProc,kimuga
109,1,5,22,female,1,hebrew,11/09/2017,2,SegmentationTest,3,1,p,0,p,498,177632,gedino,p,kibeno,SegmentationProc,gedino
109,1,5,22,female,1,hebrew,11/09/2017,2,SegmentationTest,4,0,q,0,p,325,181479,nalobi,q,nadime,SegmentationProc,nalobi
109,1,5,22,female,1,hebrew,11/09/2017,2,SegmentationTest,5,1,q,0,q,240,185231,dukame,q,gekalu,SegmentationProc,dukame
109,1,5,22,female,1,hebrew,11/09/2017,2,SegmentationTest,6,0,p,0,q,1247,189991,nalobi,p,duloga,SegmentationProc,nalobi
109,1,5,22,female,1,hebrew,11/09/2017,2,SegmentationTest,7,1,q,0,q,453,193967,kimuga,q,gekalu,SegmentationProc,kimuga
109,1,5,22,female,1,hebrew,11/09/2017,2,SegmentationTest,8,1,p,0,p,322,197807,dukame,p,kibeno,SegmentationProc,dukame
109,1,5,22,female,1,hebrew,11/09/2017,2,SegmentationTest,9,1,p,0,p,742,202063,gedino,p,tomubi,SegmentationProc,gedino
109,1,5,22,female,1,hebrew,11/09/2017,2,SegmentationTest,10,0,q,0,p,296,205871,tobelu,q,nadime,SegmentationProc,tobelu
109,1,5,22,female,1,hebrew,11/09/2017,2,SegmentationTest,11,1,q,0,q,268,209663,nalobi,q,gekalu,SegmentationProc,nalobi
109,1,5,22,female,1,hebrew,11/09/2017,2,SegmentationTest,12,1,q,0,q,610,213791,dukame,q,tomubi,SegmentationProc,dukame
109,1,5,22,female,1,hebrew,11/09/2017,2,SegmentationTest,13,1,q,0,q,746,218047,kimuga,q,kibeno,SegmentationProc,kimuga
109,1,5,22,female,1,hebrew,11/09/2017,2,SegmentationTest,14,1,p,0,p,691,222263,gedino,p,nadime,SegmentationProc,gedino
109,1,5,22,female,1,hebrew,11/09/2017,2,SegmentationTest,15,0,p,0,q,1024,226799,tobelu,p,duloga,SegmentationProc,tobelu
109,1,5,22,female,1,hebrew,11/09/2017,2,SegmentationTest,16,0,q,0,p,414,230727,dukame,q,nadime,SegmentationProc,dukame
109,1,5,22,female,1,hebrew,11/09/2017,2,SegmentationTest,17,1,q,0,q,286,234535,tobelu,q,gekalu,SegmentationProc,tobelu
109,1,5,22,female,1,hebrew,11/09/2017,2,SegmentationTest,18,1,q,0,q,307,238359,gedino,q,duloga,SegmentationProc,gedino
109,1,5,22,female,1,hebrew,11/09/2017,2,SegmentationTest,19,0,p,0,q,1207,243079,kimuga,p,tomubi,SegmentationProc,kimuga
109,1,5,22,female,1,hebrew,11/09/2017,2,SegmentationTest,20,1,p,0,p,277,246870,nalobi,p,kibeno,SegmentationProc,nalobi
109,1,5,22,female,1,hebrew,11/09/2017,2,SegmentationTest,21,1,p,0,p,458,250854,gedino,p,gekalu,SegmentationProc,gedino
109,1,5,22,female,1,hebrew,11/09/2017,2,SegmentationTest,22,1,q,0,q,520,254886,tobelu,q,kibeno,SegmentationProc,tobelu
109,1,5,22,female,1,hebrew,11/09/2017,2,SegmentationTest,23,1,q,0,q,323,258726,nalobi,q,tomubi,SegmentationProc,nalobi
109,1,5,22,female,1,hebrew,11/09/2017,2,SegmentationTest,24,0,p,0,q,182,262422,kimuga,p,nadime,SegmentationProc,kimuga
109,1,5,22,female,1,hebrew,11/09/2017,2,SegmentationTest,25,0,p,0,q,631,266574,dukame,p,duloga,SegmentationProc,dukame
110,1,3,23,female,1,hebrew,11/09/2017,1,exposureProc,1,,,,,,,,,,SoundExposure,
110,1,3,23,female,1,hebrew,11/09/2017,2,SegmentationTest,1,1,q,0,q,875,178750,tobelu,q,tomubi,SegmentationProc,tobelu
110,1,3,23,female,1,hebrew,11/09/2017,2,SegmentationTest,2,1,p,0,p,304,182566,gedino,p,kibeno,SegmentationProc,gedino
110,1,3,23,female,1,hebrew,11/09/2017,2,SegmentationTest,3,1,q,0,q,900,186982,dukame,q,gekalu,SegmentationProc,dukame
110,1,3,23,female,1,hebrew,11/09/2017,2,SegmentationTest,4,1,p,0,p,1167,191670,kimuga,p,duloga,SegmentationProc,kimuga
110,1,3,23,female,1,hebrew,11/09/2017,2,SegmentationTest,5,1,q,0,q,3688,198878,nalobi,q,nadime,SegmentationProc,nalobi
110,1,3,23,female,1,hebrew,11/09/2017,2,SegmentationTest,6,1,q,0,q,1745,204141,kimuga,q,gekalu,SegmentationProc,kimuga
110,1,3,23,female,1,hebrew,11/09/2017,2,SegmentationTest,7,1,p,0,p,377,208045,dukame,p,kibeno,SegmentationProc,dukame
110,1,3,23,female,1,hebrew,11/09/2017,2,SegmentationTest,8,1,p,0,p,714,212285,gedino,p,tomubi,SegmentationProc,gedino
110,1,3,23,female,1,hebrew,11/09/2017,2,SegmentationTest,9,1,q,0,q,517,216325,tobelu,q,nadime,SegmentationProc,tobelu
110,1,3,23,female,1,hebrew,11/09/2017,2,SegmentationTest,10,0,p,0,q,5128,224973,nalobi,p,duloga,SegmentationProc,nalobi
110,1,3,23,female,1,hebrew,11/09/2017,2,SegmentationTest,11,1,q,0,q,519,229005,dukame,q,tomubi,SegmentationProc,dukame
110,1,3,23,female,1,hebrew,11/09/2017,2,SegmentationTest,12,1,q,0,q,1106,233629,kimuga,q,kibeno,SegmentationProc,kimuga
110,1,3,23,female,1,hebrew,11/09/2017,2,SegmentationTest,13,1,p,0,p,1150,238293,gedino,p,nadime,SegmentationProc,gedino
110,1,3,23,female,1,hebrew,11/09/2017,2,SegmentationTest,14,1,p,0,p,1591,243405,tobelu,p,duloga,SegmentationProc,tobelu
110,1,3,23,female,1,hebrew,11/09/2017,2,SegmentationTest,15,0,q,0,p,2206,249125,nalobi,q,gekalu,SegmentationProc,nalobi
110,1,3,23,female,1,hebrew,11/09/2017,2,SegmentationTest,16,1,q,0,q,245,252885,dukame,q,nadime,SegmentationProc,dukame
110,1,3,23,female,1,hebrew,11/09/2017,2,SegmentationTest,17,1,q,0,q,3411,259821,tobelu,q,gekalu,SegmentationProc,tobelu
110,1,3,23,female,1,hebrew,11/09/2017,2,SegmentationTest,18,1,q,0,q,920,264253,gedino,q,duloga,SegmentationProc,gedino
110,1,3,23,female,1,hebrew,11/09/2017,2,SegmentationTest,19,1,p,0,p,1531,269301,kimuga,p,tomubi,SegmentationProc,kimuga
110,1,3,23,female,1,hebrew,11/09/2017,2,SegmentationTest,20,0,p,0,q,1108,273933,nalobi,p,kibeno,SegmentationProc,nalobi
110,1,3,23,female,1,hebrew,11/09/2017,2,SegmentationTest,21,1,p,0,p,2744,280189,gedino,p,gekalu,SegmentationProc,gedino
110,1,3,23,female,1,hebrew,11/09/2017,2,SegmentationTest,22,1,q,0,q,2672,286373,tobelu,q,kibeno,SegmentationProc,tobelu
110,1,3,23,female,1,hebrew,11/09/2017,2,SegmentationTest,23,0,q,0,p,1899,291789,nalobi,q,tomubi,SegmentationProc,nalobi
110,1,3,23,female,1,hebrew,11/09/2017,2,SegmentationTest,24,1,p,0,p,694,296005,kimuga,p,nadime,SegmentationProc,kimuga
110,1,3,23,female,1,hebrew,11/09/2017,2,SegmentationTest,25,1,p,0,p,330,299861,dukame,p,duloga,SegmentationProc,dukame
111,1,10,23,female,1,hebrew,11/09/2017,1,exposureProc,1,,,,,,,,,,SoundExposure,
111,1,10,23,female,1,hebrew,11/09/2017,2,SegmentationTest,1,1,q,0,q,525,167104,nalobi,q,nadime,SegmentationProc,nalobi
111,1,10,23,female,1,hebrew,11/09/2017,2,SegmentationTest,2,1,q,0,q,848,171464,tobelu,q,tomubi,SegmentationProc,tobelu
111,1,10,23,female,1,hebrew,11/09/2017,2,SegmentationTest,3,1,p,0,p,1126,176112,gedino,p,kibeno,SegmentationProc,gedino
111,1,10,23,female,1,hebrew,11/09/2017,2,SegmentationTest,4,0,p,0,q,1344,180968,kimuga,p,duloga,SegmentationProc,kimuga
111,1,10,23,female,1,hebrew,11/09/2017,2,SegmentationTest,5,1,q,0,q,234,184728,dukame,q,gekalu,SegmentationProc,dukame
111,1,10,23,female,1,hebrew,11/09/2017,2,SegmentationTest,6,0,p,0,q,848,189096,nalobi,p,duloga,SegmentationProc,nalobi
111,1,10,23,female,1,hebrew,11/09/2017,2,SegmentationTest,7,1,q,0,q,2198,194816,kimuga,q,gekalu,SegmentationProc,kimuga
111,1,10,23,female,1,hebrew,11/09/2017,2,SegmentationTest,8,0,p,0,q,244,198584,dukame,p,kibeno,SegmentationProc,dukame
111,1,10,23,female,1,hebrew,11/09/2017,2,SegmentationTest,9,1,p,0,p,1122,203231,gedino,p,tomubi,SegmentationProc,gedino
111,1,10,23,female,1,hebrew,11/09/2017,2,SegmentationTest,10,1,q,0,q,1876,208623,tobelu,q,nadime,SegmentationProc,tobelu
111,1,10,23,female,1,hebrew,11/09/2017,2,SegmentationTest,11,1,q,0,q,1328,213463,nalobi,q,gekalu,SegmentationProc,nalobi
111,1,10,23,female,1,hebrew,11/09/2017,2,SegmentationTest,12,1,q,0,q,274,217263,dukame,q,tomubi,SegmentationProc,dukame
111,1,10,23,female,1,hebrew,11/09/2017,2,SegmentationTest,13,0,q,0,p,3136,223911,kimuga,q,kibeno,SegmentationProc,kimuga
111,1,10,23,female,1,hebrew,11/09/2017,2,SegmentationTest,14,0,p,0,q,496,227927,gedino,p,nadime,SegmentationProc,gedino
111,1,10,23,female,1,hebrew,11/09/2017,2,SegmentationTest,15,0,p,0,q,2012,233463,tobelu,p,duloga,SegmentationProc,tobelu
111,1,10,23,female,1,hebrew,11/09/2017,2,SegmentationTest,16,1,q,0,q,402,237391,dukame,q,nadime,SegmentationProc,dukame
111,1,10,23,female,1,hebrew,11/09/2017,2,SegmentationTest,17,1,q,0,q,122,241031,tobelu,q,gekalu,SegmentationProc,tobelu
111,1,10,23,female,1,hebrew,11/09/2017,2,SegmentationTest,18,1,q,0,q,77,244623,gedino,q,duloga,SegmentationProc,gedino
111,1,10,23,female,1,hebrew,11/09/2017,2,SegmentationTest,19,1,p,0,p,170,248319,kimuga,p,tomubi,SegmentationProc,kimuga
111,1,10,23,female,1,hebrew,11/09/2017,2,SegmentationTest,20,1,p,0,p,492,252327,nalobi,p,kibeno,SegmentationProc,nalobi
111,1,10,23,female,1,hebrew,11/09/2017,2,SegmentationTest,21,0,p,0,q,896,256735,gedino,p,gekalu,SegmentationProc,gedino
111,1,10,23,female,1,hebrew,11/09/2017,2,SegmentationTest,22,1,q,0,q,324,260583,tobelu,q,kibeno,SegmentationProc,tobelu
111,1,10,23,female,1,hebrew,11/09/2017,2,SegmentationTest,23,1,q,0,q,295,264391,nalobi,q,tomubi,SegmentationProc,nalobi
111,1,10,23,female,1,hebrew,11/09/2017,2,SegmentationTest,24,0,p,0,q,1322,269238,kimuga,p,nadime,SegmentationProc,kimuga
111,1,10,23,female,1,hebrew,11/09/2017,2,SegmentationTest,25,1,p,0,p,885,273638,dukame,p,duloga,SegmentationProc,dukame
112,1,4,22,female,1,hebrew,11/09/2017,1,exposureProc,1,,,,,,,,,,SoundExposure,
112,1,4,22,female,1,hebrew,11/09/2017,2,SegmentationTest,1,0,q,0,p,1573,176011,nalobi,q,nadime,SegmentationProc,nalobi
112,1,4,22,female,1,hebrew,11/09/2017,2,SegmentationTest,2,1,q,0,q,390,179915,dukame,q,gekalu,SegmentationProc,dukame
112,1,4,22,female,1,hebrew,11/09/2017,2,SegmentationTest,3,0,q,0,p,286,183715,tobelu,q,tomubi,SegmentationProc,tobelu
112,1,4,22,female,1,hebrew,11/09/2017,2,SegmentationTest,4,1,p,0,p,298,187530,kimuga,p,duloga,SegmentationProc,kimuga
112,1,4,22,female,1,hebrew,11/09/2017,2,SegmentationTest,5,1,p,0,p,454,191506,gedino,p,kibeno,SegmentationProc,gedino
112,1,4,22,female,1,hebrew,11/09/2017,2,SegmentationTest,6,0,p,0,q,468,195490,nalobi,p,duloga,SegmentationProc,nalobi
112,1,4,22,female,1,hebrew,11/09/2017,2,SegmentationTest,7,1,q,0,q,233,199242,kimuga,q,gekalu,SegmentationProc,kimuga
112,1,4,22,female,1,hebrew,11/09/2017,2,SegmentationTest,8,1,p,0,p,40,202802,dukame,p,kibeno,SegmentationProc,dukame
112,1,4,22,female,1,hebrew,11/09/2017,2,SegmentationTest,9,1,p,0,p,247,206562,gedino,p,tomubi,SegmentationProc,gedino
112,1,4,22,female,1,hebrew,11/09/2017,2,SegmentationTest,10,0,q,0,p,413,210498,tobelu,q,nadime,SegmentationProc,tobelu
112,1,4,22,female,1,hebrew,11/09/2017,2,SegmentationTest,11,0,q,0,p,413,214434,nalobi,q,gekalu,SegmentationProc,nalobi
112,1,4,22,female,1,hebrew,11/09/2017,2,SegmentationTest,12,0,q,0,p,1732,219690,dukame,q,tomubi,SegmentationProc,dukame
112,1,4,22,female,1,hebrew,11/09/2017,2,SegmentationTest,13,1,q,0,q,270,223482,kimuga,q,kibeno,SegmentationProc,kimuga
112,1,4,22,female,1,hebrew,11/09/2017,2,SegmentationTest,14,1,p,0,p,155,227154,gedino,p,nadime,SegmentationProc,gedino
112,1,4,22,female,1,hebrew,11/09/2017,2,SegmentationTest,15,1,p,0,p,437,231106,tobelu,p,duloga,SegmentationProc,tobelu
112,1,4,22,female,1,hebrew,11/09/2017,2,SegmentationTest,16,1,q,0,q,612,235234,dukame,q,nadime,SegmentationProc,dukame
112,1,4,22,female,1,hebrew,11/09/2017,2,SegmentationTest,17,0,q,0,p,355,239114,tobelu,q,gekalu,SegmentationProc,tobelu
112,1,4,22,female,1,hebrew,11/09/2017,2,SegmentationTest,18,1,q,0,q,2869,245498,gedino,q,duloga,SegmentationProc,gedino
112,1,4,22,female,1,hebrew,11/09/2017,2,SegmentationTest,19,1,p,0,p,279,249297,kimuga,p,tomubi,SegmentationProc,kimuga
112,1,4,22,female,1,hebrew,11/09/2017,2,SegmentationTest,20,0,p,0,q,396,253217,nalobi,p,kibeno,SegmentationProc,nalobi
112,1,4,22,female,1,hebrew,11/09/2017,2,SegmentationTest,21,1,p,0,p,492,257233,gedino,p,gekalu,SegmentationProc,gedino
112,1,4,22,female,1,hebrew,11/09/2017,2,SegmentationTest,22,1,q,0,q,728,261473,tobelu,q,kibeno,SegmentationProc,tobelu
112,1,4,22,female,1,hebrew,11/09/2017,2,SegmentationTest,23,1,q,0,q,643,265641,nalobi,q,tomubi,SegmentationProc,nalobi
112,1,4,22,female,1,hebrew,11/09/2017,2,SegmentationTest,24,0,p,0,q,409,269561,kimuga,p,nadime,SegmentationProc,kimuga
112,1,4,22,female,1,hebrew,11/09/2017,2,SegmentationTest,25,1,p,0,p,1497,274569,dukame,p,duloga,SegmentationProc,dukame
113,1,5,22,female,1,hebrew,11/12/2017,1,exposureProc,1,,,,,,,,,,SoundExposure,
113,1,5,22,female,1,hebrew,11/12/2017,2,SegmentationTest,1,1,q,0,q,1013,233875,dukame,q,gekalu,SegmentationProc,dukame
113,1,5,22,female,1,hebrew,11/12/2017,2,SegmentationTest,2,0,p,0,q,1355,238755,kimuga,p,duloga,SegmentationProc,kimuga
113,1,5,22,female,1,hebrew,11/12/2017,2,SegmentationTest,3,1,q,0,q,1269,243539,nalobi,q,nadime,SegmentationProc,nalobi
113,1,5,22,female,1,hebrew,11/12/2017,2,SegmentationTest,4,0,p,0,q,1065,248123,gedino,p,kibeno,SegmentationProc,gedino
113,1,5,22,female,1,hebrew,11/12/2017,2,SegmentationTest,5,1,q,0,q,830,252475,tobelu,q,tomubi,SegmentationProc,tobelu
113,1,5,22,female,1,hebrew,11/12/2017,2,SegmentationTest,6,1,p,0,p,2244,258243,nalobi,p,duloga,SegmentationProc,nalobi
113,1,5,22,female,1,hebrew,11/12/2017,2,SegmentationTest,7,1,q,0,q,721,262475,kimuga,q,gekalu,SegmentationProc,kimuga
113,1,5,22,female,1,hebrew,11/12/2017,2,SegmentationTest,8,0,p,0,q,1371,267362,dukame,p,kibeno,SegmentationProc,dukame
113,1,5,22,female,1,hebrew,11/12/2017,2,SegmentationTest,9,1,p,0,p,1132,272010,gedino,p,tomubi,SegmentationProc,gedino
113,1,5,22,female,1,hebrew,11/12/2017,2,SegmentationTest,10,1,q,0,q,670,276202,tobelu,q,nadime,SegmentationProc,tobelu
113,1,5,22,female,1,hebrew,11/12/2017,2,SegmentationTest,11,1,q,0,q,3763,283482,nalobi,q,gekalu,SegmentationProc,nalobi
113,1,5,22,female,1,hebrew,11/12/2017,2,SegmentationTest,12,1,q,0,q,697,287706,dukame,q,tomubi,SegmentationProc,dukame
113,1,5,22,female,1,hebrew,11/12/2017,2,SegmentationTest,13,1,q,0,q,541,291770,kimuga,q,kibeno,SegmentationProc,kimuga
113,1,5,22,female,1,hebrew,11/12/2017,2,SegmentationTest,14,0,p,0,q,664,295946,gedino,p,nadime,SegmentationProc,gedino
113,1,5,22,female,1,hebrew,11/12/2017,2,SegmentationTest,15,0,p,0,q,477,299946,tobelu,p,duloga,SegmentationProc,tobelu
113,1,5,22,female,1,hebrew,11/12/2017,2,SegmentationTest,16,0,q,0,p,1410,304866,dukame,q,nadime,SegmentationProc,dukame
113,1,5,22,female,1,hebrew,11/12/2017,2,SegmentationTest,17,1,q,0,q,385,308762,tobelu,q,gekalu,SegmentationProc,tobelu
113,1,5,22,female,1,hebrew,11/12/2017,2,SegmentationTest,18,1,q,0,q,570,312850,gedino,q,duloga,SegmentationProc,gedino
113,1,5,22,female,1,hebrew,11/12/2017,2,SegmentationTest,19,0,p,0,q,1043,317410,kimuga,p,tomubi,SegmentationProc,kimuga
113,1,5,22,female,1,hebrew,11/12/2017,2,SegmentationTest,20,0,p,0,q,505,321426,nalobi,p,kibeno,SegmentationProc,nalobi
113,1,5,22,female,1,hebrew,11/12/2017,2,SegmentationTest,21,1,p,0,p,2349,327290,gedino,p,gekalu,SegmentationProc,gedino
113,1,5,22,female,1,hebrew,11/12/2017,2,SegmentationTest,22,1,q,0,q,1892,332705,tobelu,q,kibeno,SegmentationProc,tobelu
113,1,5,22,female,1,hebrew,11/12/2017,2,SegmentationTest,23,1,q,0,q,520,336737,nalobi,q,tomubi,SegmentationProc,nalobi
113,1,5,22,female,1,hebrew,11/12/2017,2,SegmentationTest,24,0,p,0,q,1747,342001,kimuga,p,nadime,SegmentationProc,kimuga
113,1,5,22,female,1,hebrew,11/12/2017,2,SegmentationTest,25,1,p,0,p,1916,347441,dukame,p,duloga,SegmentationProc,dukame
114,1,10,23,male,1,hebrew,11/12/2017,1,exposureProc,1,,,,,,,,,,SoundExposure,
114,1,10,23,male,1,hebrew,11/12/2017,2,SegmentationTest,1,1,p,0,p,966,158233,kimuga,p,duloga,SegmentationProc,kimuga
114,1,10,23,male,1,hebrew,11/12/2017,2,SegmentationTest,2,1,p,0,p,518,162273,gedino,p,kibeno,SegmentationProc,gedino
114,1,10,23,male,1,hebrew,11/12/2017,2,SegmentationTest,3,1,q,0,q,1370,167161,nalobi,q,nadime,SegmentationProc,nalobi
114,1,10,23,male,1,hebrew,11/12/2017,2,SegmentationTest,4,0,q,0,p,706,171385,tobelu,q,tomubi,SegmentationProc,tobelu
114,1,10,23,male,1,hebrew,11/12/2017,2,SegmentationTest,5,0,q,0,p,1542,176441,dukame,q,gekalu,SegmentationProc,dukame
114,1,10,23,male,1,hebrew,11/12/2017,2,SegmentationTest,6,0,p,0,q,815,180769,nalobi,p,duloga,SegmentationProc,nalobi
114,1,10,23,male,1,hebrew,11/12/2017,2,SegmentationTest,7,1,q,0,q,285,184576,kimuga,q,gekalu,SegmentationProc,kimuga
114,1,10,23,male,1,hebrew,11/12/2017,2,SegmentationTest,8,1,p,0,p,282,188376,dukame,p,kibeno,SegmentationProc,dukame
114,1,10,23,male,1,hebrew,11/12/2017,2,SegmentationTest,9,1,p,0,p,1127,193024,gedino,p,tomubi,SegmentationProc,gedino
114,1,10,23,male,1,hebrew,11/12/2017,2,SegmentationTest,10,0,q,0,p,545,197096,tobelu,q,nadime,SegmentationProc,tobelu
114,1,10,23,male,1,hebrew,11/12/2017,2,SegmentationTest,11,0,q,0,p,1467,202088,nalobi,q,gekalu,SegmentationProc,nalobi
114,1,10,23,male,1,hebrew,11/12/2017,2,SegmentationTest,12,1,q,0,q,1279,206888,dukame,q,tomubi,SegmentationProc,dukame
114,1,10,23,male,1,hebrew,11/12/2017,2,SegmentationTest,13,1,q,0,q,547,210960,kimuga,q,kibeno,SegmentationProc,kimuga
114,1,10,23,male,1,hebrew,11/12/2017,2,SegmentationTest,14,1,p,0,p,589,215072,gedino,p,nadime,SegmentationProc,gedino
114,1,10,23,male,1,hebrew,11/12/2017,2,SegmentationTest,15,0,p,0,q,197,218784,tobelu,p,duloga,SegmentationProc,tobelu
114,1,10,23,male,1,hebrew,11/12/2017,2,SegmentationTest,16,1,q,0,q,294,222600,dukame,q,nadime,SegmentationProc,dukame
114,1,10,23,male,1,hebrew,11/12/2017,2,SegmentationTest,17,0,q,0,p,658,226768,tobelu,q,gekalu,SegmentationProc,tobelu
114,1,10,23,male,1,hebrew,11/12/2017,2,SegmentationTest,18,1,q,0,q,239,230519,gedino,q,duloga,SegmentationProc,gedino
114,1,10,23,male,1,hebrew,11/12/2017,2,SegmentationTest,19,1,p,0,p,462,234495,kimuga,p,tomubi,SegmentationProc,kimuga
114,1,10,23,male,1,hebrew,11/12/2017,2,SegmentationTest,20,0,p,0,q,2083,240103,nalobi,p,kibeno,SegmentationProc,nalobi
114,1,10,23,male,1,hebrew,11/12/2017,2,SegmentationTest,21,1,p,0,p,206,243831,gedino,p,gekalu,SegmentationProc,gedino
114,1,10,23,male,1,hebrew,11/12/2017,2,SegmentationTest,22,1,q,0,q,654,247999,tobelu,q,kibeno,SegmentationProc,tobelu
114,1,10,23,male,1,hebrew,11/12/2017,2,SegmentationTest,23,1,q,0,q,188,251703,nalobi,q,tomubi,SegmentationProc,nalobi
114,1,10,23,male,1,hebrew,11/12/2017,2,SegmentationTest,24,0,p,0,q,197,255415,kimuga,p,nadime,SegmentationProc,kimuga
114,1,10,23,male,1,hebrew,11/12/2017,2,SegmentationTest,25,1,p,0,p,677,259615,dukame,p,duloga,SegmentationProc,dukame
115,1,11,20,female,1,hebrew,11/12/2017,1,exposureProc,1,,,,,,,,,,SoundExposure,
115,1,11,20,female,1,hebrew,11/12/2017,2,SegmentationTest,1,1,q,0,q,7892,178747,dukame,q,gekalu,SegmentationProc,dukame
115,1,11,20,female,1,hebrew,11/12/2017,2,SegmentationTest,2,1,q,0,q,746,183011,nalobi,q,nadime,SegmentationProc,nalobi
115,1,11,20,female,1,hebrew,11/12/2017,2,SegmentationTest,3,0,p,0,q,1571,188107,gedino,p,kibeno,SegmentationProc,gedino
115,1,11,20,female,1,hebrew,11/12/2017,2,SegmentationTest,4,1,q,0,q,924,192547,tobelu,q,tomubi,SegmentationProc,tobelu
115,1,11,20,female,1,hebrew,11/12/2017,2,SegmentationTest,5,0,p,0,q,3911,199971,kimuga,p,duloga,SegmentationProc,kimuga
115,1,11,20,female,1,hebrew,11/12/2017,2,SegmentationTest,6,0,p,0,q,960,204443,dukame,p,kibeno,SegmentationProc,dukame
115,1,11,20,female,1,hebrew,11/12/2017,2,SegmentationTest,7,1,p,0,p,2233,210187,gedino,p,tomubi,SegmentationProc,gedino
115,1,11,20,female,1,hebrew,11/12/2017,2,SegmentationTest,8,1,q,0,q,1918,215627,tobelu,q,nadime,SegmentationProc,tobelu
115,1,11,20,female,1,hebrew,11/12/2017,2,SegmentationTest,9,0,p,0,q,2808,221955,nalobi,p,duloga,SegmentationProc,nalobi
115,1,11,20,female,1,hebrew,11/12/2017,2,SegmentationTest,10,1,q,0,q,2726,228195,kimuga,q,gekalu,SegmentationProc,kimuga
115,1,11,20,female,1,hebrew,11/12/2017,2,SegmentationTest,11,0,p,0,q,496,232203,tobelu,p,duloga,SegmentationProc,tobelu
115,1,11,20,female,1,hebrew,11/12/2017,2,SegmentationTest,12,0,q,0,p,2034,237762,nalobi,q,gekalu,SegmentationProc,nalobi
115,1,11,20,female,1,hebrew,11/12/2017,2,SegmentationTest,13,1,q,0,q,528,241810,dukame,q,tomubi,SegmentationProc,dukame
115,1,11,20,female,1,hebrew,11/12/2017,2,SegmentationTest,14,0,q,0,p,706,246042,kimuga,q,kibeno,SegmentationProc,kimuga
115,1,11,20,female,1,hebrew,11/12/2017,2,SegmentationTest,15,1,p,0,p,958,250514,gedino,p,nadime,SegmentationProc,gedino
115,1,11,20,female,1,hebrew,11/12/2017,2,SegmentationTest,16,0,q,0,p,1144,255170,tobelu,q,gekalu,SegmentationProc,tobelu
115,1,11,20,female,1,hebrew,11/12/2017,2,SegmentationTest,17,0,q,0,p,1954,260634,gedino,q,duloga,SegmentationProc,gedino
115,1,11,20,female,1,hebrew,11/12/2017,2,SegmentationTest,18,0,p,0,q,2778,266930,kimuga,p,tomubi,SegmentationProc,kimuga
115,1,11,20,female,1,hebrew,11/12/2017,2,SegmentationTest,19,1,p,0,p,2730,273170,nalobi,p,kibeno,SegmentationProc,nalobi
115,1,11,20,female,1,hebrew,11/12/2017,2,SegmentationTest,20,1,q,0,q,1114,277810,dukame,q,nadime,SegmentationProc,dukame
115,1,11,20,female,1,hebrew,11/12/2017,2,SegmentationTest,21,0,p,0,q,877,282210,gedino,p,gekalu,SegmentationProc,gedino
115,1,11,20,female,1,hebrew,11/12/2017,2,SegmentationTest,22,1,q,0,q,2834,288554,tobelu,q,kibeno,SegmentationProc,tobelu
115,1,11,20,female,1,hebrew,11/12/2017,2,SegmentationTest,23,1,q,0,q,2246,294322,nalobi,q,tomubi,SegmentationProc,nalobi
115,1,11,20,female,1,hebrew,11/12/2017,2,SegmentationTest,24,0,p,0,q,298,298145,kimuga,p,nadime,SegmentationProc,kimuga
115,1,11,20,female,1,hebrew,11/12/2017,2,SegmentationTest,25,0,p,0,q,334,302001,dukame,p,duloga,SegmentationProc,dukame
116,1,7,26,male,1,hebrew,11/12/2017,1,exposureProc,1,,,,,,,,,,SoundExposure,
116,1,7,26,male,1,hebrew,11/12/2017,2,SegmentationTest,1,1,q,0,q,2518,203552,tobelu,q,tomubi,SegmentationProc,tobelu
116,1,7,26,male,1,hebrew,11/12/2017,2,SegmentationTest,2,0,q,0,p,2912,209984,nalobi,q,nadime,SegmentationProc,nalobi
116,1,7,26,male,1,hebrew,11/12/2017,2,SegmentationTest,3,0,p,0,q,1594,215088,gedino,p,kibeno,SegmentationProc,gedino
116,1,7,26,male,1,hebrew,11/12/2017,2,SegmentationTest,4,0,q,0,p,904,219503,dukame,q,gekalu,SegmentationProc,dukame
116,1,7,26,male,1,hebrew,11/12/2017,2,SegmentationTest,5,1,p,0,p,1380,224399,kimuga,p,duloga,SegmentationProc,kimuga
116,1,7,26,male,1,hebrew,11/12/2017,2,SegmentationTest,6,0,p,0,q,1172,229095,dukame,p,kibeno,SegmentationProc,dukame
116,1,7,26,male,1,hebrew,11/12/2017,2,SegmentationTest,7,0,p,0,q,836,233447,gedino,p,tomubi,SegmentationProc,gedino
116,1,7,26,male,1,hebrew,11/12/2017,2,SegmentationTest,8,1,q,0,q,651,237615,tobelu,q,nadime,SegmentationProc,tobelu
116,1,7,26,male,1,hebrew,11/12/2017,2,SegmentationTest,9,0,p,0,q,2816,243951,nalobi,p,duloga,SegmentationProc,nalobi
116,1,7,26,male,1,hebrew,11/12/2017,2,SegmentationTest,10,0,q,0,p,2326,249799,kimuga,q,gekalu,SegmentationProc,kimuga
116,1,7,26,male,1,hebrew,11/12/2017,2,SegmentationTest,11,1,p,0,p,1543,254855,tobelu,p,duloga,SegmentationProc,tobelu
116,1,7,26,male,1,hebrew,11/12/2017,2,SegmentationTest,12,1,q,0,q,609,258975,nalobi,q,gekalu,SegmentationProc,nalobi
116,1,7,26,male,1,hebrew,11/12/2017,2,SegmentationTest,13,1,q,0,q,2577,265063,dukame,q,tomubi,SegmentationProc,dukame
116,1,7,26,male,1,hebrew,11/12/2017,2,SegmentationTest,14,1,q,0,q,3528,272103,kimuga,q,kibeno,SegmentationProc,kimuga
116,1,7,26,male,1,hebrew,11/12/2017,2,SegmentationTest,15,1,p,0,p,449,276063,gedino,p,nadime,SegmentationProc,gedino
116,1,7,26,male,1,hebrew,11/12/2017,2,SegmentationTest,16,1,q,0,q,1750,281334,tobelu,q,gekalu,SegmentationProc,tobelu
116,1,7,26,male,1,hebrew,11/12/2017,2,SegmentationTest,17,1,q,0,q,2479,287334,gedino,q,duloga,SegmentationProc,gedino
116,1,7,26,male,1,hebrew,11/12/2017,2,SegmentationTest,18,1,p,0,p,1337,292198,kimuga,p,tomubi,SegmentationProc,kimuga
116,1,7,26,male,1,hebrew,11/12/2017,2,SegmentationTest,19,1,p,0,p,1235,296950,nalobi,p,kibeno,SegmentationProc,nalobi
116,1,7,26,male,1,hebrew,11/12/2017,2,SegmentationTest,20,1,q,0,q,641,301110,dukame,q,nadime,SegmentationProc,dukame
116,1,7,26,male,1,hebrew,11/12/2017,2,SegmentationTest,21,1,p,0,p,616,305238,gedino,p,gekalu,SegmentationProc,gedino
116,1,7,26,male,1,hebrew,11/12/2017,2,SegmentationTest,22,1,q,0,q,1655,310414,tobelu,q,kibeno,SegmentationProc,tobelu
116,1,7,26,male,1,hebrew,11/12/2017,2,SegmentationTest,23,1,q,0,q,484,314414,nalobi,q,tomubi,SegmentationProc,nalobi
116,1,7,26,male,1,hebrew,11/12/2017,2,SegmentationTest,24,0,p,0,q,1448,319382,kimuga,p,nadime,SegmentationProc,kimuga
116,1,7,26,male,1,hebrew,11/12/2017,2,SegmentationTest,25,1,p,0,p,445,323350,dukame,p,duloga,SegmentationProc,dukame
117,1,4,24,male,1,hebrew,11/12/2017,1,exposureProc,1,,,,,,,,,,SoundExposure,
117,1,4,24,male,1,hebrew,11/12/2017,2,SegmentationTest,1,1,q,0,q,507,166217,nalobi,q,nadime,SegmentationProc,nalobi
117,1,4,24,male,1,hebrew,11/12/2017,2,SegmentationTest,2,0,q,0,p,1751,171481,dukame,q,gekalu,SegmentationProc,dukame
117,1,4,24,male,1,hebrew,11/12/2017,2,SegmentationTest,3,1,q,0,q,184,175185,tobelu,q,tomubi,SegmentationProc,tobelu
117,1,4,24,male,1,hebrew,11/12/2017,2,SegmentationTest,4,1,p,0,p,2441,181145,kimuga,p,duloga,SegmentationProc,kimuga
117,1,4,24,male,1,hebrew,11/12/2017,2,SegmentationTest,5,1,p,0,p,1230,185889,gedino,p,kibeno,SegmentationProc,gedino
117,1,4,24,male,1,hebrew,11/12/2017,2,SegmentationTest,6,0,p,0,q,732,190145,nalobi,p,duloga,SegmentationProc,nalobi
117,1,4,24,male,1,hebrew,11/12/2017,2,SegmentationTest,7,1,q,0,q,494,194161,kimuga,q,gekalu,SegmentationProc,kimuga
117,1,4,24,male,1,hebrew,11/12/2017,2,SegmentationTest,8,1,p,0,p,986,198673,dukame,p,kibeno,SegmentationProc,dukame
117,1,4,24,male,1,hebrew,11/12/2017,2,SegmentationTest,9,1,p,0,p,210,202401,gedino,p,tomubi,SegmentationProc,gedino
117,1,4,24,male,1,hebrew,11/12/2017,2,SegmentationTest,10,1,q,0,q,82,206009,tobelu,q,nadime,SegmentationProc,tobelu
117,1,4,24,male,1,hebrew,11/12/2017,2,SegmentationTest,11,1,q,0,q,214,209744,nalobi,q,gekalu,SegmentationProc,nalobi
117,1,4,24,male,1,hebrew,11/12/2017,2,SegmentationTest,12,1,q,0,q,1045,214312,dukame,q,tomubi,SegmentationProc,dukame
117,1,4,24,male,1,hebrew,11/12/2017,2,SegmentationTest,13,1,q,0,q,275,218112,kimuga,q,kibeno,SegmentationProc,kimuga
117,1,4,24,male,1,hebrew,11/12/2017,2,SegmentationTest,14,1,p,0,p,400,222024,gedino,p,nadime,SegmentationProc,gedino
117,1,4,24,male,1,hebrew,11/12/2017,2,SegmentationTest,15,1,p,0,p,648,226192,tobelu,p,duloga,SegmentationProc,tobelu
117,1,4,24,male,1,hebrew,11/12/2017,2,SegmentationTest,16,1,q,0,q,502,230216,dukame,q,nadime,SegmentationProc,dukame
117,1,4,24,male,1,hebrew,11/12/2017,2,SegmentationTest,17,1,q,0,q,234,233968,tobelu,q,gekalu,SegmentationProc,tobelu
117,1,4,24,male,1,hebrew,11/12/2017,2,SegmentationTest,18,1,q,0,q,177,237664,gedino,q,duloga,SegmentationProc,gedino
117,1,4,24,male,1,hebrew,11/12/2017,2,SegmentationTest,19,1,p,0,p,161,241352,kimuga,p,tomubi,SegmentationProc,kimuga
117,1,4,24,male,1,hebrew,11/12/2017,2,SegmentationTest,20,1,p,0,p,731,245608,nalobi,p,kibeno,SegmentationProc,nalobi
117,1,4,24,male,1,hebrew,11/12/2017,2,SegmentationTest,21,1,p,0,p,181,249312,gedino,p,gekalu,SegmentationProc,gedino
117,1,4,24,male,1,hebrew,11/12/2017,2,SegmentationTest,22,1,q,0,q,150,252984,tobelu,q,kibeno,SegmentationProc,tobelu
117,1,4,24,male,1,hebrew,11/12/2017,2,SegmentationTest,23,1,q,0,q,1024,257528,nalobi,q,tomubi,SegmentationProc,nalobi
117,1,4,24,male,1,hebrew,11/12/2017,2,SegmentationTest,24,0,p,0,q,583,261624,kimuga,p,nadime,SegmentationProc,kimuga
117,1,4,24,male,1,hebrew,11/12/2017,2,SegmentationTest,25,1,p,0,p,200,265344,dukame,p,duloga,SegmentationProc,dukame
118,1,0,21,female,1,hebrew,11/12/2017,1,exposureProc,1,,,,,,,,,,SoundExposure,
118,1,0,21,female,1,hebrew,11/12/2017,2,SegmentationTest,1,1,q,0,q,1915,170444,dukame,q,gekalu,SegmentationProc,dukame
118,1,0,21,female,1,hebrew,11/12/2017,2,SegmentationTest,2,1,q,0,q,365,174332,nalobi,q,nadime,SegmentationProc,nalobi
118,1,0,21,female,1,hebrew,11/12/2017,2,SegmentationTest,3,1,q,0,q,270,178124,tobelu,q,tomubi,SegmentationProc,tobelu
118,1,0,21,female,1,hebrew,11/12/2017,2,SegmentationTest,4,1,p,0,p,340,181980,gedino,p,kibeno,SegmentationProc,gedino
118,1,0,21,female,1,hebrew,11/12/2017,2,SegmentationTest,5,0,p,0,q,350,185844,kimuga,p,duloga,SegmentationProc,kimuga
118,1,0,21,female,1,hebrew,11/12/2017,2,SegmentationTest,6,1,p,0,p,1344,190708,dukame,p,kibeno,SegmentationProc,dukame
118,1,0,21,female,1,hebrew,11/12/2017,2,SegmentationTest,7,1,p,0,p,234,194468,gedino,p,tomubi,SegmentationProc,gedino
118,1,0,21,female,1,hebrew,11/12/2017,2,SegmentationTest,8,1,q,0,q,1856,199844,tobelu,q,nadime,SegmentationProc,tobelu
118,1,0,21,female,1,hebrew,11/12/2017,2,SegmentationTest,9,1,p,0,p,1956,205315,nalobi,p,duloga,SegmentationProc,nalobi
118,1,0,21,female,1,hebrew,11/12/2017,2,SegmentationTest,10,0,q,0,p,301,209131,kimuga,q,gekalu,SegmentationProc,kimuga
118,1,0,21,female,1,hebrew,11/12/2017,2,SegmentationTest,11,1,p,0,p,89,212739,tobelu,p,duloga,SegmentationProc,tobelu
118,1,0,21,female,1,hebrew,11/12/2017,2,SegmentationTest,12,0,q,0,p,110,216363,nalobi,q,gekalu,SegmentationProc,nalobi
118,1,0,21,female,1,hebrew,11/12/2017,2,SegmentationTest,13,1,q,0,q,297,220187,dukame,q,tomubi,SegmentationProc,dukame
118,1,0,21,female,1,hebrew,11/12/2017,2,SegmentationTest,14,1,q,0,q,261,223971,kimuga,q,kibeno,SegmentationProc,kimuga
118,1,0,21,female,1,hebrew,11/12/2017,2,SegmentationTest,15,1,p,0,p,179,227675,gedino,p,nadime,SegmentationProc,gedino
118,1,0,21,female,1,hebrew,11/12/2017,2,SegmentationTest,16,0,q,0,p,3460,234659,tobelu,q,gekalu,SegmentationProc,tobelu
118,1,0,21,female,1,hebrew,11/12/2017,2,SegmentationTest,17,1,q,0,q,735,238907,gedino,q,duloga,SegmentationProc,gedino
118,1,0,21,female,1,hebrew,11/12/2017,2,SegmentationTest,18,0,p,0,q,113,242539,kimuga,p,tomubi,SegmentationProc,kimuga
118,1,0,21,female,1,hebrew,11/12/2017,2,SegmentationTest,19,0,p,0,q,420,246482,nalobi,p,kibeno,SegmentationProc,nalobi
118,1,0,21,female,1,hebrew,11/12/2017,2,SegmentationTest,20,0,q,0,p,379,250378,dukame,q,nadime,SegmentationProc,dukame
118,1,0,21,female,1,hebrew,11/12/2017,2,SegmentationTest,21,0,p,0,q,2092,255994,gedino,p,gekalu,SegmentationProc,gedino
118,1,0,21,female,1,hebrew,11/12/2017,2,SegmentationTest,22,1,q,0,q,1071,260578,tobelu,q,kibeno,SegmentationProc,tobelu
118,1,0,21,female,1,hebrew,11/12/2017,2,SegmentationTest,23,1,q,0,q,348,264442,nalobi,q,tomubi,SegmentationProc,nalobi
118,1,0,21,female,1,hebrew,11/12/2017,2,SegmentationTest,24,1,p,0,p,174,268138,kimuga,p,nadime,SegmentationProc,kimuga
118,1,0,21,female,1,hebrew,11/12/2017,2,SegmentationTest,25,1,p,0,p,351,272002,dukame,p,duloga,SegmentationProc,dukame
119,1,8,22,female,1,hebrew,11-13-2017,1,exposureProc,1,,,,,,,,,,SoundExposure,
119,1,8,22,female,1,hebrew,11-13-2017,2,SegmentationTest,1,1,p,0,p,33548,276211,kimuga,p,duloga,SegmentationProc,kimuga
119,1,8,22,female,1,hebrew,11-13-2017,2,SegmentationTest,2,0,p,0,q,1924,281651,gedino,p,kibeno,SegmentationProc,gedino
119,1,8,22,female,1,hebrew,11-13-2017,2,SegmentationTest,3,1,q,0,q,1229,286394,nalobi,q,nadime,SegmentationProc,nalobi
119,1,8,22,female,1,hebrew,11-13-2017,2,SegmentationTest,4,1,q,0,q,611,290530,tobelu,q,tomubi,SegmentationProc,tobelu
119,1,8,22,female,1,hebrew,11-13-2017,2,SegmentationTest,5,1,q,0,q,730,294786,dukame,q,gekalu,SegmentationProc,dukame
119,1,8,22,female,1,hebrew,11-13-2017,2,SegmentationTest,6,0,p,0,q,428,298738,nalobi,p,duloga,SegmentationProc,nalobi
119,1,8,22,female,1,hebrew,11-13-2017,2,SegmentationTest,7,0,q,0,p,427,302690,kimuga,q,gekalu,SegmentationProc,kimuga
119,1,8,22,female,1,hebrew,11-13-2017,2,SegmentationTest,8,0,p,0,q,4449,310666,dukame,p,kibeno,SegmentationProc,dukame
119,1,8,22,female,1,hebrew,11-13-2017,2,SegmentationTest,9,1,p,0,p,500,314690,gedino,p,tomubi,SegmentationProc,gedino
119,1,8,22,female,1,hebrew,11-13-2017,2,SegmentationTest,10,1,q,0,q,440,318650,tobelu,q,nadime,SegmentationProc,tobelu
119,1,8,22,female,1,hebrew,11-13-2017,2,SegmentationTest,11,0,q,0,p,711,322874,nalobi,q,gekalu,SegmentationProc,nalobi
119,1,8,22,female,1,hebrew,11-13-2017,2,SegmentationTest,12,0,q,0,p,186,326586,dukame,q,tomubi,SegmentationProc,dukame
119,1,8,22,female,1,hebrew,11-13-2017,2,SegmentationTest,13,1,q,0,q,482,330586,kimuga,q,kibeno,SegmentationProc,kimuga
119,1,8,22,female,1,hebrew,11-13-2017,2,SegmentationTest,14,1,p,0,p,239,334346,gedino,p,nadime,SegmentationProc,gedino
119,1,8,22,female,1,hebrew,11-13-2017,2,SegmentationTest,15,0,p,0,q,590,338450,tobelu,p,duloga,SegmentationProc,tobelu
119,1,8,22,female,1,hebrew,11-13-2017,2,SegmentationTest,16,1,q,0,q,757,342721,dukame,q,nadime,SegmentationProc,dukame
119,1,8,22,female,1,hebrew,11-13-2017,2,SegmentationTest,17,1,q,0,q,3799,350033,tobelu,q,gekalu,SegmentationProc,tobelu
119,1,8,22,female,1,hebrew,11-13-2017,2,SegmentationTest,18,1,q,0,q,3300,356857,gedino,q,duloga,SegmentationProc,gedino
119,1,8,22,female,1,hebrew,11-13-2017,2,SegmentationTest,19,0,p,0,q,2454,362833,kimuga,p,tomubi,SegmentationProc,kimuga
119,1,8,22,female,1,hebrew,11-13-2017,2,SegmentationTest,20,1,p,0,p,290,366641,nalobi,p,kibeno,SegmentationProc,nalobi
119,1,8,22,female,1,hebrew,11-13-2017,2,SegmentationTest,21,0,p,0,q,255,370409,gedino,p,gekalu,SegmentationProc,gedino
119,1,8,22,female,1,hebrew,11-13-2017,2,SegmentationTest,22,0,q,0,p,1549,375473,tobelu,q,kibeno,SegmentationProc,tobelu
119,1,8,22,female,1,hebrew,11-13-2017,2,SegmentationTest,23,0,q,0,p,1534,380529,nalobi,q,tomubi,SegmentationProc,nalobi
119,1,8,22,female,1,hebrew,11-13-2017,2,SegmentationTest,24,0,p,0,q,1600,385649,kimuga,p,nadime,SegmentationProc,kimuga
119,1,8,22,female,1,hebrew,11-13-2017,2,SegmentationTest,25,0,p,0,q,727,389897,dukame,p,duloga,SegmentationProc,dukame
120,1,6,20,female,1,hebrew,11-13-2017,1,exposureProc,1,,,,,,,,,,SoundExposure,
120,1,6,20,female,1,hebrew,11-13-2017,2,SegmentationTest,1,1,p,0,p,1817,285296,kimuga,p,duloga,SegmentationProc,kimuga
120,1,6,20,female,1,hebrew,11-13-2017,2,SegmentationTest,2,1,q,0,q,1415,290232,tobelu,q,tomubi,SegmentationProc,tobelu
120,1,6,20,female,1,hebrew,11-13-2017,2,SegmentationTest,3,1,q,0,q,382,294136,dukame,q,gekalu,SegmentationProc,dukame
120,1,6,20,female,1,hebrew,11-13-2017,2,SegmentationTest,4,1,q,0,q,4110,301768,nalobi,q,nadime,SegmentationProc,nalobi
120,1,6,20,female,1,hebrew,11-13-2017,2,SegmentationTest,5,1,p,0,p,399,305680,gedino,p,kibeno,SegmentationProc,gedino
120,1,6,20,female,1,hebrew,11-13-2017,2,SegmentationTest,6,0,p,0,q,359,309560,nalobi,p,duloga,SegmentationProc,nalobi
120,1,6,20,female,1,hebrew,11-13-2017,2,SegmentationTest,7,1,q,0,q,329,313400,kimuga,q,gekalu,SegmentationProc,kimuga
120,1,6,20,female,1,hebrew,11-13-2017,2,SegmentationTest,8,1,p,0,p,436,317360,dukame,p,kibeno,SegmentationProc,dukame
120,1,6,20,female,1,hebrew,11-13-2017,2,SegmentationTest,9,1,p,0,p,915,321792,gedino,p,tomubi,SegmentationProc,gedino
120,1,6,20,female,1,hebrew,11-13-2017,2,SegmentationTest,10,1,q,0,q,470,325784,tobelu,q,nadime,SegmentationProc,tobelu
120,1,6,20,female,1,hebrew,11-13-2017,2,SegmentationTest,11,0,q,0,p,619,329920,nalobi,q,gekalu,SegmentationProc,nalobi
120,1,6,20,female,1,hebrew,11-13-2017,2,SegmentationTest,12,1,q,0,q,578,334016,dukame,q,tomubi,SegmentationProc,dukame
120,1,6,20,female,1,hebrew,11-13-2017,2,SegmentationTest,13,1,q,0,q,171,337712,kimuga,q,kibeno,SegmentationProc,kimuga
120,1,6,20,female,1,hebrew,11-13-2017,2,SegmentationTest,14,0,p,0,q,611,341839,gedino,p,nadime,SegmentationProc,gedino
120,1,6,20,female,1,hebrew,11-13-2017,2,SegmentationTest,15,1,p,0,p,98,345463,tobelu,p,duloga,SegmentationProc,tobelu
120,1,6,20,female,1,hebrew,11-13-2017,2,SegmentationTest,16,1,q,0,q,862,349847,dukame,q,nadime,SegmentationProc,dukame
120,1,6,20,female,1,hebrew,11-13-2017,2,SegmentationTest,17,1,q,0,q,1459,354831,tobelu,q,gekalu,SegmentationProc,tobelu
120,1,6,20,female,1,hebrew,11-13-2017,2,SegmentationTest,18,0,q,0,p,1625,359967,gedino,q,duloga,SegmentationProc,gedino
120,1,6,20,female,1,hebrew,11-13-2017,2,SegmentationTest,19,0,p,0,q,4247,367727,kimuga,p,tomubi,SegmentationProc,kimuga
120,1,6,20,female,1,hebrew,11-13-2017,2,SegmentationTest,20,0,p,0,q,570,371823,nalobi,p,kibeno,SegmentationProc,nalobi
120,1,6,20,female,1,hebrew,11-13-2017,2,SegmentationTest,21,0,p,0,q,515,375855,gedino,p,gekalu,SegmentationProc,gedino
120,1,6,20,female,1,hebrew,11-13-2017,2,SegmentationTest,22,1,q,0,q,102,379479,tobelu,q,kibeno,SegmentationProc,tobelu
120,1,6,20,female,1,hebrew,11-13-2017,2,SegmentationTest,23,1,q,0,q,746,383743,nalobi,q,tomubi,SegmentationProc,nalobi
120,1,6,20,female,1,hebrew,11-13-2017,2,SegmentationTest,24,1,p,0,p,412,387679,kimuga,p,nadime,SegmentationProc,kimuga
120,1,6,20,female,1,hebrew,11-13-2017,2,SegmentationTest,25,1,p,0,p,867,392071,dukame,p,duloga,SegmentationProc,dukame
121,1,3,22,female,1,hebrew,11-14-2017,1,exposureProc,1,,,,,,,,,,SoundExposure,
121,1,3,22,female,1,hebrew,11-14-2017,2,SegmentationTest,1,1,q,0,q,918,164536,tobelu,q,tomubi,SegmentationProc,tobelu
121,1,3,22,female,1,hebrew,11-14-2017,2,SegmentationTest,2,1,q,0,q,825,168880,nalobi,q,nadime,SegmentationProc,nalobi
121,1,3,22,female,1,hebrew,11-14-2017,2,SegmentationTest,3,1,p,0,p,4904,177296,kimuga,p,duloga,SegmentationProc,kimuga
121,1,3,22,female,1,hebrew,11-14-2017,2,SegmentationTest,4,1,q,0,q,200,181016,dukame,q,gekalu,SegmentationProc,dukame
121,1,3,22,female,1,hebrew,11-14-2017,2,SegmentationTest,5,1,p,0,p,592,185128,gedino,p,kibeno,SegmentationProc,gedino
121,1,3,22,female,1,hebrew,11-14-2017,2,SegmentationTest,6,1,p,0,p,3608,192248,nalobi,p,duloga,SegmentationProc,nalobi
121,1,3,22,female,1,hebrew,11-14-2017,2,SegmentationTest,7,1,q,0,q,470,196232,kimuga,q,gekalu,SegmentationProc,kimuga
121,1,3,22,female,1,hebrew,11-14-2017,2,SegmentationTest,8,1,p,0,p,651,200400,dukame,p,kibeno,SegmentationProc,dukame
121,1,3,22,female,1,hebrew,11-14-2017,2,SegmentationTest,9,1,p,0,p,177,204096,gedino,p,tomubi,SegmentationProc,gedino
121,1,3,22,female,1,hebrew,11-14-2017,2,SegmentationTest,10,1,q,0,q,1081,208687,tobelu,q,nadime,SegmentationProc,tobelu
121,1,3,22,female,1,hebrew,11-14-2017,2,SegmentationTest,11,0,q,0,p,3957,216167,nalobi,q,gekalu,SegmentationProc,nalobi
121,1,3,22,female,1,hebrew,11-14-2017,2,SegmentationTest,12,1,q,0,q,132,219815,dukame,q,tomubi,SegmentationProc,dukame
121,1,3,22,female,1,hebrew,11-14-2017,2,SegmentationTest,13,1,q,0,q,375,223711,kimuga,q,kibeno,SegmentationProc,kimuga
121,1,3,22,female,1,hebrew,11-14-2017,2,SegmentationTest,14,1,p,0,p,1064,228287,gedino,p,nadime,SegmentationProc,gedino
121,1,3,22,female,1,hebrew,11-14-2017,2,SegmentationTest,15,0,p,0,q,341,232151,tobelu,p,duloga,SegmentationProc,tobelu
121,1,3,22,female,1,hebrew,11-14-2017,2,SegmentationTest,16,1,q,0,q,32,235695,dukame,q,nadime,SegmentationProc,dukame
121,1,3,22,female,1,hebrew,11-14-2017,2,SegmentationTest,17,1,q,0,q,351,239567,tobelu,q,gekalu,SegmentationProc,tobelu
121,1,3,22,female,1,hebrew,11-14-2017,2,SegmentationTest,18,0,q,0,p,249,243335,gedino,q,duloga,SegmentationProc,gedino
121,1,3,22,female,1,hebrew,11-14-2017,2,SegmentationTest,19,1,p,0,p,1471,248327,kimuga,p,tomubi,SegmentationProc,kimuga
121,1,3,22,female,1,hebrew,11-14-2017,2,SegmentationTest,20,1,p,0,p,211,252055,nalobi,p,kibeno,SegmentationProc,nalobi
121,1,3,22,female,1,hebrew,11-14-2017,2,SegmentationTest,21,0,p,0,q,347,255927,gedino,p,gekalu,SegmentationProc,gedino
121,1,3,22,female,1,hebrew,11-14-2017,2,SegmentationTest,22,1,q,0,q,3501,262951,tobelu,q,kibeno,SegmentationProc,tobelu
121,1,3,22,female,1,hebrew,11-14-2017,2,SegmentationTest,23,1,q,0,q,22,266495,nalobi,q,tomubi,SegmentationProc,nalobi
121,1,3,22,female,1,hebrew,11-14-2017,2,SegmentationTest,24,0,p,0,q,4390,274399,kimuga,p,nadime,SegmentationProc,kimuga
121,1,3,22,female,1,hebrew,11-14-2017,2,SegmentationTest,25,0,p,0,q,531,278447,dukame,p,duloga,SegmentationProc,dukame
122,1,8,23,female,1,hebrew,11-14-2017,1,exposureProc,1,,,,,,,,,,SoundExposure,
122,1,8,23,female,1,hebrew,11-14-2017,2,SegmentationTest,1,1,q,0,q,4349,291934,tobelu,q,tomubi,SegmentationProc,tobelu
122,1,8,23,female,1,hebrew,11-14-2017,2,SegmentationTest,2,1,p,0,p,916,296374,kimuga,p,duloga,SegmentationProc,kimuga
122,1,8,23,female,1,hebrew,11-14-2017,2,SegmentationTest,3,1,q,0,q,839,300734,nalobi,q,nadime,SegmentationProc,nalobi
122,1,8,23,female,1,hebrew,11-14-2017,2,SegmentationTest,4,1,p,0,p,429,304678,gedino,p,kibeno,SegmentationProc,gedino
122,1,8,23,female,1,hebrew,11-14-2017,2,SegmentationTest,5,1,q,0,q,539,308742,dukame,q,gekalu,SegmentationProc,dukame
122,1,8,23,female,1,hebrew,11-14-2017,2,SegmentationTest,6,1,p,0,p,110,312366,nalobi,p,duloga,SegmentationProc,nalobi
122,1,8,23,female,1,hebrew,11-14-2017,2,SegmentationTest,7,1,q,0,q,601,316494,kimuga,q,gekalu,SegmentationProc,kimuga
122,1,8,23,female,1,hebrew,11-14-2017,2,SegmentationTest,8,1,p,0,p,441,320454,dukame,p,kibeno,SegmentationProc,dukame
122,1,8,23,female,1,hebrew,11-14-2017,2,SegmentationTest,9,1,p,0,p,48,324014,gedino,p,tomubi,SegmentationProc,gedino
122,1,8,23,female,1,hebrew,11-14-2017,2,SegmentationTest,10,1,q,0,q,174,327710,tobelu,q,nadime,SegmentationProc,tobelu
122,1,8,23,female,1,hebrew,11-14-2017,2,SegmentationTest,11,1,q,0,q,16,331238,nalobi,q,gekalu,SegmentationProc,nalobi
122,1,8,23,female,1,hebrew,11-14-2017,2,SegmentationTest,12,1,q,0,q,1207,335966,dukame,q,tomubi,SegmentationProc,dukame
122,1,8,23,female,1,hebrew,11-14-2017,2,SegmentationTest,13,0,q,0,p,239,339718,kimuga,q,kibeno,SegmentationProc,kimuga
122,1,8,23,female,1,hebrew,11-14-2017,2,SegmentationTest,14,1,p,0,p,53,343286,gedino,p,nadime,SegmentationProc,gedino
122,1,8,23,female,1,hebrew,11-14-2017,2,SegmentationTest,15,1,p,0,p,948,347750,tobelu,p,duloga,SegmentationProc,tobelu
122,1,8,23,female,1,hebrew,11-14-2017,2,SegmentationTest,16,1,q,0,q,541,351814,dukame,q,nadime,SegmentationProc,dukame
122,1,8,23,female,1,hebrew,11-14-2017,2,SegmentationTest,17,1,q,0,q,160,355486,tobelu,q,gekalu,SegmentationProc,tobelu
122,1,8,23,female,1,hebrew,11-14-2017,2,SegmentationTest,18,1,q,0,q,82,359078,gedino,q,duloga,SegmentationProc,gedino
122,1,8,23,female,1,hebrew,11-14-2017,2,SegmentationTest,19,0,p,0,q,183,362782,kimuga,p,tomubi,SegmentationProc,kimuga
122,1,8,23,female,1,hebrew,11-14-2017,2,SegmentationTest,20,1,p,0,p,343,366645,nalobi,p,kibeno,SegmentationProc,nalobi
122,1,8,23,female,1,hebrew,11-14-2017,2,SegmentationTest,21,1,p,0,p,105,370261,gedino,p,gekalu,SegmentationProc,gedino
122,1,8,23,female,1,hebrew,11-14-2017,2,SegmentationTest,22,1,q,0,q,157,373933,tobelu,q,kibeno,SegmentationProc,tobelu
122,1,8,23,female,1,hebrew,11-14-2017,2,SegmentationTest,23,1,q,0,q,320,377765,nalobi,q,tomubi,SegmentationProc,nalobi
122,1,8,23,female,1,hebrew,11-14-2017,2,SegmentationTest,24,0,p,0,q,179,381461,kimuga,p,nadime,SegmentationProc,kimuga
122,1,8,23,female,1,hebrew,11-14-2017,2,SegmentationTest,25,1,p,0,p,164,385149,dukame,p,duloga,SegmentationProc,dukame
123,1,11,23,female,1,hebrew,11-14-2017,1,exposureProc,1,,,,,,,,,,SoundExposure,
123,1,11,23,female,1,hebrew,11-14-2017,2,SegmentationTest,1,1,q,0,q,536,169691,tobelu,q,tomubi,SegmentationProc,tobelu
123,1,11,23,female,1,hebrew,11-14-2017,2,SegmentationTest,2,0,p,0,q,386,173595,gedino,p,kibeno,SegmentationProc,gedino
123,1,11,23,female,1,hebrew,11-14-2017,2,SegmentationTest,3,1,p,0,p,147,177259,kimuga,p,duloga,SegmentationProc,kimuga
123,1,11,23,female,1,hebrew,11-14-2017,2,SegmentationTest,4,1,q,0,q,173,180955,nalobi,q,nadime,SegmentationProc,nalobi
123,1,11,23,female,1,hebrew,11-14-2017,2,SegmentationTest,5,1,q,0,q,135,184603,dukame,q,gekalu,SegmentationProc,dukame
123,1,11,23,female,1,hebrew,11-14-2017,2,SegmentationTest,6,1,p,0,p,417,188539,nalobi,p,duloga,SegmentationProc,nalobi
123,1,11,23,female,1,hebrew,11-14-2017,2,SegmentationTest,7,1,q,0,q,769,192827,kimuga,q,gekalu,SegmentationProc,kimuga
123,1,11,23,female,1,hebrew,11-14-2017,2,SegmentationTest,8,1,p,0,p,106,196451,dukame,p,kibeno,SegmentationProc,dukame
123,1,11,23,female,1,hebrew,11-14-2017,2,SegmentationTest,9,1,p,0,p,638,200603,gedino,p,tomubi,SegmentationProc,gedino
123,1,11,23,female,1,hebrew,11-14-2017,2,SegmentationTest,10,1,q,0,q,547,204666,tobelu,q,nadime,SegmentationProc,tobelu
123,1,11,23,female,1,hebrew,11-14-2017,2,SegmentationTest,11,0,q,0,p,453,208642,nalobi,q,gekalu,SegmentationProc,nalobi
123,1,11,23,female,1,hebrew,11-14-2017,2,SegmentationTest,12,1,q,0,q,123,212282,dukame,q,tomubi,SegmentationProc,dukame
123,1,11,23,female,1,hebrew,11-14-2017,2,SegmentationTest,13,0,q,0,p,646,216442,kimuga,q,kibeno,SegmentationProc,kimuga
123,1,11,23,female,1,hebrew,11-14-2017,2,SegmentationTest,14,0,p,0,q,188,220154,gedino,p,nadime,SegmentationProc,gedino
123,1,11,23,female,1,hebrew,11-14-2017,2,SegmentationTest,15,1,p,0,p,229,223898,tobelu,p,duloga,SegmentationProc,tobelu
123,1,11,23,female,1,hebrew,11-14-2017,2,SegmentationTest,16,1,q,0,q,20,227442,dukame,q,nadime,SegmentationProc,dukame
123,1,11,23,female,1,hebrew,11-14-2017,2,SegmentationTest,17,1,q,0,q,731,231690,tobelu,q,gekalu,SegmentationProc,tobelu
123,1,11,23,female,1,hebrew,11-14-2017,2,SegmentationTest,18,0,q,0,p,782,235994,gedino,q,duloga,SegmentationProc,gedino
123,1,11,23,female,1,hebrew,11-14-2017,2,SegmentationTest,19,0,p,0,q,478,239994,kimuga,p,tomubi,SegmentationProc,kimuga
123,1,11,23,female,1,hebrew,11-14-2017,2,SegmentationTest,20,0,p,0,q,1290,244810,nalobi,p,kibeno,SegmentationProc,nalobi
123,1,11,23,female,1,hebrew,11-14-2017,2,SegmentationTest,21,1,p,0,p,286,248610,gedino,p,gekalu,SegmentationProc,gedino
123,1,11,23,female,1,hebrew,11-14-2017,2,SegmentationTest,22,1,q,0,q,547,252674,tobelu,q,kibeno,SegmentationProc,tobelu
123,1,11,23,female,1,hebrew,11-14-2017,2,SegmentationTest,23,1,q,0,q,757,256954,nalobi,q,tomubi,SegmentationProc,nalobi
123,1,11,23,female,1,hebrew,11-14-2017,2,SegmentationTest,24,1,p,0,p,486,260954,kimuga,p,nadime,SegmentationProc,kimuga
123,1,11,23,female,1,hebrew,11-14-2017,2,SegmentationTest,25,1,p,0,p,819,265290,dukame,p,duloga,SegmentationProc,dukame
124,1,9,27,male,1,hebrew,11-14-2017,1,exposureProc,1,,,,,,,,,,SoundExposure,
124,1,9,27,male,1,hebrew,11-14-2017,2,SegmentationTest,1,1,p,0,p,2045,186924,kimuga,p,duloga,SegmentationProc,kimuga
124,1,9,27,male,1,hebrew,11-14-2017,2,SegmentationTest,2,1,q,0,q,850,191300,dukame,q,gekalu,SegmentationProc,dukame
124,1,9,27,male,1,hebrew,11-14-2017,2,SegmentationTest,3,1,q,0,q,1071,195892,nalobi,q,nadime,SegmentationProc,nalobi
124,1,9,27,male,1,hebrew,11-14-2017,2,SegmentationTest,4,1,q,0,q,1060,200468,tobelu,q,tomubi,SegmentationProc,tobelu
124,1,9,27,male,1,hebrew,11-14-2017,2,SegmentationTest,5,1,p,0,p,1377,205372,gedino,p,kibeno,SegmentationProc,gedino
124,1,9,27,male,1,hebrew,11-14-2017,2,SegmentationTest,6,1,p,0,p,1049,209932,nalobi,p,duloga,SegmentationProc,nalobi
124,1,9,27,male,1,hebrew,11-14-2017,2,SegmentationTest,7,1,q,0,q,1095,214548,kimuga,q,gekalu,SegmentationProc,kimuga
124,1,9,27,male,1,hebrew,11-14-2017,2,SegmentationTest,8,1,p,0,p,690,218764,dukame,p,kibeno,SegmentationProc,dukame
124,1,9,27,male,1,hebrew,11-14-2017,2,SegmentationTest,9,0,p,0,q,1590,223868,gedino,p,tomubi,SegmentationProc,gedino
124,1,9,27,male,1,hebrew,11-14-2017,2,SegmentationTest,10,1,q,0,q,1118,228500,tobelu,q,nadime,SegmentationProc,tobelu
124,1,9,27,male,1,hebrew,11-14-2017,2,SegmentationTest,11,1,q,0,q,1297,233316,nalobi,q,gekalu,SegmentationProc,nalobi
124,1,9,27,male,1,hebrew,11-14-2017,2,SegmentationTest,12,1,q,0,q,908,237748,dukame,q,tomubi,SegmentationProc,dukame
124,1,9,27,male,1,hebrew,11-14-2017,2,SegmentationTest,13,1,q,0,q,687,241948,kimuga,q,kibeno,SegmentationProc,kimuga
124,1,9,27,male,1,hebrew,11-14-2017,2,SegmentationTest,14,1,p,0,p,1348,246812,gedino,p,nadime,SegmentationProc,gedino
124,1,9,27,male,1,hebrew,11-14-2017,2,SegmentationTest,15,1,p,0,p,653,250988,tobelu,p,duloga,SegmentationProc,tobelu
124,1,9,27,male,1,hebrew,11-14-2017,2,SegmentationTest,16,1,q,0,q,657,255163,dukame,q,nadime,SegmentationProc,dukame
124,1,9,27,male,1,hebrew,11-14-2017,2,SegmentationTest,17,1,q,0,q,2783,261459,tobelu,q,gekalu,SegmentationProc,tobelu
124,1,9,27,male,1,hebrew,11-14-2017,2,SegmentationTest,18,0,q,0,p,2270,267251,gedino,q,duloga,SegmentationProc,gedino
124,1,9,27,male,1,hebrew,11-14-2017,2,SegmentationTest,19,1,p,0,p,1185,271955,kimuga,p,tomubi,SegmentationProc,kimuga
124,1,9,27,male,1,hebrew,11-14-2017,2,SegmentationTest,20,0,p,0,q,785,276259,nalobi,p,kibeno,SegmentationProc,nalobi
124,1,9,27,male,1,hebrew,11-14-2017,2,SegmentationTest,21,0,p,0,q,1130,280907,gedino,p,gekalu,SegmentationProc,gedino
124,1,9,27,male,1,hebrew,11-14-2017,2,SegmentationTest,22,1,q,0,q,764,285195,tobelu,q,kibeno,SegmentationProc,tobelu
124,1,9,27,male,1,hebrew,11-14-2017,2,SegmentationTest,23,1,q,0,q,764,289483,nalobi,q,tomubi,SegmentationProc,nalobi
124,1,9,27,male,1,hebrew,11-14-2017,2,SegmentationTest,24,1,p,0,p,629,293635,kimuga,p,nadime,SegmentationProc,kimuga
124,1,9,27,male,1,hebrew,11-14-2017,2,SegmentationTest,25,1,p,0,p,604,297763,dukame,p,duloga,SegmentationProc,dukame
125,1,5,19,male,1,hebrew,11-14-2017,1,exposureProc,1,,,,,,,,,,SoundExposure,
125,1,5,19,male,1,hebrew,11-14-2017,2,SegmentationTest,1,1,q,0,q,2578,257734,tobelu,q,tomubi,SegmentationProc,tobelu
125,1,5,19,male,1,hebrew,11-14-2017,2,SegmentationTest,2,1,q,0,q,906,262150,nalobi,q,nadime,SegmentationProc,nalobi
125,1,5,19,male,1,hebrew,11-14-2017,2,SegmentationTest,3,0,p,0,q,1765,267430,gedino,p,kibeno,SegmentationProc,gedino
125,1,5,19,male,1,hebrew,11-14-2017,2,SegmentationTest,4,1,p,0,p,2805,273758,kimuga,p,duloga,SegmentationProc,kimuga
125,1,5,19,male,1,hebrew,11-14-2017,2,SegmentationTest,5,0,q,0,p,323,277598,dukame,q,gekalu,SegmentationProc,dukame
125,1,5,19,male,1,hebrew,11-14-2017,2,SegmentationTest,6,1,p,0,p,4134,285245,nalobi,p,duloga,SegmentationProc,nalobi
125,1,5,19,male,1,hebrew,11-14-2017,2,SegmentationTest,7,1,q,0,q,1046,289814,kimuga,q,gekalu,SegmentationProc,kimuga
125,1,5,19,male,1,hebrew,11-14-2017,2,SegmentationTest,8,0,p,0,q,378,293717,dukame,p,kibeno,SegmentationProc,dukame
125,1,5,19,male,1,hebrew,11-14-2017,2,SegmentationTest,9,0,p,0,q,91,297333,gedino,p,tomubi,SegmentationProc,gedino
125,1,5,19,male,1,hebrew,11-14-2017,2,SegmentationTest,10,1,q,0,q,296,301141,tobelu,q,nadime,SegmentationProc,tobelu
125,1,5,19,male,1,hebrew,11-14-2017,2,SegmentationTest,11,0,q,0,p,332,304997,nalobi,q,gekalu,SegmentationProc,nalobi
125,1,5,19,male,1,hebrew,11-14-2017,2,SegmentationTest,12,0,q,0,p,975,309493,dukame,q,tomubi,SegmentationProc,dukame
125,1,5,19,male,1,hebrew,11-14-2017,2,SegmentationTest,13,0,q,0,p,320,313325,kimuga,q,kibeno,SegmentationProc,kimuga
125,1,5,19,male,1,hebrew,11-14-2017,2,SegmentationTest,14,1,p,0,p,235,317077,gedino,p,nadime,SegmentationProc,gedino
125,1,5,19,male,1,hebrew,11-14-2017,2,SegmentationTest,15,0,p,0,q,986,321581,tobelu,p,duloga,SegmentationProc,tobelu
125,1,5,19,male,1,hebrew,11-14-2017,2,SegmentationTest,16,1,q,0,q,634,325733,dukame,q,nadime,SegmentationProc,dukame
125,1,5,19,male,1,hebrew,11-14-2017,2,SegmentationTest,17,0,q,0,p,984,330237,tobelu,q,gekalu,SegmentationProc,tobelu
125,1,5,19,male,1,hebrew,11-14-2017,2,SegmentationTest,18,1,q,0,q,1192,334949,gedino,q,duloga,SegmentationProc,gedino
125,1,5,19,male,1,hebrew,11-14-2017,2,SegmentationTest,19,0,p,0,q,48,338509,kimuga,p,tomubi,SegmentationProc,kimuga
125,1,5,19,male,1,hebrew,11-14-2017,2,SegmentationTest,20,0,p,0,q,3735,345765,nalobi,p,kibeno,SegmentationProc,nalobi
125,1,5,19,male,1,hebrew,11-14-2017,2,SegmentationTest,21,0,p,0,q,46,349333,gedino,p,gekalu,SegmentationProc,gedino
125,1,5,19,male,1,hebrew,11-14-2017,2,SegmentationTest,22,1,q,0,q,53,352909,tobelu,q,kibeno,SegmentationProc,tobelu
125,1,5,19,male,1,hebrew,11-14-2017,2,SegmentationTest,23,0,q,0,p,267,356693,nalobi,q,tomubi,SegmentationProc,nalobi
125,1,5,19,male,1,hebrew,11-14-2017,2,SegmentationTest,24,0,p,0,q,640,360853,kimuga,p,nadime,SegmentationProc,kimuga
125,1,5,19,male,1,hebrew,11-14-2017,2,SegmentationTest,25,0,p,0,q,367,364733,dukame,p,duloga,SegmentationProc,dukame
126,1,10,23,female,1,hebrew,11-14-2017,1,exposureProc,1,,,,,,,,,,SoundExposure,
126,1,10,23,female,1,hebrew,11-14-2017,2,SegmentationTest,1,1,p,0,p,6218,211651,gedino,p,kibeno,SegmentationProc,gedino
126,1,10,23,female,1,hebrew,11-14-2017,2,SegmentationTest,2,1,q,0,q,510,215675,nalobi,q,nadime,SegmentationProc,nalobi
126,1,10,23,female,1,hebrew,11-14-2017,2,SegmentationTest,3,0,q,0,p,403,219595,tobelu,q,tomubi,SegmentationProc,tobelu
126,1,10,23,female,1,hebrew,11-14-2017,2,SegmentationTest,4,1,p,0,p,572,223683,kimuga,p,duloga,SegmentationProc,kimuga
126,1,10,23,female,1,hebrew,11-14-2017,2,SegmentationTest,5,1,q,0,q,630,227834,dukame,q,gekalu,SegmentationProc,dukame
126,1,10,23,female,1,hebrew,11-14-2017,2,SegmentationTest,6,1,p,0,p,235,231586,nalobi,p,duloga,SegmentationProc,nalobi
126,1,10,23,female,1,hebrew,11-14-2017,2,SegmentationTest,7,1,q,0,q,84,235194,kimuga,q,gekalu,SegmentationProc,kimuga
126,1,10,23,female,1,hebrew,11-14-2017,2,SegmentationTest,8,0,p,0,q,3404,242114,dukame,p,kibeno,SegmentationProc,dukame
126,1,10,23,female,1,hebrew,11-14-2017,2,SegmentationTest,9,1,p,0,p,1484,247114,gedino,p,tomubi,SegmentationProc,gedino
126,1,10,23,female,1,hebrew,11-14-2017,2,SegmentationTest,10,0,q,0,p,461,251090,tobelu,q,nadime,SegmentationProc,tobelu
126,1,10,23,female,1,hebrew,11-14-2017,2,SegmentationTest,11,1,q,0,q,592,255194,nalobi,q,gekalu,SegmentationProc,nalobi
126,1,10,23,female,1,hebrew,11-14-2017,2,SegmentationTest,12,0,q,0,p,1781,260490,dukame,q,tomubi,SegmentationProc,dukame
126,1,10,23,female,1,hebrew,11-14-2017,2,SegmentationTest,13,1,q,0,q,275,264290,kimuga,q,kibeno,SegmentationProc,kimuga
126,1,10,23,female,1,hebrew,11-14-2017,2,SegmentationTest,14,0,p,0,q,722,268537,gedino,p,nadime,SegmentationProc,gedino
126,1,10,23,female,1,hebrew,11-14-2017,2,SegmentationTest,15,1,p,0,p,5363,277417,tobelu,p,duloga,SegmentationProc,tobelu
126,1,10,23,female,1,hebrew,11-14-2017,2,SegmentationTest,16,0,q,0,p,131,281065,dukame,q,nadime,SegmentationProc,dukame
126,1,10,23,female,1,hebrew,11-14-2017,2,SegmentationTest,17,1,q,0,q,238,284825,tobelu,q,gekalu,SegmentationProc,tobelu
126,1,10,23,female,1,hebrew,11-14-2017,2,SegmentationTest,18,0,q,0,p,1055,289401,gedino,q,duloga,SegmentationProc,gedino
126,1,10,23,female,1,hebrew,11-14-2017,2,SegmentationTest,19,0,p,0,q,282,293201,kimuga,p,tomubi,SegmentationProc,kimuga
126,1,10,23,female,1,hebrew,11-14-2017,2,SegmentationTest,20,1,p,0,p,418,297137,nalobi,p,kibeno,SegmentationProc,nalobi
126,1,10,23,female,1,hebrew,11-14-2017,2,SegmentationTest,21,1,p,0,p,1181,301833,gedino,p,gekalu,SegmentationProc,gedino
126,1,10,23,female,1,hebrew,11-14-2017,2,SegmentationTest,22,1,q,0,q,515,305873,tobelu,q,kibeno,SegmentationProc,tobelu
126,1,10,23,female,1,hebrew,11-14-2017,2,SegmentationTest,23,0,q,0,p,347,309745,nalobi,q,tomubi,SegmentationProc,nalobi
126,1,10,23,female,1,hebrew,11-14-2017,2,SegmentationTest,24,0,p,0,q,184,313449,kimuga,p,nadime,SegmentationProc,kimuga
126,1,10,23,female,1,hebrew,11-14-2017,2,SegmentationTest,25,1,p,0,p,173,317144,dukame,p,duloga,SegmentationProc,dukame
127,1,7,23,female,1,hebrew,11-14-2017,1,exposureProc,1,,,,,,,,,,SoundExposure,
127,1,7,23,female,1,hebrew,11-14-2017,2,SegmentationTest,1,1,p,0,p,3363,190958,kimuga,p,duloga,SegmentationProc,kimuga
127,1,7,23,female,1,hebrew,11-14-2017,2,SegmentationTest,2,1,p,0,p,1546,196030,gedino,p,kibeno,SegmentationProc,gedino
127,1,7,23,female,1,hebrew,11-14-2017,2,SegmentationTest,3,1,q,0,q,2178,201733,nalobi,q,nadime,SegmentationProc,nalobi
127,1,7,23,female,1,hebrew,11-14-2017,2,SegmentationTest,4,1,q,0,q,1193,206453,dukame,q,gekalu,SegmentationProc,dukame
127,1,7,23,female,1,hebrew,11-14-2017,2,SegmentationTest,5,0,q,0,p,1321,211285,tobelu,q,tomubi,SegmentationProc,tobelu
127,1,7,23,female,1,hebrew,11-14-2017,2,SegmentationTest,6,0,p,0,q,3196,217997,nalobi,p,duloga,SegmentationProc,nalobi
127,1,7,23,female,1,hebrew,11-14-2017,2,SegmentationTest,7,1,q,0,q,993,222517,kimuga,q,gekalu,SegmentationProc,kimuga
127,1,7,23,female,1,hebrew,11-14-2017,2,SegmentationTest,8,0,p,0,q,905,226933,dukame,p,kibeno,SegmentationProc,dukame
127,1,7,23,female,1,hebrew,11-14-2017,2,SegmentationTest,9,1,p,0,p,2213,232661,gedino,p,tomubi,SegmentationProc,gedino
127,1,7,23,female,1,hebrew,11-14-2017,2,SegmentationTest,10,0,q,0,p,506,236693,tobelu,q,nadime,SegmentationProc,tobelu
127,1,7,23,female,1,hebrew,11-14-2017,2,SegmentationTest,11,0,q,0,p,830,241037,nalobi,q,gekalu,SegmentationProc,nalobi
127,1,7,23,female,1,hebrew,11-14-2017,2,SegmentationTest,12,1,q,0,q,5669,250229,dukame,q,tomubi,SegmentationProc,dukame
127,1,7,23,female,1,hebrew,11-14-2017,2,SegmentationTest,13,1,q,0,q,757,254509,kimuga,q,kibeno,SegmentationProc,kimuga
127,1,7,23,female,1,hebrew,11-14-2017,2,SegmentationTest,14,0,p,0,q,1007,259029,gedino,p,nadime,SegmentationProc,gedino
127,1,7,23,female,1,hebrew,11-14-2017,2,SegmentationTest,15,1,p,0,p,1862,264405,tobelu,p,duloga,SegmentationProc,tobelu
127,1,7,23,female,1,hebrew,11-14-2017,2,SegmentationTest,16,0,q,0,p,3681,271612,dukame,q,nadime,SegmentationProc,dukame
127,1,7,23,female,1,hebrew,11-14-2017,2,SegmentationTest,17,0,q,0,p,955,276092,tobelu,q,gekalu,SegmentationProc,tobelu
127,1,7,23,female,1,hebrew,11-14-2017,2,SegmentationTest,18,0,q,0,p,1469,281076,gedino,q,duloga,SegmentationProc,gedino
127,1,7,23,female,1,hebrew,11-14-2017,2,SegmentationTest,19,0,p,0,q,1121,285716,kimuga,p,tomubi,SegmentationProc,kimuga
127,1,7,23,female,1,hebrew,11-14-2017,2,SegmentationTest,20,0,p,0,q,787,290020,nalobi,p,kibeno,SegmentationProc,nalobi
127,1,7,23,female,1,hebrew,11-14-2017,2,SegmentationTest,21,0,p,0,q,748,294284,gedino,p,gekalu,SegmentationProc,gedino
127,1,7,23,female,1,hebrew,11-14-2017,2,SegmentationTest,22,1,q,0,q,1821,299628,tobelu,q,kibeno,SegmentationProc,tobelu
127,1,7,23,female,1,hebrew,11-14-2017,2,SegmentationTest,23,1,q,0,q,1875,305020,nalobi,q,tomubi,SegmentationProc,nalobi
127,1,7,23,female,1,hebrew,11-14-2017,2,SegmentationTest,24,0,p,0,q,511,309044,kimuga,p,nadime,SegmentationProc,kimuga
127,1,7,23,female,1,hebrew,11-14-2017,2,SegmentationTest,25,1,p,0,p,1555,314124,dukame,p,duloga,SegmentationProc,dukame
128,1,5,25,male,1,hebrew,11-14-2017,1,exposureProc,1,,,,,,,,,,SoundExposure,
128,1,5,25,male,1,hebrew,11-14-2017,2,SegmentationTest,1,1,q,0,q,2003,277615,nalobi,q,nadime,SegmentationProc,nalobi
128,1,5,25,male,1,hebrew,11-14-2017,2,SegmentationTest,2,1,q,0,q,2282,283415,dukame,q,gekalu,SegmentationProc,dukame
128,1,5,25,male,1,hebrew,11-14-2017,2,SegmentationTest,3,1,p,0,p,933,287871,gedino,p,kibeno,SegmentationProc,gedino
128,1,5,25,male,1,hebrew,11-14-2017,2,SegmentationTest,4,1,q,0,q,1159,292551,tobelu,q,tomubi,SegmentationProc,tobelu
128,1,5,25,male,1,hebrew,11-14-2017,2,SegmentationTest,5,1,p,0,p,3536,299599,kimuga,p,duloga,SegmentationProc,kimuga
128,1,5,25,male,1,hebrew,11-14-2017,2,SegmentationTest,6,1,p,0,p,1528,304647,dukame,p,kibeno,SegmentationProc,dukame
128,1,5,25,male,1,hebrew,11-14-2017,2,SegmentationTest,7,1,p,0,p,1426,309599,gedino,p,tomubi,SegmentationProc,gedino
128,1,5,25,male,1,hebrew,11-14-2017,2,SegmentationTest,8,1,q,0,q,2448,315559,tobelu,q,nadime,SegmentationProc,tobelu
128,1,5,25,male,1,hebrew,11-14-2017,2,SegmentationTest,9,1,p,0,p,3820,322903,nalobi,p,duloga,SegmentationProc,nalobi
128,1,5,25,male,1,hebrew,11-14-2017,2,SegmentationTest,10,1,q,0,q,929,327351,kimuga,q,gekalu,SegmentationProc,kimuga
128,1,5,25,male,1,hebrew,11-14-2017,2,SegmentationTest,11,1,p,0,p,1522,332398,tobelu,p,duloga,SegmentationProc,tobelu
128,1,5,25,male,1,hebrew,11-14-2017,2,SegmentationTest,12,1,q,0,q,620,336534,nalobi,q,gekalu,SegmentationProc,nalobi
128,1,5,25,male,1,hebrew,11-14-2017,2,SegmentationTest,13,1,q,0,q,235,340286,dukame,q,tomubi,SegmentationProc,dukame
128,1,5,25,male,1,hebrew,11-14-2017,2,SegmentationTest,14,0,q,0,p,450,344254,kimuga,q,kibeno,SegmentationProc,kimuga
128,1,5,25,male,1,hebrew,11-14-2017,2,SegmentationTest,15,1,p,0,p,880,348654,gedino,p,nadime,SegmentationProc,gedino
128,1,5,25,male,1,hebrew,11-14-2017,2,SegmentationTest,16,1,q,0,q,996,353174,tobelu,q,gekalu,SegmentationProc,tobelu
128,1,5,25,male,1,hebrew,11-14-2017,2,SegmentationTest,17,1,q,0,q,364,357062,gedino,q,duloga,SegmentationProc,gedino
128,1,5,25,male,1,hebrew,11-14-2017,2,SegmentationTest,18,0,p,0,q,3293,363878,kimuga,p,tomubi,SegmentationProc,kimuga
128,1,5,25,male,1,hebrew,11-14-2017,2,SegmentationTest,19,1,p,0,p,239,367630,nalobi,p,kibeno,SegmentationProc,nalobi
128,1,5,25,male,1,hebrew,11-14-2017,2,SegmentationTest,20,1,q,0,q,430,371574,dukame,q,nadime,SegmentationProc,dukame
128,1,5,25,male,1,hebrew,11-14-2017,2,SegmentationTest,21,1,p,0,p,580,375678,gedino,p,gekalu,SegmentationProc,gedino
128,1,5,25,male,1,hebrew,11-14-2017,2,SegmentationTest,22,1,q,0,q,1421,380622,tobelu,q,kibeno,SegmentationProc,tobelu
128,1,5,25,male,1,hebrew,11-14-2017,2,SegmentationTest,23,1,q,0,q,891,385030,nalobi,q,tomubi,SegmentationProc,nalobi
128,1,5,25,male,1,hebrew,11-14-2017,2,SegmentationTest,24,1,p,0,p,1720,390262,kimuga,p,nadime,SegmentationProc,kimuga
128,1,5,25,male,1,hebrew,11-14-2017,2,SegmentationTest,25,0,p,0,q,3306,397086,dukame,p,duloga,SegmentationProc,dukame
129,1,8,24,female,1,hebrew,11-14-2017,1,exposureProc,1,,,,,,,,,,SoundExposure,
129,1,8,24,female,1,hebrew,11-14-2017,2,SegmentationTest,1,1,q,0,q,644,200009,dukame,q,gekalu,SegmentationProc,dukame
129,1,8,24,female,1,hebrew,11-14-2017,2,SegmentationTest,2,1,p,0,p,1628,205153,kimuga,p,duloga,SegmentationProc,kimuga
129,1,8,24,female,1,hebrew,11-14-2017,2,SegmentationTest,3,1,q,0,q,2162,210833,nalobi,q,nadime,SegmentationProc,nalobi
129,1,8,24,female,1,hebrew,11-14-2017,2,SegmentationTest,4,0,q,0,p,1890,216241,tobelu,q,tomubi,SegmentationProc,tobelu
129,1,8,24,female,1,hebrew,11-14-2017,2,SegmentationTest,5,1,p,0,p,541,220305,gedino,p,kibeno,SegmentationProc,gedino
129,1,8,24,female,1,hebrew,11-14-2017,2,SegmentationTest,6,0,p,0,q,1387,225217,nalobi,p,duloga,SegmentationProc,nalobi
129,1,8,24,female,1,hebrew,11-14-2017,2,SegmentationTest,7,1,q,0,q,776,229513,kimuga,q,gekalu,SegmentationProc,kimuga
129,1,8,24,female,1,hebrew,11-14-2017,2,SegmentationTest,8,1,p,0,p,2195,235225,dukame,p,kibeno,SegmentationProc,dukame
129,1,8,24,female,1,hebrew,11-14-2017,2,SegmentationTest,9,1,p,0,p,428,239177,gedino,p,tomubi,SegmentationProc,gedino
129,1,8,24,female,1,hebrew,11-14-2017,2,SegmentationTest,10,0,q,0,p,842,243537,tobelu,q,nadime,SegmentationProc,tobelu
129,1,8,24,female,1,hebrew,11-14-2017,2,SegmentationTest,11,1,q,0,q,562,247617,nalobi,q,gekalu,SegmentationProc,nalobi
129,1,8,24,female,1,hebrew,11-14-2017,2,SegmentationTest,12,1,q,0,q,1249,252384,dukame,q,tomubi,SegmentationProc,dukame
129,1,8,24,female,1,hebrew,11-14-2017,2,SegmentationTest,13,0,q,0,p,1748,257656,kimuga,q,kibeno,SegmentationProc,kimuga
129,1,8,24,female,1,hebrew,11-14-2017,2,SegmentationTest,14,1,p,0,p,610,261784,gedino,p,nadime,SegmentationProc,gedino
129,1,8,24,female,1,hebrew,11-14-2017,2,SegmentationTest,15,0,p,0,q,2677,267984,tobelu,p,duloga,SegmentationProc,tobelu
129,1,8,24,female,1,hebrew,11-14-2017,2,SegmentationTest,16,1,q,0,q,1437,272944,dukame,q,nadime,SegmentationProc,dukame
129,1,8,24,female,1,hebrew,11-14-2017,2,SegmentationTest,17,1,q,0,q,1310,277776,tobelu,q,gekalu,SegmentationProc,tobelu
129,1,8,24,female,1,hebrew,11-14-2017,2,SegmentationTest,18,1,q,0,q,387,281680,gedino,q,duloga,SegmentationProc,gedino
129,1,8,24,female,1,hebrew,11-14-2017,2,SegmentationTest,19,1,p,0,p,1097,286296,kimuga,p,tomubi,SegmentationProc,kimuga
129,1,8,24,female,1,hebrew,11-14-2017,2,SegmentationTest,20,0,p,0,q,860,290672,nalobi,p,kibeno,SegmentationProc,nalobi
129,1,8,24,female,1,hebrew,11-14-2017,2,SegmentationTest,21,1,p,0,p,3638,297823,gedino,p,gekalu,SegmentationProc,gedino
129,1,8,24,female,1,hebrew,11-14-2017,2,SegmentationTest,22,1,q,0,q,487,301831,tobelu,q,kibeno,SegmentationProc,tobelu
129,1,8,24,female,1,hebrew,11-14-2017,2,SegmentationTest,23,1,q,0,q,471,305815,nalobi,q,tomubi,SegmentationProc,nalobi
129,1,8,24,female,1,hebrew,11-14-2017,2,SegmentationTest,24,0,p,0,q,453,309783,kimuga,p,nadime,SegmentationProc,kimuga
129,1,8,24,female,1,hebrew,11-14-2017,2,SegmentationTest,25,0,p,0,q,1560,314863,dukame,p,duloga,SegmentationProc,dukame
130,1,6,23,female,1,hebrew,11-15-2017,1,exposureProc,1,,,,,,,,,,SoundExposure,
130,1,6,23,female,1,hebrew,11-15-2017,2,SegmentationTest,1,1,p,0,p,1512,182251,kimuga,p,duloga,SegmentationProc,kimuga
130,1,6,23,female,1,hebrew,11-15-2017,2,SegmentationTest,2,0,q,0,p,739,186515,dukame,q,gekalu,SegmentationProc,dukame
130,1,6,23,female,1,hebrew,11-15-2017,2,SegmentationTest,3,1,q,0,q,253,190283,nalobi,q,nadime,SegmentationProc,nalobi
130,1,6,23,female,1,hebrew,11-15-2017,2,SegmentationTest,4,1,q,0,q,315,194115,tobelu,q,tomubi,SegmentationProc,tobelu
130,1,6,23,female,1,hebrew,11-15-2017,2,SegmentationTest,5,1,p,0,p,351,197987,gedino,p,kibeno,SegmentationProc,gedino
130,1,6,23,female,1,hebrew,11-15-2017,2,SegmentationTest,6,1,p,0,p,880,202386,nalobi,p,duloga,SegmentationProc,nalobi
130,1,6,23,female,1,hebrew,11-15-2017,2,SegmentationTest,7,0,q,0,p,644,206554,kimuga,q,gekalu,SegmentationProc,kimuga
130,1,6,23,female,1,hebrew,11-15-2017,2,SegmentationTest,8,0,p,0,q,1138,211218,dukame,p,kibeno,SegmentationProc,dukame
130,1,6,23,female,1,hebrew,11-15-2017,2,SegmentationTest,9,1,p,0,p,108,214842,gedino,p,tomubi,SegmentationProc,gedino
130,1,6,23,female,1,hebrew,11-15-2017,2,SegmentationTest,10,1,q,0,q,280,218634,tobelu,q,nadime,SegmentationProc,tobelu
130,1,6,23,female,1,hebrew,11-15-2017,2,SegmentationTest,11,0,q,0,p,1685,223842,nalobi,q,gekalu,SegmentationProc,nalobi
130,1,6,23,female,1,hebrew,11-15-2017,2,SegmentationTest,12,0,q,0,p,593,227954,dukame,q,tomubi,SegmentationProc,dukame
130,1,6,23,female,1,hebrew,11-15-2017,2,SegmentationTest,13,1,q,0,q,1097,232562,kimuga,q,kibeno,SegmentationProc,kimuga
130,1,6,23,female,1,hebrew,11-15-2017,2,SegmentationTest,14,1,p,0,p,501,236586,gedino,p,nadime,SegmentationProc,gedino
130,1,6,23,female,1,hebrew,11-15-2017,2,SegmentationTest,15,1,p,0,p,97,240202,tobelu,p,duloga,SegmentationProc,tobelu
130,1,6,23,female,1,hebrew,11-15-2017,2,SegmentationTest,16,1,q,0,q,245,243970,dukame,q,nadime,SegmentationProc,dukame
130,1,6,23,female,1,hebrew,11-15-2017,2,SegmentationTest,17,1,q,0,q,314,247809,tobelu,q,gekalu,SegmentationProc,tobelu
130,1,6,23,female,1,hebrew,11-15-2017,2,SegmentationTest,18,1,q,0,q,397,251729,gedino,q,duloga,SegmentationProc,gedino
130,1,6,23,female,1,hebrew,11-15-2017,2,SegmentationTest,19,1,p,0,p,533,255785,kimuga,p,tomubi,SegmentationProc,kimuga
130,1,6,23,female,1,hebrew,11-15-2017,2,SegmentationTest,20,1,p,0,p,192,259497,nalobi,p,kibeno,SegmentationProc,nalobi
130,1,6,23,female,1,hebrew,11-15-2017,2,SegmentationTest,21,1,p,0,p,1201,264209,gedino,p,gekalu,SegmentationProc,gedino
130,1,6,23,female,1,hebrew,11-15-2017,2,SegmentationTest,22,1,q,0,q,160,267889,tobelu,q,kibeno,SegmentationProc,tobelu
130,1,6,23,female,1,hebrew,11-15-2017,2,SegmentationTest,23,1,q,0,q,146,271561,nalobi,q,tomubi,SegmentationProc,nalobi
130,1,6,23,female,1,hebrew,11-15-2017,2,SegmentationTest,24,1,p,0,p,76,275161,kimuga,p,nadime,SegmentationProc,kimuga
130,1,6,23,female,1,hebrew,11-15-2017,2,SegmentationTest,25,0,p,0,q,170,278841,dukame,p,duloga,SegmentationProc,dukame
131,1,4,23,female,1,hebrew,11-15-2017,1,exposureProc,1,,,,,,,,,,SoundExposure,
131,1,4,23,female,1,hebrew,11-15-2017,2,SegmentationTest,1,0,p,0,q,4608,276441,gedino,p,kibeno,SegmentationProc,gedino
131,1,4,23,female,1,hebrew,11-15-2017,2,SegmentationTest,2,1,p,0,p,6612,286568,kimuga,p,duloga,SegmentationProc,kimuga
131,1,4,23,female,1,hebrew,11-15-2017,2,SegmentationTest,3,1,q,0,q,815,290896,nalobi,q,nadime,SegmentationProc,nalobi
131,1,4,23,female,1,hebrew,11-15-2017,2,SegmentationTest,4,1,q,0,q,1110,295528,tobelu,q,tomubi,SegmentationProc,tobelu
131,1,4,23,female,1,hebrew,11-15-2017,2,SegmentationTest,5,1,q,0,q,3209,302248,dukame,q,gekalu,SegmentationProc,dukame
131,1,4,23,female,1,hebrew,11-15-2017,2,SegmentationTest,6,1,p,0,p,199,305960,nalobi,p,duloga,SegmentationProc,nalobi
131,1,4,23,female,1,hebrew,11-15-2017,2,SegmentationTest,7,1,q,0,q,839,310320,kimuga,q,gekalu,SegmentationProc,kimuga
131,1,4,23,female,1,hebrew,11-15-2017,2,SegmentationTest,8,0,p,0,q,4109,317944,dukame,p,kibeno,SegmentationProc,dukame
131,1,4,23,female,1,hebrew,11-15-2017,2,SegmentationTest,9,1,p,0,p,334,321792,gedino,p,tomubi,SegmentationProc,gedino
131,1,4,23,female,1,hebrew,11-15-2017,2,SegmentationTest,10,1,q,0,q,649,325960,tobelu,q,nadime,SegmentationProc,tobelu
131,1,4,23,female,1,hebrew,11-15-2017,2,SegmentationTest,11,1,q,0,q,1598,331080,nalobi,q,gekalu,SegmentationProc,nalobi
131,1,4,23,female,1,hebrew,11-15-2017,2,SegmentationTest,12,1,q,0,q,6613,341215,dukame,q,tomubi,SegmentationProc,dukame
131,1,4,23,female,1,hebrew,11-15-2017,2,SegmentationTest,13,1,q,0,q,6927,351655,kimuga,q,kibeno,SegmentationProc,kimuga
131,1,4,23,female,1,hebrew,11-15-2017,2,SegmentationTest,14,1,p,0,p,229,355399,gedino,p,nadime,SegmentationProc,gedino
131,1,4,23,female,1,hebrew,11-15-2017,2,SegmentationTest,15,0,p,0,q,1436,360359,tobelu,p,duloga,SegmentationProc,tobelu
131,1,4,23,female,1,hebrew,11-15-2017,2,SegmentationTest,16,1,q,0,q,554,364431,dukame,q,nadime,SegmentationProc,dukame
131,1,4,23,female,1,hebrew,11-15-2017,2,SegmentationTest,17,1,q,0,q,2860,370807,tobelu,q,gekalu,SegmentationProc,tobelu
131,1,4,23,female,1,hebrew,11-15-2017,2,SegmentationTest,18,1,q,0,q,936,375255,gedino,q,duloga,SegmentationProc,gedino
131,1,4,23,female,1,hebrew,11-15-2017,2,SegmentationTest,19,1,p,0,p,297,379070,kimuga,p,tomubi,SegmentationProc,kimuga
131,1,4,23,female,1,hebrew,11-15-2017,2,SegmentationTest,20,1,p,0,p,165,382758,nalobi,p,kibeno,SegmentationProc,nalobi
131,1,4,23,female,1,hebrew,11-15-2017,2,SegmentationTest,21,1,p,0,p,318,386598,gedino,p,gekalu,SegmentationProc,gedino
131,1,4,23,female,1,hebrew,11-15-2017,2,SegmentationTest,22,1,q,0,q,458,390574,tobelu,q,kibeno,SegmentationProc,tobelu
131,1,4,23,female,1,hebrew,11-15-2017,2,SegmentationTest,23,0,q,0,p,4368,398454,nalobi,q,tomubi,SegmentationProc,nalobi
131,1,4,23,female,1,hebrew,11-15-2017,2,SegmentationTest,24,1,p,0,p,1614,403590,kimuga,p,nadime,SegmentationProc,kimuga
131,1,4,23,female,1,hebrew,11-15-2017,2,SegmentationTest,25,1,p,0,p,2260,409374,dukame,p,duloga,SegmentationProc,dukame
132,1,2,25,female,1,hebrew,11-15-2017,1,exposureProc,1,,,,,,,,,,SoundExposure,
132,1,2,25,female,1,hebrew,11-15-2017,2,SegmentationTest,1,1,p,0,p,496,194255,kimuga,p,duloga,SegmentationProc,kimuga
132,1,2,25,female,1,hebrew,11-15-2017,2,SegmentationTest,2,1,q,0,q,1275,199054,nalobi,q,nadime,SegmentationProc,nalobi
132,1,2,25,female,1,hebrew,11-15-2017,2,SegmentationTest,3,1,q,0,q,688,203254,dukame,q,gekalu,SegmentationProc,dukame
132,1,2,25,female,1,hebrew,11-15-2017,2,SegmentationTest,4,1,p,0,p,484,207254,gedino,p,kibeno,SegmentationProc,gedino
132,1,2,25,female,1,hebrew,11-15-2017,2,SegmentationTest,5,1,q,0,q,305,211078,tobelu,q,tomubi,SegmentationProc,tobelu
132,1,2,25,female,1,hebrew,11-15-2017,2,SegmentationTest,6,1,p,0,p,485,215078,nalobi,p,duloga,SegmentationProc,nalobi
132,1,2,25,female,1,hebrew,11-15-2017,2,SegmentationTest,7,1,q,0,q,426,219022,kimuga,q,gekalu,SegmentationProc,kimuga
132,1,2,25,female,1,hebrew,11-15-2017,2,SegmentationTest,8,1,p,0,p,481,223014,dukame,p,kibeno,SegmentationProc,dukame
132,1,2,25,female,1,hebrew,11-15-2017,2,SegmentationTest,9,1,p,0,p,542,227078,gedino,p,tomubi,SegmentationProc,gedino
132,1,2,25,female,1,hebrew,11-15-2017,2,SegmentationTest,10,1,q,0,q,528,231118,tobelu,q,nadime,SegmentationProc,tobelu
132,1,2,25,female,1,hebrew,11-15-2017,2,SegmentationTest,11,1,q,0,q,555,235198,nalobi,q,gekalu,SegmentationProc,nalobi
132,1,2,25,female,1,hebrew,11-15-2017,2,SegmentationTest,12,0,q,0,p,957,239670,dukame,q,tomubi,SegmentationProc,dukame
132,1,2,25,female,1,hebrew,11-15-2017,2,SegmentationTest,13,1,q,0,q,590,243774,kimuga,q,kibeno,SegmentationProc,kimuga
132,1,2,25,female,1,hebrew,11-15-2017,2,SegmentationTest,14,1,p,0,p,239,247526,gedino,p,nadime,SegmentationProc,gedino
132,1,2,25,female,1,hebrew,11-15-2017,2,SegmentationTest,15,1,p,0,p,844,251885,tobelu,p,duloga,SegmentationProc,tobelu
132,1,2,25,female,1,hebrew,11-15-2017,2,SegmentationTest,16,0,q,0,p,714,256125,dukame,q,nadime,SegmentationProc,dukame
132,1,2,25,female,1,hebrew,11-15-2017,2,SegmentationTest,17,1,q,0,q,669,260317,tobelu,q,gekalu,SegmentationProc,tobelu
132,1,2,25,female,1,hebrew,11-15-2017,2,SegmentationTest,18,1,q,0,q,250,264085,gedino,q,duloga,SegmentationProc,gedino
132,1,2,25,female,1,hebrew,11-15-2017,2,SegmentationTest,19,1,p,0,p,1112,268717,kimuga,p,tomubi,SegmentationProc,kimuga
132,1,2,25,female,1,hebrew,11-15-2017,2,SegmentationTest,20,0,p,0,q,811,273053,nalobi,p,kibeno,SegmentationProc,nalobi
132,1,2,25,female,1,hebrew,11-15-2017,2,SegmentationTest,21,1,p,0,p,474,277053,gedino,p,gekalu,SegmentationProc,gedino
132,1,2,25,female,1,hebrew,11-15-2017,2,SegmentationTest,22,1,q,0,q,640,281205,tobelu,q,kibeno,SegmentationProc,tobelu
132,1,2,25,female,1,hebrew,11-15-2017,2,SegmentationTest,23,1,q,0,q,462,285181,nalobi,q,tomubi,SegmentationProc,nalobi
132,1,2,25,female,1,hebrew,11-15-2017,2,SegmentationTest,24,0,p,0,q,715,289421,kimuga,p,nadime,SegmentationProc,kimuga
132,1,2,25,female,1,hebrew,11-15-2017,2,SegmentationTest,25,0,p,0,q,702,293645,dukame,p,duloga,SegmentationProc,dukame
133,1,6,21,female,1,hebrew,11-15-2017,1,exposureProc,1,,,,,,,,,,SoundExposure,
133,1,6,21,female,1,hebrew,11-15-2017,2,SegmentationTest,1,1,q,0,q,834,219567,nalobi,q,nadime,SegmentationProc,nalobi
133,1,6,21,female,1,hebrew,11-15-2017,2,SegmentationTest,2,1,p,0,p,1392,224479,gedino,p,kibeno,SegmentationProc,gedino
133,1,6,21,female,1,hebrew,11-15-2017,2,SegmentationTest,3,1,q,0,q,400,228391,dukame,q,gekalu,SegmentationProc,dukame
133,1,6,21,female,1,hebrew,11-15-2017,2,SegmentationTest,4,0,q,0,p,592,232503,tobelu,q,tomubi,SegmentationProc,tobelu
133,1,6,21,female,1,hebrew,11-15-2017,2,SegmentationTest,5,0,p,0,q,1688,237703,kimuga,p,duloga,SegmentationProc,kimuga
133,1,6,21,female,1,hebrew,11-15-2017,2,SegmentationTest,6,1,p,0,p,612,241831,dukame,p,kibeno,SegmentationProc,dukame
133,1,6,21,female,1,hebrew,11-15-2017,2,SegmentationTest,7,1,p,0,p,395,245751,gedino,p,tomubi,SegmentationProc,gedino
133,1,6,21,female,1,hebrew,11-15-2017,2,SegmentationTest,8,1,q,0,q,234,249510,tobelu,q,nadime,SegmentationProc,tobelu
133,1,6,21,female,1,hebrew,11-15-2017,2,SegmentationTest,9,0,p,0,q,1977,255006,nalobi,p,duloga,SegmentationProc,nalobi
133,1,6,21,female,1,hebrew,11-15-2017,2,SegmentationTest,10,1,q,0,q,1553,260070,kimuga,q,gekalu,SegmentationProc,kimuga
133,1,6,21,female,1,hebrew,11-15-2017,2,SegmentationTest,11,1,p,0,p,2698,266286,tobelu,p,duloga,SegmentationProc,tobelu
