soundFile,word,location,repetition,trialnum,condition,trials_1.thisRepN,trials_1.thisTrialN,trials_1.thisN,trials_1.thisIndex,fam_trials_loop.thisRepN,fam_trials_loop.thisTrialN,fam_trials_loop.thisN,fam_trials_loop.thisIndex,random_block_key_resp.keys,random_block_key_resp.rt,structured_block_key_resp.keys,structured_block_key_resp.rt,starget,Run,PartID,frameRate,ttarget,expName,date,
4A.wav,0,1,1,193,R,0,0,0,0,,,,,None,,,,da,3,014,119.991433161,1C,auditory,2017_Nov_07_1322,
2B.wav,0,2,1,194,R,0,1,1,1,,,,,None,,,,da,3,014,119.991433161,1C,auditory,2017_Nov_07_1322,
2C.wav,0,3,1,195,R,0,2,2,2,,,,,None,,,,da,3,014,119.991433161,1C,auditory,2017_Nov_07_1322,
1C.wav,0,1,1,196,R,0,3,3,3,,,,,None,,,,da,3,014,119.991433161,1C,auditory,2017_Nov_07_1322,
3B.wav,0,2,1,197,R,0,4,4,4,,,,,None,,,,da,3,014,119.991433161,1C,auditory,2017_Nov_07_1322,
4C.wav,0,3,1,198,R,0,5,5,5,,,,,3,0.149136896944,,,da,3,014,119.991433161,1C,auditory,2017_Nov_07_1322,
2B.wav,0,1,1,199,R,0,6,6,6,,,,,None,,,,da,3,014,119.991433161,1C,auditory,2017_Nov_07_1322,
3A.wav,0,2,1,200,R,0,7,7,7,,,,,None,,,,da,3,014,119.991433161,1C,auditory,2017_Nov_07_1322,
2A.wav,0,3,1,201,R,0,8,8,8,,,,,3,0.341940233135,,,da,3,014,119.991433161,1C,auditory,2017_Nov_07_1322,
2C.wav,0,1,1,202,R,0,9,9,9,,,,,None,,,,da,3,014,119.991433161,1C,auditory,2017_Nov_07_1322,
3A.wav,0,2,1,203,R,0,10,10,10,,,,,None,,,,da,3,014,119.991433161,1C,auditory,2017_Nov_07_1322,
1B.wav,0,3,1,204,R,0,11,11,11,,,,,None,,,,da,3,014,119.991433161,1C,auditory,2017_Nov_07_1322,
3C.wav,0,1,1,205,R,0,12,12,12,,,,,None,,,,da,3,014,119.991433161,1C,auditory,2017_Nov_07_1322,
1C.wav,0,2,1,206,R,0,13,13,13,,,,,None,,,,da,3,014,119.991433161,1C,auditory,2017_Nov_07_1322,
1A.wav,0,3,1,207,R,0,14,14,14,,,,,None,,,,da,3,014,119.991433161,1C,auditory,2017_Nov_07_1322,
3B.wav,0,1,1,208,R,0,15,15,15,,,,,None,,,,da,3,014,119.991433161,1C,auditory,2017_Nov_07_1322,
4B.wav,0,2,1,209,R,0,16,16,16,,,,,None,,,,da,3,014,119.991433161,1C,auditory,2017_Nov_07_1322,
1B.wav,0,3,1,210,R,0,17,17,17,,,,,None,,,,da,3,014,119.991433161,1C,auditory,2017_Nov_07_1322,
4A.wav,0,1,1,211,R,0,18,18,18,,,,,None,,,,da,3,014,119.991433161,1C,auditory,2017_Nov_07_1322,
4C.wav,0,2,1,212,R,0,19,19,19,,,,,None,,,,da,3,014,119.991433161,1C,auditory,2017_Nov_07_1322,
2A.wav,0,3,1,213,R,0,20,20,20,,,,,None,,,,da,3,014,119.991433161,1C,auditory,2017_Nov_07_1322,
1A.wav,0,1,1,214,R,0,21,21,21,,,,,None,,,,da,3,014,119.991433161,1C,auditory,2017_Nov_07_1322,
4B.wav,0,2,1,215,R,0,22,22,22,,,,,None,,,,da,3,014,119.991433161,1C,auditory,2017_Nov_07_1322,
3C.wav,0,3,1,216,R,0,23,23,23,,,,,None,,,,da,3,014,119.991433161,1C,auditory,2017_Nov_07_1322,
pi.wav,1,1,17,193,S,,,,,0,0,0,0,,,None,,da,3,014,119.991433161,1C,auditory,2017_Nov_07_1322,
tu.wav,1,2,17,194,S,,,,,0,1,1,1,,,None,,da,3,014,119.991433161,1C,auditory,2017_Nov_07_1322,
bi.wav,1,3,17,195,S,,,,,0,2,2,2,,,None,,da,3,014,119.991433161,1C,auditory,2017_Nov_07_1322,
bu.wav,4,1,17,196,S,,,,,0,3,3,3,,,None,,da,3,014,119.991433161,1C,auditory,2017_Nov_07_1322,
pa.wav,4,2,17,197,S,,,,,0,4,4,4,,,None,,da,3,014,119.991433161,1C,auditory,2017_Nov_07_1322,
da.wav,4,3,17,198,S,,,,,0,5,5,5,,,None,,da,3,014,119.991433161,1C,auditory,2017_Nov_07_1322,
di.wav,2,1,17,199,S,,,,,0,6,6,6,,,3,0.274625963124,da,3,014,119.991433161,1C,auditory,2017_Nov_07_1322,
ba.wav,2,2,17,200,S,,,,,0,7,7,7,,,None,,da,3,014,119.991433161,1C,auditory,2017_Nov_07_1322,
pu.wav,2,3,17,201,S,,,,,0,8,8,8,,,None,,da,3,014,119.991433161,1C,auditory,2017_Nov_07_1322,
ta.wav,3,1,17,202,S,,,,,0,9,9,9,,,None,,da,3,014,119.991433161,1C,auditory,2017_Nov_07_1322,
ti.wav,3,2,17,203,S,,,,,0,10,10,10,,,None,,da,3,014,119.991433161,1C,auditory,2017_Nov_07_1322,
du.wav,3,3,17,204,S,,,,,0,11,11,11,,,None,,da,3,014,119.991433161,1C,auditory,2017_Nov_07_1322,
bu.wav,4,1,18,205,S,,,,,0,12,12,12,,,None,,da,3,014,119.991433161,1C,auditory,2017_Nov_07_1322,
pa.wav,4,2,18,206,S,,,,,0,13,13,13,,,None,,da,3,014,119.991433161,1C,auditory,2017_Nov_07_1322,
da.wav,4,3,18,207,S,,,,,0,14,14,14,,,None,,da,3,014,119.991433161,1C,auditory,2017_Nov_07_1322,
pi.wav,1,1,18,208,S,,,,,0,15,15,15,,,None,,da,3,014,119.991433161,1C,auditory,2017_Nov_07_1322,
tu.wav,1,2,18,209,S,,,,,0,16,16,16,,,None,,da,3,014,119.991433161,1C,auditory,2017_Nov_07_1322,
bi.wav,1,3,18,210,S,,,,,0,17,17,17,,,None,,da,3,014,119.991433161,1C,auditory,2017_Nov_07_1322,
di.wav,2,1,18,211,S,,,,,0,18,18,18,,,None,,da,3,014,119.991433161,1C,auditory,2017_Nov_07_1322,
ba.wav,2,2,18,212,S,,,,,0,19,19,19,,,None,,da,3,014,119.991433161,1C,auditory,2017_Nov_07_1322,
pu.wav,2,3,18,213,S,,,,,0,20,20,20,,,None,,da,3,014,119.991433161,1C,auditory,2017_Nov_07_1322,
ta.wav,3,1,18,214,S,,,,,0,21,21,21,,,None,,da,3,014,119.991433161,1C,auditory,2017_Nov_07_1322,
ti.wav,3,2,18,215,S,,,,,0,22,22,22,,,None,,da,3,014,119.991433161,1C,auditory,2017_Nov_07_1322,
du.wav,3,3,18,216,S,,,,,0,23,23,23,,,None,,da,3,014,119.991433161,1C,auditory,2017_Nov_07_1322,
2C.wav,0,1,1,217,R,0,0,0,0,,,,,None,,,,da,3,014,119.991433161,1C,auditory,2017_Nov_07_1322,
1C.wav,0,2,1,218,R,0,1,1,1,,,,,None,,,,da,3,014,119.991433161,1C,auditory,2017_Nov_07_1322,
3A.wav,0,3,1,219,R,0,2,2,2,,,,,None,,,,da,3,014,119.991433161,1C,auditory,2017_Nov_07_1322,
3B.wav,0,1,1,220,R,0,3,3,3,,,,,None,,,,da,3,014,119.991433161,1C,auditory,2017_Nov_07_1322,
3C.wav,0,2,1,221,R,0,4,4,4,,,,,3,0.391975376231,,,da,3,014,119.991433161,1C,auditory,2017_Nov_07_1322,
1A.wav,0,3,1,222,R,0,5,5,5,,,,,None,,,,da,3,014,119.991433161,1C,auditory,2017_Nov_07_1322,
3B.wav,0,1,1,223,R,0,6,6,6,,,,,None,,,,da,3,014,119.991433161,1C,auditory,2017_Nov_07_1322,
4A.wav,0,2,1,224,R,0,7,7,7,,,,,None,,,,da,3,014,119.991433161,1C,auditory,2017_Nov_07_1322,
4C.wav,0,3,1,225,R,0,8,8,8,,,,,None,,,,da,3,014,119.991433161,1C,auditory,2017_Nov_07_1322,
1B.wav,0,1,1,226,R,0,9,9,9,,,,,None,,,,da,3,014,119.991433161,1C,auditory,2017_Nov_07_1322,
3A.wav,0,2,1,227,R,0,10,10,10,,,,,None,,,,da,3,014,119.991433161,1C,auditory,2017_Nov_07_1322,
4C.wav,0,3,1,228,R,0,11,11,11,,,,,None,,,,da,3,014,119.991433161,1C,auditory,2017_Nov_07_1322,
2C.wav,0,1,1,229,R,0,12,12,12,,,,,None,,,,da,3,014,119.991433161,1C,auditory,2017_Nov_07_1322,
4B.wav,0,2,1,230,R,0,13,13,13,,,,,3,0.183567435597,,,da,3,014,119.991433161,1C,auditory,2017_Nov_07_1322,
3C.wav,0,3,1,231,R,0,14,14,14,,,,,None,,,,da,3,014,119.991433161,1C,auditory,2017_Nov_07_1322,
1A.wav,0,1,1,232,R,0,15,15,15,,,,,None,,,,da,3,014,119.991433161,1C,auditory,2017_Nov_07_1322,
2A.wav,0,2,1,233,R,0,16,16,16,,,,,None,,,,da,3,014,119.991433161,1C,auditory,2017_Nov_07_1322,
2A.wav,0,3,1,234,R,0,17,17,17,,,,,None,,,,da,3,014,119.991433161,1C,auditory,2017_Nov_07_1322,
4B.wav,0,1,1,235,R,0,18,18,18,,,,,None,,,,da,3,014,119.991433161,1C,auditory,2017_Nov_07_1322,
4A.wav,0,2,1,236,R,0,19,19,19,,,,,None,,,,da,3,014,119.991433161,1C,auditory,2017_Nov_07_1322,
1B.wav,0,3,1,237,R,0,20,20,20,,,,,None,,,,da,3,014,119.991433161,1C,auditory,2017_Nov_07_1322,
1C.wav,0,1,1,238,R,0,21,21,21,,,,,None,,,,da,3,014,119.991433161,1C,auditory,2017_Nov_07_1322,
2B.wav,0,2,1,239,R,0,22,22,22,,,,,None,,,,da,3,014,119.991433161,1C,auditory,2017_Nov_07_1322,
2B.wav,0,3,1,240,R,0,23,23,23,,,,,None,,,,da,3,014,119.991433161,1C,auditory,2017_Nov_07_1322,
pi.wav,1,1,19,217,S,,,,,0,0,0,0,,,None,,da,3,014,119.991433161,1C,auditory,2017_Nov_07_1322,
tu.wav,1,2,19,218,S,,,,,0,1,1,1,,,None,,da,3,014,119.991433161,1C,auditory,2017_Nov_07_1322,
bi.wav,1,3,19,219,S,,,,,0,2,2,2,,,None,,da,3,014,119.991433161,1C,auditory,2017_Nov_07_1322,
ta.wav,3,1,19,220,S,,,,,0,3,3,3,,,None,,da,3,014,119.991433161,1C,auditory,2017_Nov_07_1322,
ti.wav,3,2,19,221,S,,,,,0,4,4,4,,,None,,da,3,014,119.991433161,1C,auditory,2017_Nov_07_1322,
du.wav,3,3,19,222,S,,,,,0,5,5,5,,,None,,da,3,014,119.991433161,1C,auditory,2017_Nov_07_1322,
bu.wav,4,1,19,223,S,,,,,0,6,6,6,,,None,,da,3,014,119.991433161,1C,auditory,2017_Nov_07_1322,
pa.wav,4,2,19,224,S,,,,,0,7,7,7,,,None,,da,3,014,119.991433161,1C,auditory,2017_Nov_07_1322,
da.wav,4,3,19,225,S,,,,,0,8,8,8,,,None,,da,3,014,119.991433161,1C,auditory,2017_Nov_07_1322,
di.wav,2,1,19,226,S,,,,,0,9,9,9,,,None,,da,3,014,119.991433161,1C,auditory,2017_Nov_07_1322,
ba.wav,2,2,19,227,S,,,,,0,10,10,10,,,3,0.000251164135989,da,3,014,119.991433161,1C,auditory,2017_Nov_07_1322,
pu.wav,2,3,19,228,S,,,,,0,11,11,11,,,None,,da,3,014,119.991433161,1C,auditory,2017_Nov_07_1322,
bu.wav,4,1,20,229,S,,,,,0,12,12,12,,,None,,da,3,014,119.991433161,1C,auditory,2017_Nov_07_1322,
pa.wav,4,2,20,230,S,,,,,0,13,13,13,,,None,,da,3,014,119.991433161,1C,auditory,2017_Nov_07_1322,
da.wav,4,3,20,231,S,,,,,0,14,14,14,,,None,,da,3,014,119.991433161,1C,auditory,2017_Nov_07_1322,
ta.wav,3,1,20,232,S,,,,,0,15,15,15,,,None,,da,3,014,119.991433161,1C,auditory,2017_Nov_07_1322,
ti.wav,3,2,20,233,S,,,,,0,16,16,16,,,None,,da,3,014,119.991433161,1C,auditory,2017_Nov_07_1322,
du.wav,3,3,20,234,S,,,,,0,17,17,17,,,None,,da,3,014,119.991433161,1C,auditory,2017_Nov_07_1322,
pi.wav,1,1,20,235,S,,,,,0,18,18,18,,,None,,da,3,014,119.991433161,1C,auditory,2017_Nov_07_1322,
tu.wav,1,2,20,236,S,,,,,0,19,19,19,,,None,,da,3,014,119.991433161,1C,auditory,2017_Nov_07_1322,
bi.wav,1,3,20,237,S,,,,,0,20,20,20,,,None,,da,3,014,119.991433161,1C,auditory,2017_Nov_07_1322,
di.wav,2,1,20,238,S,,,,,0,21,21,21,,,None,,da,3,014,119.991433161,1C,auditory,2017_Nov_07_1322,
ba.wav,2,2,20,239,S,,,,,0,22,22,22,,,None,,da,3,014,119.991433161,1C,auditory,2017_Nov_07_1322,
pu.wav,2,3,20,240,S,,,,,0,23,23,23,,,None,,da,3,014,119.991433161,1C,auditory,2017_Nov_07_1322,
silence.wav,0,0,0,0,B,,,,,0,24,24,24,,,None,,da,3,014,119.991433161,1C,auditory,2017_Nov_07_1322,
silence.wav,0,0,0,0,B,,,,,0,25,25,25,,,None,,da,3,014,119.991433161,1C,auditory,2017_Nov_07_1322,
silence.wav,0,0,0,0,B,,,,,0,26,26,26,,,None,,da,3,014,119.991433161,1C,auditory,2017_Nov_07_1322,
silence.wav,0,0,0,0,B,,,,,0,27,27,27,,,None,,da,3,014,119.991433161,1C,auditory,2017_Nov_07_1322,
silence.wav,0,0,0,0,B,,,,,0,28,28,28,,,None,,da,3,014,119.991433161,1C,auditory,2017_Nov_07_1322,
silence.wav,0,0,0,0,B,,,,,0,29,29,29,,,None,,da,3,014,119.991433161,1C,auditory,2017_Nov_07_1322,
silence.wav,0,0,0,0,B,,,,,0,30,30,30,,,None,,da,3,014,119.991433161,1C,auditory,2017_Nov_07_1322,
silence.wav,0,0,0,0,B,,,,,0,31,31,31,,,None,,da,3,014,119.991433161,1C,auditory,2017_Nov_07_1322,
silence.wav,0,0,0,0,B,,,,,0,32,32,32,,,None,,da,3,014,119.991433161,1C,auditory,2017_Nov_07_1322,
silence.wav,0,0,0,0,B,,,,,0,33,33,33,,,None,,da,3,014,119.991433161,1C,auditory,2017_Nov_07_1322,
silence.wav,0,0,0,0,B,,,,,0,34,34,34,,,None,,da,3,014,119.991433161,1C,auditory,2017_Nov_07_1322,
silence.wav,0,0,0,0,B,,,,,0,35,35,35,,,None,,da,3,014,119.991433161,1C,auditory,2017_Nov_07_1322,
4C.wav,0,1,1,241,R,0,0,0,0,,,,,None,,,,da,3,014,119.991433161,1C,auditory,2017_Nov_07_1322,
3C.wav,0,2,1,242,R,0,1,1,1,,,,,None,,,,da,3,014,119.991433161,1C,auditory,2017_Nov_07_1322,
3B.wav,0,3,1,243,R,0,2,2,2,,,,,None,,,,da,3,014,119.991433161,1C,auditory,2017_Nov_07_1322,
4B.wav,0,1,1,244,R,0,3,3,3,,,,,None,,,,da,3,014,119.991433161,1C,auditory,2017_Nov_07_1322,
2C.wav,0,2,1,245,R,0,4,4,4,,,,,None,,,,da,3,014,119.991433161,1C,auditory,2017_Nov_07_1322,
2B.wav,0,3,1,246,R,0,5,5,5,,,,,None,,,,da,3,014,119.991433161,1C,auditory,2017_Nov_07_1322,
1C.wav,0,1,1,247,R,0,6,6,6,,,,,3,0.225294819218,,,da,3,014,119.991433161,1C,auditory,2017_Nov_07_1322,
1A.wav,0,2,1,248,R,0,7,7,7,,,,,None,,,,da,3,014,119.991433161,1C,auditory,2017_Nov_07_1322,
4C.wav,0,3,1,249,R,0,8,8,8,,,,,None,,,,da,3,014,119.991433161,1C,auditory,2017_Nov_07_1322,
3C.wav,0,1,1,250,R,0,9,9,9,,,,,None,,,,da,3,014,119.991433161,1C,auditory,2017_Nov_07_1322,
4B.wav,0,2,1,251,R,0,10,10,10,,,,,None,,,,da,3,014,119.991433161,1C,auditory,2017_Nov_07_1322,
3A.wav,0,3,1,252,R,0,11,11,11,,,,,None,,,,da,3,014,119.991433161,1C,auditory,2017_Nov_07_1322,
2C.wav,0,1,1,253,R,0,12,12,12,,,,,None,,,,da,3,014,119.991433161,1C,auditory,2017_Nov_07_1322,
2C.wav,0,2,1,254,R,0,13,13,13,,,,,3,0.0503292583162,,,da,3,014,119.991433161,1C,auditory,2017_Nov_07_1322,
3B.wav,0,3,1,255,R,0,14,14,14,,,,,None,,,,da,3,014,119.991433161,1C,auditory,2017_Nov_07_1322,
2A.wav,0,1,1,256,R,0,15,15,15,,,,,None,,,,da,3,014,119.991433161,1C,auditory,2017_Nov_07_1322,
1B.wav,0,2,1,257,R,0,16,16,16,,,,,None,,,,da,3,014,119.991433161,1C,auditory,2017_Nov_07_1322,
3A.wav,0,3,1,258,R,0,17,17,17,,,,,None,,,,da,3,014,119.991433161,1C,auditory,2017_Nov_07_1322,
2A.wav,0,1,1,259,R,0,18,18,18,,,,,None,,,,da,3,014,119.991433161,1C,auditory,2017_Nov_07_1322,
4A.wav,0,2,1,260,R,0,19,19,19,,,,,3,0.191924119426,,,da,3,014,119.991433161,1C,auditory,2017_Nov_07_1322,
2A.wav,0,3,1,261,R,0,20,20,20,,,,,None,,,,da,3,014,119.991433161,1C,auditory,2017_Nov_07_1322,
2B.wav,0,1,1,262,R,0,21,21,21,,,,,None,,,,da,3,014,119.991433161,1C,auditory,2017_Nov_07_1322,
4A.wav,0,2,1,263,R,0,22,22,22,,,,,None,,,,da,3,014,119.991433161,1C,auditory,2017_Nov_07_1322,
2B.wav,0,3,1,264,R,0,23,23,23,,,,,None,,,,da,3,014,119.991433161,1C,auditory,2017_Nov_07_1322,
bu.wav,4,1,21,241,S,,,,,0,0,0,0,,,None,,da,3,014,119.991433161,1C,auditory,2017_Nov_07_1322,
pa.wav,4,2,21,242,S,,,,,0,1,1,1,,,None,,da,3,014,119.991433161,1C,auditory,2017_Nov_07_1322,
da.wav,4,3,21,243,S,,,,,0,2,2,2,,,None,,da,3,014,119.991433161,1C,auditory,2017_Nov_07_1322,
pi.wav,1,1,21,244,S,,,,,0,3,3,3,,,3,0.325286598818,da,3,014,119.991433161,1C,auditory,2017_Nov_07_1322,
tu.wav,1,2,21,245,S,,,,,0,4,4,4,,,None,,da,3,014,119.991433161,1C,auditory,2017_Nov_07_1322,
bi.wav,1,3,21,246,S,,,,,0,5,5,5,,,None,,da,3,014,119.991433161,1C,auditory,2017_Nov_07_1322,
ta.wav,3,1,21,247,S,,,,,0,6,6,6,,,None,,da,3,014,119.991433161,1C,auditory,2017_Nov_07_1322,
ti.wav,3,2,21,248,S,,,,,0,7,7,7,,,None,,da,3,014,119.991433161,1C,auditory,2017_Nov_07_1322,
du.wav,3,3,21,249,S,,,,,0,8,8,8,,,None,,da,3,014,119.991433161,1C,auditory,2017_Nov_07_1322,
bu.wav,4,1,22,250,S,,,,,0,9,9,9,,,None,,da,3,014,119.991433161,1C,auditory,2017_Nov_07_1322,
pa.wav,4,2,22,251,S,,,,,0,10,10,10,,,None,,da,3,014,119.991433161,1C,auditory,2017_Nov_07_1322,
da.wav,4,3,22,252,S,,,,,0,11,11,11,,,None,,da,3,014,119.991433161,1C,auditory,2017_Nov_07_1322,
pi.wav,1,1,22,253,S,,,,,0,12,12,12,,,None,,da,3,014,119.991433161,1C,auditory,2017_Nov_07_1322,
tu.wav,1,2,22,254,S,,,,,0,13,13,13,,,3,0.0138111843262,da,3,014,119.991433161,1C,auditory,2017_Nov_07_1322,
bi.wav,1,3,22,255,S,,,,,0,14,14,14,,,None,,da,3,014,119.991433161,1C,auditory,2017_Nov_07_1322,
ta.wav,3,1,22,256,S,,,,,0,15,15,15,,,None,,da,3,014,119.991433161,1C,auditory,2017_Nov_07_1322,
ti.wav,3,2,22,257,S,,,,,0,16,16,16,,,None,,da,3,014,119.991433161,1C,auditory,2017_Nov_07_1322,
du.wav,3,3,22,258,S,,,,,0,17,17,17,,,None,,da,3,014,119.991433161,1C,auditory,2017_Nov_07_1322,
di.wav,2,1,21,259,S,,,,,0,18,18,18,,,None,,da,3,014,119.991433161,1C,auditory,2017_Nov_07_1322,
ba.wav,2,2,21,260,S,,,,,0,19,19,19,,,None,,da,3,014,119.991433161,1C,auditory,2017_Nov_07_1322,
pu.wav,2,3,21,261,S,,,,,0,20,20,20,,,None,,da,3,014,119.991433161,1C,auditory,2017_Nov_07_1322,
bu.wav,4,1,23,262,S,,,,,0,21,21,21,,,None,,da,3,014,119.991433161,1C,auditory,2017_Nov_07_1322,
pa.wav,4,2,23,263,S,,,,,0,22,22,22,,,None,,da,3,014,119.991433161,1C,auditory,2017_Nov_07_1322,
da.wav,4,3,23,264,S,,,,,0,23,23,23,,,None,,da,3,014,119.991433161,1C,auditory,2017_Nov_07_1322,
silence.wav,0,0,0,0,B,,,,,0,24,24,24,,,3,0.433697639906,da,3,014,119.991433161,1C,auditory,2017_Nov_07_1322,
silence.wav,0,0,0,0,B,,,,,0,25,25,25,,,None,,da,3,014,119.991433161,1C,auditory,2017_Nov_07_1322,
silence.wav,0,0,0,0,B,,,,,0,26,26,26,,,None,,da,3,014,119.991433161,1C,auditory,2017_Nov_07_1322,
silence.wav,0,0,0,0,B,,,,,0,27,27,27,,,None,,da,3,014,119.991433161,1C,auditory,2017_Nov_07_1322,
silence.wav,0,0,0,0,B,,,,,0,28,28,28,,,None,,da,3,014,119.991433161,1C,auditory,2017_Nov_07_1322,
silence.wav,0,0,0,0,B,,,,,0,29,29,29,,,None,,da,3,014,119.991433161,1C,auditory,2017_Nov_07_1322,
silence.wav,0,0,0,0,B,,,,,0,30,30,30,,,None,,da,3,014,119.991433161,1C,auditory,2017_Nov_07_1322,
silence.wav,0,0,0,0,B,,,,,0,31,31,31,,,None,,da,3,014,119.991433161,1C,auditory,2017_Nov_07_1322,
silence.wav,0,0,0,0,B,,,,,0,32,32,32,,,None,,da,3,014,119.991433161,1C,auditory,2017_Nov_07_1322,
silence.wav,0,0,0,0,B,,,,,0,33,33,33,,,None,,da,3,014,119.991433161,1C,auditory,2017_Nov_07_1322,
silence.wav,0,0,0,0,B,,,,,0,34,34,34,,,None,,da,3,014,119.991433161,1C,auditory,2017_Nov_07_1322,
silence.wav,0,0,0,0,B,,,,,0,35,35,35,,,None,,da,3,014,119.991433161,1C,auditory,2017_Nov_07_1322,
di.wav,2,1,22,265,S,,,,,0,36,36,36,,,None,,da,3,014,119.991433161,1C,auditory,2017_Nov_07_1322,
ba.wav,2,2,22,266,S,,,,,0,37,37,37,,,None,,da,3,014,119.991433161,1C,auditory,2017_Nov_07_1322,
pu.wav,2,3,22,267,S,,,,,0,38,38,38,,,None,,da,3,014,119.991433161,1C,auditory,2017_Nov_07_1322,
ta.wav,3,1,23,268,S,,,,,0,39,39,39,,,None,,da,3,014,119.991433161,1C,auditory,2017_Nov_07_1322,
ti.wav,3,2,23,269,S,,,,,0,40,40,40,,,None,,da,3,014,119.991433161,1C,auditory,2017_Nov_07_1322,
du.wav,3,3,23,270,S,,,,,0,41,41,41,,,None,,da,3,014,119.991433161,1C,auditory,2017_Nov_07_1322,
pi.wav,1,1,23,271,S,,,,,0,42,42,42,,,None,,da,3,014,119.991433161,1C,auditory,2017_Nov_07_1322,
tu.wav,1,2,23,272,S,,,,,0,43,43,43,,,None,,da,3,014,119.991433161,1C,auditory,2017_Nov_07_1322,
bi.wav,1,3,23,273,S,,,,,0,44,44,44,,,None,,da,3,014,119.991433161,1C,auditory,2017_Nov_07_1322,
di.wav,2,1,23,274,S,,,,,0,45,45,45,,,None,,da,3,014,119.991433161,1C,auditory,2017_Nov_07_1322,
ba.wav,2,2,23,275,S,,,,,0,46,46,46,,,None,,da,3,014,119.991433161,1C,auditory,2017_Nov_07_1322,
pu.wav,2,3,23,276,S,,,,,0,47,47,47,,,None,,da,3,014,119.991433161,1C,auditory,2017_Nov_07_1322,
ta.wav,3,1,24,277,S,,,,,0,48,48,48,,,None,,da,3,014,119.991433161,1C,auditory,2017_Nov_07_1322,
ti.wav,3,2,24,278,S,,,,,0,49,49,49,,,None,,da,3,014,119.991433161,1C,auditory,2017_Nov_07_1322,
du.wav,3,3,24,279,S,,,,,0,50,50,50,,,None,,da,3,014,119.991433161,1C,auditory,2017_Nov_07_1322,
bu.wav,4,1,24,280,S,,,,,0,51,51,51,,,None,,da,3,014,119.991433161,1C,auditory,2017_Nov_07_1322,
pa.wav,4,2,24,281,S,,,,,0,52,52,52,,,None,,da,3,014,119.991433161,1C,auditory,2017_Nov_07_1322,
da.wav,4,3,24,282,S,,,,,0,53,53,53,,,None,,da,3,014,119.991433161,1C,auditory,2017_Nov_07_1322,
pi.wav,1,1,24,283,S,,,,,0,54,54,54,,,3,0.341951042006,da,3,014,119.991433161,1C,auditory,2017_Nov_07_1322,
tu.wav,1,2,24,284,S,,,,,0,55,55,55,,,None,,da,3,014,119.991433161,1C,auditory,2017_Nov_07_1322,
bi.wav,1,3,24,285,S,,,,,0,56,56,56,,,None,,da,3,014,119.991433161,1C,auditory,2017_Nov_07_1322,
di.wav,2,1,24,286,S,,,,,0,57,57,57,,,None,,da,3,014,119.991433161,1C,auditory,2017_Nov_07_1322,
ba.wav,2,2,24,287,S,,,,,0,58,58,58,,,None,,da,3,014,119.991433161,1C,auditory,2017_Nov_07_1322,
pu.wav,2,3,24,288,S,,,,,0,59,59,59,,,None,,da,3,014,119.991433161,1C,auditory,2017_Nov_07_1322,
silence.wav,0,0,0,0,B,,,,,0,60,60,60,,,None,,da,3,014,119.991433161,1C,auditory,2017_Nov_07_1322,
silence.wav,0,0,0,0,B,,,,,0,61,61,61,,,None,,da,3,014,119.991433161,1C,auditory,2017_Nov_07_1322,
silence.wav,0,0,0,0,B,,,,,0,62,62,62,,,None,,da,3,014,119.991433161,1C,auditory,2017_Nov_07_1322,
silence.wav,0,0,0,0,B,,,,,0,63,63,63,,,None,,da,3,014,119.991433161,1C,auditory,2017_Nov_07_1322,
silence.wav,0,0,0,0,B,,,,,0,64,64,64,,,None,,da,3,014,119.991433161,1C,auditory,2017_Nov_07_1322,
silence.wav,0,0,0,0,B,,,,,0,65,65,65,,,None,,da,3,014,119.991433161,1C,auditory,2017_Nov_07_1322,
silence.wav,0,0,0,0,B,,,,,0,66,66,66,,,None,,da,3,014,119.991433161,1C,auditory,2017_Nov_07_1322,
silence.wav,0,0,0,0,B,,,,,0,67,67,67,,,None,,da,3,014,119.991433161,1C,auditory,2017_Nov_07_1322,
silence.wav,0,0,0,0,B,,,,,0,68,68,68,,,None,,da,3,014,119.991433161,1C,auditory,2017_Nov_07_1322,
silence.wav,0,0,0,0,B,,,,,0,69,69,69,,,None,,da,3,014,119.991433161,1C,auditory,2017_Nov_07_1322,
silence.wav,0,0,0,0,B,,,,,0,70,70,70,,,None,,da,3,014,119.991433161,1C,auditory,2017_Nov_07_1322,
silence.wav,0,0,0,0,B,,,,,0,71,71,71,,,None,,da,3,014,119.991433161,1C,auditory,2017_Nov_07_1322,
pi.wav,1,1,25,289,S,,,,,0,72,72,72,,,None,,da,3,014,119.991433161,1C,auditory,2017_Nov_07_1322,
tu.wav,1,2,25,290,S,,,,,0,73,73,73,,,None,,da,3,014,119.991433161,1C,auditory,2017_Nov_07_1322,
bi.wav,1,3,25,291,S,,,,,0,74,74,74,,,None,,da,3,014,119.991433161,1C,auditory,2017_Nov_07_1322,
di.wav,2,1,25,292,S,,,,,0,75,75,75,,,None,,da,3,014,119.991433161,1C,auditory,2017_Nov_07_1322,
ba.wav,2,2,25,293,S,,,,,0,76,76,76,,,None,,da,3,014,119.991433161,1C,auditory,2017_Nov_07_1322,
pu.wav,2,3,25,294,S,,,,,0,77,77,77,,,None,,da,3,014,119.991433161,1C,auditory,2017_Nov_07_1322,
ta.wav,3,1,25,295,S,,,,,0,78,78,78,,,None,,da,3,014,119.991433161,1C,auditory,2017_Nov_07_1322,
ti.wav,3,2,25,296,S,,,,,0,79,79,79,,,None,,da,3,014,119.991433161,1C,auditory,2017_Nov_07_1322,
du.wav,3,3,25,297,S,,,,,0,80,80,80,,,None,,da,3,014,119.991433161,1C,auditory,2017_Nov_07_1322,
pi.wav,1,1,26,298,S,,,,,0,81,81,81,,,None,,da,3,014,119.991433161,1C,auditory,2017_Nov_07_1322,
tu.wav,1,2,26,299,S,,,,,0,82,82,82,,,None,,da,3,014,119.991433161,1C,auditory,2017_Nov_07_1322,
bi.wav,1,3,26,300,S,,,,,0,83,83,83,,,None,,da,3,014,119.991433161,1C,auditory,2017_Nov_07_1322,
bu.wav,4,1,25,301,S,,,,,0,84,84,84,,,None,,da,3,014,119.991433161,1C,auditory,2017_Nov_07_1322,
pa.wav,4,2,25,302,S,,,,,0,85,85,85,,,None,,da,3,014,119.991433161,1C,auditory,2017_Nov_07_1322,
da.wav,4,3,25,303,S,,,,,0,86,86,86,,,None,,da,3,014,119.991433161,1C,auditory,2017_Nov_07_1322,
di.wav,2,1,26,304,S,,,,,0,87,87,87,,,3,0.383639741282,da,3,014,119.991433161,1C,auditory,2017_Nov_07_1322,
ba.wav,2,2,26,305,S,,,,,0,88,88,88,,,None,,da,3,014,119.991433161,1C,auditory,2017_Nov_07_1322,
pu.wav,2,3,26,306,S,,,,,0,89,89,89,,,None,,da,3,014,119.991433161,1C,auditory,2017_Nov_07_1322,
ta.wav,3,1,26,307,S,,,,,0,90,90,90,,,None,,da,3,014,119.991433161,1C,auditory,2017_Nov_07_1322,
ti.wav,3,2,26,308,S,,,,,0,91,91,91,,,None,,da,3,014,119.991433161,1C,auditory,2017_Nov_07_1322,
du.wav,3,3,26,309,S,,,,,0,92,92,92,,,None,,da,3,014,119.991433161,1C,auditory,2017_Nov_07_1322,
pi.wav,1,1,27,310,S,,,,,0,93,93,93,,,None,,da,3,014,119.991433161,1C,auditory,2017_Nov_07_1322,
tu.wav,1,2,27,311,S,,,,,0,94,94,94,,,None,,da,3,014,119.991433161,1C,auditory,2017_Nov_07_1322,
bi.wav,1,3,27,312,S,,,,,0,95,95,95,,,None,,da,3,014,119.991433161,1C,auditory,2017_Nov_07_1322,
3C.wav,0,1,1,265,R,0,0,0,0,,,,,None,,,,da,3,014,119.991433161,1C,auditory,2017_Nov_07_1322,
1A.wav,0,2,1,266,R,0,1,1,1,,,,,None,,,,da,3,014,119.991433161,1C,auditory,2017_Nov_07_1322,
4C.wav,0,3,1,267,R,0,2,2,2,,,,,None,,,,da,3,014,119.991433161,1C,auditory,2017_Nov_07_1322,
4B.wav,0,1,1,268,R,0,3,3,3,,,,,None,,,,da,3,014,119.991433161,1C,auditory,2017_Nov_07_1322,
1A.wav,0,2,1,269,R,0,4,4,4,,,,,None,,,,da,3,014,119.991433161,1C,auditory,2017_Nov_07_1322,
3B.wav,0,3,1,270,R,0,5,5,5,,,,,None,,,,da,3,014,119.991433161,1C,auditory,2017_Nov_07_1322,
2B.wav,0,1,1,271,R,0,6,6,6,,,,,None,,,,da,3,014,119.991433161,1C,auditory,2017_Nov_07_1322,
1C.wav,0,2,1,272,R,0,7,7,7,,,,,None,,,,da,3,014,119.991433161,1C,auditory,2017_Nov_07_1322,
3C.wav,0,3,1,273,R,0,8,8,8,,,,,None,,,,da,3,014,119.991433161,1C,auditory,2017_Nov_07_1322,
2C.wav,0,1,1,274,R,0,9,9,9,,,,,None,,,,da,3,014,119.991433161,1C,auditory,2017_Nov_07_1322,
4B.wav,0,2,1,275,R,0,10,10,10,,,,,None,,,,da,3,014,119.991433161,1C,auditory,2017_Nov_07_1322,
1B.wav,0,3,1,276,R,0,11,11,11,,,,,None,,,,da,3,014,119.991433161,1C,auditory,2017_Nov_07_1322,
4C.wav,0,1,1,277,R,0,12,12,12,,,,,None,,,,da,3,014,119.991433161,1C,auditory,2017_Nov_07_1322,
4A.wav,0,2,1,278,R,0,13,13,13,,,,,None,,,,da,3,014,119.991433161,1C,auditory,2017_Nov_07_1322,
1C.wav,0,3,1,279,R,0,14,14,14,,,,,None,,,,da,3,014,119.991433161,1C,auditory,2017_Nov_07_1322,
1B.wav,0,1,1,280,R,0,15,15,15,,,,,None,,,,da,3,014,119.991433161,1C,auditory,2017_Nov_07_1322,
1C.wav,0,2,1,281,R,0,16,16,16,,,,,None,,,,da,3,014,119.991433161,1C,auditory,2017_Nov_07_1322,
4A.wav,0,3,1,282,R,0,17,17,17,,,,,None,,,,da,3,014,119.991433161,1C,auditory,2017_Nov_07_1322,
1A.wav,0,1,1,283,R,0,18,18,18,,,,,None,,,,da,3,014,119.991433161,1C,auditory,2017_Nov_07_1322,
2A.wav,0,2,1,284,R,0,19,19,19,,,,,None,,,,da,3,014,119.991433161,1C,auditory,2017_Nov_07_1322,
3B.wav,0,3,1,285,R,0,20,20,20,,,,,None,,,,da,3,014,119.991433161,1C,auditory,2017_Nov_07_1322,
3A.wav,0,1,1,286,R,0,21,21,21,,,,,None,,,,da,3,014,119.991433161,1C,auditory,2017_Nov_07_1322,
3A.wav,0,2,1,287,R,0,22,22,22,,,,,3,0.32530992321,,,da,3,014,119.991433161,1C,auditory,2017_Nov_07_1322,
1B.wav,0,3,1,288,R,0,23,23,23,,,,,3,0.267037847254,,,da,3,014,119.991433161,1C,auditory,2017_Nov_07_1322,
silence.wav,0,0,0,0,B,0,24,24,24,,,,,None,,,,da,3,014,119.991433161,1C,auditory,2017_Nov_07_1322,
silence.wav,0,0,0,0,B,0,25,25,25,,,,,None,,,,da,3,014,119.991433161,1C,auditory,2017_Nov_07_1322,
silence.wav,0,0,0,0,B,0,26,26,26,,,,,None,,,,da,3,014,119.991433161,1C,auditory,2017_Nov_07_1322,
silence.wav,0,0,0,0,B,0,27,27,27,,,,,None,,,,da,3,014,119.991433161,1C,auditory,2017_Nov_07_1322,
silence.wav,0,0,0,0,B,0,28,28,28,,,,,None,,,,da,3,014,119.991433161,1C,auditory,2017_Nov_07_1322,
silence.wav,0,0,0,0,B,0,29,29,29,,,,,None,,,,da,3,014,119.991433161,1C,auditory,2017_Nov_07_1322,
silence.wav,0,0,0,0,B,0,30,30,30,,,,,None,,,,da,3,014,119.991433161,1C,auditory,2017_Nov_07_1322,
silence.wav,0,0,0,0,B,0,31,31,31,,,,,None,,,,da,3,014,119.991433161,1C,auditory,2017_Nov_07_1322,
silence.wav,0,0,0,0,B,0,32,32,32,,,,,None,,,,da,3,014,119.991433161,1C,auditory,2017_Nov_07_1322,
silence.wav,0,0,0,0,B,0,33,33,33,,,,,None,,,,da,3,014,119.991433161,1C,auditory,2017_Nov_07_1322,
silence.wav,0,0,0,0,B,0,34,34,34,,,,,None,,,,da,3,014,119.991433161,1C,auditory,2017_Nov_07_1322,
silence.wav,0,0,0,0,B,0,35,35,35,,,,,None,,,,da,3,014,119.991433161,1C,auditory,2017_Nov_07_1322,
3B.wav,0,1,1,289,R,0,36,36,36,,,,,None,,,,da,3,014,119.991433161,1C,auditory,2017_Nov_07_1322,
1B.wav,0,2,1,290,R,0,37,37,37,,,,,None,,,,da,3,014,119.991433161,1C,auditory,2017_Nov_07_1322,
1C.wav,0,3,1,291,R,0,38,38,38,,,,,None,,,,da,3,014,119.991433161,1C,auditory,2017_Nov_07_1322,
4C.wav,0,1,1,292,R,0,39,39,39,,,,,3,0.183608395571,,,da,3,014,119.991433161,1C,auditory,2017_Nov_07_1322,
2A.wav,0,2,1,293,R,0,40,40,40,,,,,None,,,,da,3,014,119.991433161,1C,auditory,2017_Nov_07_1322,
1B.wav,0,3,1,294,R,0,41,41,41,,,,,None,,,,da,3,014,119.991433161,1C,auditory,2017_Nov_07_1322,
4A.wav,0,1,1,295,R,0,42,42,42,,,,,None,,,,da,3,014,119.991433161,1C,auditory,2017_Nov_07_1322,
1A.wav,0,2,1,296,R,0,43,43,43,,,,,None,,,,da,3,014,119.991433161,1C,auditory,2017_Nov_07_1322,
3C.wav,0,3,1,297,R,0,44,44,44,,,,,None,,,,da,3,014,119.991433161,1C,auditory,2017_Nov_07_1322,
3A.wav,0,1,1,298,R,0,45,45,45,,,,,None,,,,da,3,014,119.991433161,1C,auditory,2017_Nov_07_1322,
3C.wav,0,2,1,299,R,0,46,46,46,,,,,3,0.125190399762,,,da,3,014,119.991433161,1C,auditory,2017_Nov_07_1322,
4A.wav,0,3,1,300,R,0,47,47,47,,,,,None,,,,da,3,014,119.991433161,1C,auditory,2017_Nov_07_1322,
3C.wav,0,1,1,301,R,0,48,48,48,,,,,None,,,,da,3,014,119.991433161,1C,auditory,2017_Nov_07_1322,
2C.wav,0,2,1,302,R,0,49,49,49,,,,,3,0.308697817673,,,da,3,014,119.991433161,1C,auditory,2017_Nov_07_1322,
3A.wav,0,3,1,303,R,0,50,50,50,,,,,None,,,,da,3,014,119.991433161,1C,auditory,2017_Nov_07_1322,
3A.wav,0,1,1,304,R,0,51,51,51,,,,,None,,,,da,3,014,119.991433161,1C,auditory,2017_Nov_07_1322,
2B.wav,0,2,1,305,R,0,52,52,52,,,,,3,0.22523650818,,,da,3,014,119.991433161,1C,auditory,2017_Nov_07_1322,
4C.wav,0,3,1,306,R,0,53,53,53,,,,,3,0.216971699789,,,da,3,014,119.991433161,1C,auditory,2017_Nov_07_1322,
1A.wav,0,1,1,307,R,0,54,54,54,,,,,None,,,,da,3,014,119.991433161,1C,auditory,2017_Nov_07_1322,
3B.wav,0,2,1,308,R,0,55,55,55,,,,,None,,,,da,3,014,119.991433161,1C,auditory,2017_Nov_07_1322,
4B.wav,0,3,1,309,R,0,56,56,56,,,,,None,,,,da,3,014,119.991433161,1C,auditory,2017_Nov_07_1322,
1C.wav,0,1,1,310,R,0,57,57,57,,,,,None,,,,da,3,014,119.991433161,1C,auditory,2017_Nov_07_1322,
3B.wav,0,2,1,311,R,0,58,58,58,,,,,None,,,,da,3,014,119.991433161,1C,auditory,2017_Nov_07_1322,
4B.wav,0,3,1,312,R,0,59,59,59,,,,,None,,,,da,3,014,119.991433161,1C,auditory,2017_Nov_07_1322,
silence.wav,0,0,0,0,B,0,60,60,60,,,,,None,,,,da,3,014,119.991433161,1C,auditory,2017_Nov_07_1322,
silence.wav,0,0,0,0,B,0,61,61,61,,,,,None,,,,da,3,014,119.991433161,1C,auditory,2017_Nov_07_1322,
silence.wav,0,0,0,0,B,0,62,62,62,,,,,None,,,,da,3,014,119.991433161,1C,auditory,2017_Nov_07_1322,
silence.wav,0,0,0,0,B,0,63,63,63,,,,,None,,,,da,3,014,119.991433161,1C,auditory,2017_Nov_07_1322,
silence.wav,0,0,0,0,B,0,64,64,64,,,,,None,,,,da,3,014,119.991433161,1C,auditory,2017_Nov_07_1322,
silence.wav,0,0,0,0,B,0,65,65,65,,,,,None,,,,da,3,014,119.991433161,1C,auditory,2017_Nov_07_1322,
silence.wav,0,0,0,0,B,0,66,66,66,,,,,None,,,,da,3,014,119.991433161,1C,auditory,2017_Nov_07_1322,
silence.wav,0,0,0,0,B,0,67,67,67,,,,,None,,,,da,3,014,119.991433161,1C,auditory,2017_Nov_07_1322,
silence.wav,0,0,0,0,B,0,68,68,68,,,,,None,,,,da,3,014,119.991433161,1C,auditory,2017_Nov_07_1322,
silence.wav,0,0,0,0,B,0,69,69,69,,,,,None,,,,da,3,014,119.991433161,1C,auditory,2017_Nov_07_1322,
silence.wav,0,0,0,0,B,0,70,70,70,,,,,None,,,,da,3,014,119.991433161,1C,auditory,2017_Nov_07_1322,
silence.wav,0,0,0,0,B,0,71,71,71,,,,,None,,,,da,3,014,119.991433161,1C,auditory,2017_Nov_07_1322,
bu.wav,4,1,26,313,S,,,,,0,0,0,0,,,None,,da,3,014,119.991433161,1C,auditory,2017_Nov_07_1322,
pa.wav,4,2,26,314,S,,,,,0,1,1,1,,,None,,da,3,014,119.991433161,1C,auditory,2017_Nov_07_1322,
da.wav,4,3,26,315,S,,,,,0,2,2,2,,,None,,da,3,014,119.991433161,1C,auditory,2017_Nov_07_1322,
di.wav,2,1,27,316,S,,,,,0,3,3,3,,,3,0.40863839729,da,3,014,119.991433161,1C,auditory,2017_Nov_07_1322,
ba.wav,2,2,27,317,S,,,,,0,4,4,4,,,None,,da,3,014,119.991433161,1C,auditory,2017_Nov_07_1322,
pu.wav,2,3,27,318,S,,,,,0,5,5,5,,,None,,da,3,014,119.991433161,1C,auditory,2017_Nov_07_1322,
bu.wav,4,1,27,319,S,,,,,0,6,6,6,,,None,,da,3,014,119.991433161,1C,auditory,2017_Nov_07_1322,
pa.wav,4,2,27,320,S,,,,,0,7,7,7,,,None,,da,3,014,119.991433161,1C,auditory,2017_Nov_07_1322,
da.wav,4,3,27,321,S,,,,,0,8,8,8,,,None,,da,3,014,119.991433161,1C,auditory,2017_Nov_07_1322,
ta.wav,3,1,27,322,S,,,,,0,9,9,9,,,3,0.266959056258,da,3,014,119.991433161,1C,auditory,2017_Nov_07_1322,
ti.wav,3,2,27,323,S,,,,,0,10,10,10,,,None,,da,3,014,119.991433161,1C,auditory,2017_Nov_07_1322,
du.wav,3,3,27,324,S,,,,,0,11,11,11,,,None,,da,3,014,119.991433161,1C,auditory,2017_Nov_07_1322,
pi.wav,1,1,28,325,S,,,,,0,12,12,12,,,None,,da,3,014,119.991433161,1C,auditory,2017_Nov_07_1322,
tu.wav,1,2,28,326,S,,,,,0,13,13,13,,,None,,da,3,014,119.991433161,1C,auditory,2017_Nov_07_1322,
bi.wav,1,3,28,327,S,,,,,0,14,14,14,,,None,,da,3,014,119.991433161,1C,auditory,2017_Nov_07_1322,
ta.wav,3,1,28,328,S,,,,,0,15,15,15,,,None,,da,3,014,119.991433161,1C,auditory,2017_Nov_07_1322,
ti.wav,3,2,28,329,S,,,,,0,16,16,16,,,None,,da,3,014,119.991433161,1C,auditory,2017_Nov_07_1322,
du.wav,3,3,28,330,S,,,,,0,17,17,17,,,None,,da,3,014,119.991433161,1C,auditory,2017_Nov_07_1322,
pi.wav,1,1,29,331,S,,,,,0,18,18,18,,,None,,da,3,014,119.991433161,1C,auditory,2017_Nov_07_1322,
tu.wav,1,2,29,332,S,,,,,0,19,19,19,,,None,,da,3,014,119.991433161,1C,auditory,2017_Nov_07_1322,
bi.wav,1,3,29,333,S,,,,,0,20,20,20,,,None,,da,3,014,119.991433161,1C,auditory,2017_Nov_07_1322,
bu.wav,4,1,28,334,S,,,,,0,21,21,21,,,None,,da,3,014,119.991433161,1C,auditory,2017_Nov_07_1322,
pa.wav,4,2,28,335,S,,,,,0,22,22,22,,,None,,da,3,014,119.991433161,1C,auditory,2017_Nov_07_1322,
da.wav,4,3,28,336,S,,,,,0,23,23,23,,,None,,da,3,014,119.991433161,1C,auditory,2017_Nov_07_1322,
silence.wav,0,0,0,0,B,,,,,0,24,24,24,,,3,0.291929836734,da,3,014,119.991433161,1C,auditory,2017_Nov_07_1322,
silence.wav,0,0,0,0,B,,,,,0,25,25,25,,,None,,da,3,014,119.991433161,1C,auditory,2017_Nov_07_1322,
silence.wav,0,0,0,0,B,,,,,0,26,26,26,,,None,,da,3,014,119.991433161,1C,auditory,2017_Nov_07_1322,
silence.wav,0,0,0,0,B,,,,,0,27,27,27,,,None,,da,3,014,119.991433161,1C,auditory,2017_Nov_07_1322,
silence.wav,0,0,0,0,B,,,,,0,28,28,28,,,None,,da,3,014,119.991433161,1C,auditory,2017_Nov_07_1322,
silence.wav,0,0,0,0,B,,,,,0,29,29,29,,,None,,da,3,014,119.991433161,1C,auditory,2017_Nov_07_1322,
silence.wav,0,0,0,0,B,,,,,0,30,30,30,,,None,,da,3,014,119.991433161,1C,auditory,2017_Nov_07_1322,
silence.wav,0,0,0,0,B,,,,,0,31,31,31,,,None,,da,3,014,119.991433161,1C,auditory,2017_Nov_07_1322,
silence.wav,0,0,0,0,B,,,,,0,32,32,32,,,None,,da,3,014,119.991433161,1C,auditory,2017_Nov_07_1322,
silence.wav,0,0,0,0,B,,,,,0,33,33,33,,,None,,da,3,014,119.991433161,1C,auditory,2017_Nov_07_1322,
silence.wav,0,0,0,0,B,,,,,0,34,34,34,,,None,,da,3,014,119.991433161,1C,auditory,2017_Nov_07_1322,
silence.wav,0,0,0,0,B,,,,,0,35,35,35,,,None,,da,3,014,119.991433161,1C,auditory,2017_Nov_07_1322,
4A.wav,0,1,1,337,R,0,0,0,0,,,,,None,,,,da,3,014,119.991433161,1C,auditory,2017_Nov_07_1322,
3B.wav,0,2,1,338,R,0,1,1,1,,,,,None,,,,da,3,014,119.991433161,1C,auditory,2017_Nov_07_1322,
1C.wav,0,3,1,339,R,0,2,2,2,,,,,None,,,,da,3,014,119.991433161,1C,auditory,2017_Nov_07_1322,
3A.wav,0,1,1,340,R,0,3,3,3,,,,,None,,,,da,3,014,119.991433161,1C,auditory,2017_Nov_07_1322,
2C.wav,0,2,1,341,R,0,4,4,4,,,,,3,0.0752752920962,,,da,3,014,119.991433161,1C,auditory,2017_Nov_07_1322,
4B.wav,0,3,1,342,R,0,5,5,5,,,,,None,,,,da,3,014,119.991433161,1C,auditory,2017_Nov_07_1322,
3A.wav,0,1,1,343,R,0,6,6,6,,,,,None,,,,da,3,014,119.991433161,1C,auditory,2017_Nov_07_1322,
2A.wav,0,2,1,344,R,0,7,7,7,,,,,None,,,,da,3,014,119.991433161,1C,auditory,2017_Nov_07_1322,
1B.wav,0,3,1,345,R,0,8,8,8,,,,,3,0.0835628560162,,,da,3,014,119.991433161,1C,auditory,2017_Nov_07_1322,
4A.wav,0,1,1,346,R,0,9,9,9,,,,,None,,,,da,3,014,119.991433161,1C,auditory,2017_Nov_07_1322,
2A.wav,0,2,1,347,R,0,10,10,10,,,,,None,,,,da,3,014,119.991433161,1C,auditory,2017_Nov_07_1322,
2B.wav,0,3,1,348,R,0,11,11,11,,,,,None,,,,da,3,014,119.991433161,1C,auditory,2017_Nov_07_1322,
3C.wav,0,1,1,349,R,0,12,12,12,,,,,None,,,,da,3,014,119.991433161,1C,auditory,2017_Nov_07_1322,
3C.wav,0,2,1,350,R,0,13,13,13,,,,,None,,,,da,3,014,119.991433161,1C,auditory,2017_Nov_07_1322,
2A.wav,0,3,1,351,R,0,14,14,14,,,,,None,,,,da,3,014,119.991433161,1C,auditory,2017_Nov_07_1322,
4B.wav,0,1,1,352,R,0,15,15,15,,,,,None,,,,da,3,014,119.991433161,1C,auditory,2017_Nov_07_1322,
4C.wav,0,2,1,353,R,0,16,16,16,,,,,None,,,,da,3,014,119.991433161,1C,auditory,2017_Nov_07_1322,
2C.wav,0,3,1,354,R,0,17,17,17,,,,,None,,,,da,3,014,119.991433161,1C,auditory,2017_Nov_07_1322,
2B.wav,0,1,1,355,R,0,18,18,18,,,,,None,,,,da,3,014,119.991433161,1C,auditory,2017_Nov_07_1322,
1A.wav,0,2,1,356,R,0,19,19,19,,,,,None,,,,da,3,014,119.991433161,1C,auditory,2017_Nov_07_1322,
2C.wav,0,3,1,357,R,0,20,20,20,,,,,3,0.125245581905,,,da,3,014,119.991433161,1C,auditory,2017_Nov_07_1322,
4C.wav,0,1,1,358,R,0,21,21,21,,,,,None,,,,da,3,014,119.991433161,1C,auditory,2017_Nov_07_1322,
2B.wav,0,2,1,359,R,0,22,22,22,,,,,None,,,,da,3,014,119.991433161,1C,auditory,2017_Nov_07_1322,
3B.wav,0,3,1,360,R,0,23,23,23,,,,,None,,,,da,3,014,119.991433161,1C,auditory,2017_Nov_07_1322,
di.wav,2,1,28,337,S,,,,,0,0,0,0,,,None,,da,3,014,119.991433161,1C,auditory,2017_Nov_07_1322,
ba.wav,2,2,28,338,S,,,,,0,1,1,1,,,None,,da,3,014,119.991433161,1C,auditory,2017_Nov_07_1322,
pu.wav,2,3,28,339,S,,,,,0,2,2,2,,,None,,da,3,014,119.991433161,1C,auditory,2017_Nov_07_1322,
ta.wav,3,1,29,340,S,,,,,0,3,3,3,,,None,,da,3,014,119.991433161,1C,auditory,2017_Nov_07_1322,
ti.wav,3,2,29,341,S,,,,,0,4,4,4,,,None,,da,3,014,119.991433161,1C,auditory,2017_Nov_07_1322,
du.wav,3,3,29,342,S,,,,,0,5,5,5,,,None,,da,3,014,119.991433161,1C,auditory,2017_Nov_07_1322,
pi.wav,1,1,30,343,S,,,,,0,6,6,6,,,None,,da,3,014,119.991433161,1C,auditory,2017_Nov_07_1322,
tu.wav,1,2,30,344,S,,,,,0,7,7,7,,,None,,da,3,014,119.991433161,1C,auditory,2017_Nov_07_1322,
bi.wav,1,3,30,345,S,,,,,0,8,8,8,,,None,,da,3,014,119.991433161,1C,auditory,2017_Nov_07_1322,
bu.wav,4,1,29,346,S,,,,,0,9,9,9,,,None,,da,3,014,119.991433161,1C,auditory,2017_Nov_07_1322,
pa.wav,4,2,29,347,S,,,,,0,10,10,10,,,None,,da,3,014,119.991433161,1C,auditory,2017_Nov_07_1322,
da.wav,4,3,29,348,S,,,,,0,11,11,11,,,None,,da,3,014,119.991433161,1C,auditory,2017_Nov_07_1322,
di.wav,2,1,29,349,S,,,,,0,12,12,12,,,3,0.325301105389,da,3,014,119.991433161,1C,auditory,2017_Nov_07_1322,
ba.wav,2,2,29,350,S,,,,,0,13,13,13,,,None,,da,3,014,119.991433161,1C,auditory,2017_Nov_07_1322,
pu.wav,2,3,29,351,S,,,,,0,14,14,14,,,None,,da,3,014,119.991433161,1C,auditory,2017_Nov_07_1322,
bu.wav,4,1,30,352,S,,,,,0,15,15,15,,,None,,da,3,014,119.991433161,1C,auditory,2017_Nov_07_1322,
pa.wav,4,2,30,353,S,,,,,0,16,16,16,,,None,,da,3,014,119.991433161,1C,auditory,2017_Nov_07_1322,
da.wav,4,3,30,354,S,,,,,0,17,17,17,,,None,,da,3,014,119.991433161,1C,auditory,2017_Nov_07_1322,
pi.wav,1,1,31,355,S,,,,,0,18,18,18,,,3,0.441951923829,da,3,014,119.991433161,1C,auditory,2017_Nov_07_1322,
tu.wav,1,2,31,356,S,,,,,0,19,19,19,,,None,,da,3,014,119.991433161,1C,auditory,2017_Nov_07_1322,
bi.wav,1,3,31,357,S,,,,,0,20,20,20,,,None,,da,3,014,119.991433161,1C,auditory,2017_Nov_07_1322,
ta.wav,3,1,30,358,S,,,,,0,21,21,21,,,None,,da,3,014,119.991433161,1C,auditory,2017_Nov_07_1322,
ti.wav,3,2,30,359,S,,,,,0,22,22,22,,,None,,da,3,014,119.991433161,1C,auditory,2017_Nov_07_1322,
du.wav,3,3,30,360,S,,,,,0,23,23,23,,,None,,da,3,014,119.991433161,1C,auditory,2017_Nov_07_1322,
silence.wav,0,0,0,0,B,,,,,0,24,24,24,,,None,,da,3,014,119.991433161,1C,auditory,2017_Nov_07_1322,
silence.wav,0,0,0,0,B,,,,,0,25,25,25,,,None,,da,3,014,119.991433161,1C,auditory,2017_Nov_07_1322,
silence.wav,0,0,0,0,B,,,,,0,26,26,26,,,None,,da,3,014,119.991433161,1C,auditory,2017_Nov_07_1322,
silence.wav,0,0,0,0,B,,,,,0,27,27,27,,,None,,da,3,014,119.991433161,1C,auditory,2017_Nov_07_1322,
silence.wav,0,0,0,0,B,,,,,0,28,28,28,,,None,,da,3,014,119.991433161,1C,auditory,2017_Nov_07_1322,
silence.wav,0,0,0,0,B,,,,,0,29,29,29,,,None,,da,3,014,119.991433161,1C,auditory,2017_Nov_07_1322,
silence.wav,0,0,0,0,B,,,,,0,30,30,30,,,None,,da,3,014,119.991433161,1C,auditory,2017_Nov_07_1322,
silence.wav,0,0,0,0,B,,,,,0,31,31,31,,,None,,da,3,014,119.991433161,1C,auditory,2017_Nov_07_1322,
silence.wav,0,0,0,0,B,,,,,0,32,32,32,,,None,,da,3,014,119.991433161,1C,auditory,2017_Nov_07_1322,
silence.wav,0,0,0,0,B,,,,,0,33,33,33,,,None,,da,3,014,119.991433161,1C,auditory,2017_Nov_07_1322,
silence.wav,0,0,0,0,B,,,,,0,34,34,34,,,None,,da,3,014,119.991433161,1C,auditory,2017_Nov_07_1322,
silence.wav,0,0,0,0,B,,,,,0,35,35,35,,,None,,da,3,014,119.991433161,1C,auditory,2017_Nov_07_1322,
2A.wav,0,1,1,313,R,0,0,0,0,,,,,None,,,,da,3,014,119.991433161,1C,auditory,2017_Nov_07_1322,
3A.wav,0,2,1,314,R,0,1,1,1,,,,,None,,,,da,3,014,119.991433161,1C,auditory,2017_Nov_07_1322,
4A.wav,0,3,1,315,R,0,2,2,2,,,,,None,,,,da,3,014,119.991433161,1C,auditory,2017_Nov_07_1322,
1B.wav,0,1,1,316,R,0,3,3,3,,,,,None,,,,da,3,014,119.991433161,1C,auditory,2017_Nov_07_1322,
2B.wav,0,2,1,317,R,0,4,4,4,,,,,None,,,,da,3,014,119.991433161,1C,auditory,2017_Nov_07_1322,
1C.wav,0,3,1,318,R,0,5,5,5,,,,,3,0.183540128928,,,da,3,014,119.991433161,1C,auditory,2017_Nov_07_1322,
1C.wav,0,1,1,319,R,0,6,6,6,,,,,None,,,,da,3,014,119.991433161,1C,auditory,2017_Nov_07_1322,
1B.wav,0,2,1,320,R,0,7,7,7,,,,,None,,,,da,3,014,119.991433161,1C,auditory,2017_Nov_07_1322,
2C.wav,0,3,1,321,R,0,8,8,8,,,,,None,,,,da,3,014,119.991433161,1C,auditory,2017_Nov_07_1322,
4A.wav,0,1,1,322,R,0,9,9,9,,,,,None,,,,da,3,014,119.991433161,1C,auditory,2017_Nov_07_1322,
4B.wav,0,2,1,323,R,0,10,10,10,,,,,None,,,,da,3,014,119.991433161,1C,auditory,2017_Nov_07_1322,
3C.wav,0,3,1,324,R,0,11,11,11,,,,,None,,,,da,3,014,119.991433161,1C,auditory,2017_Nov_07_1322,
3B.wav,0,1,1,325,R,0,12,12,12,,,,,None,,,,da,3,014,119.991433161,1C,auditory,2017_Nov_07_1322,
4C.wav,0,2,1,326,R,0,13,13,13,,,,,None,,,,da,3,014,119.991433161,1C,auditory,2017_Nov_07_1322,
3C.wav,0,3,1,327,R,0,14,14,14,,,,,None,,,,da,3,014,119.991433161,1C,auditory,2017_Nov_07_1322,
4C.wav,0,1,1,328,R,0,15,15,15,,,,,None,,,,da,3,014,119.991433161,1C,auditory,2017_Nov_07_1322,
2B.wav,0,2,1,329,R,0,16,16,16,,,,,None,,,,da,3,014,119.991433161,1C,auditory,2017_Nov_07_1322,
1A.wav,0,3,1,330,R,0,17,17,17,,,,,None,,,,da,3,014,119.991433161,1C,auditory,2017_Nov_07_1322,
1A.wav,0,1,1,331,R,0,18,18,18,,,,,3,0.0502652583527,,,da,3,014,119.991433161,1C,auditory,2017_Nov_07_1322,
2C.wav,0,2,1,332,R,0,19,19,19,,,,,None,,,,da,3,014,119.991433161,1C,auditory,2017_Nov_07_1322,
2A.wav,0,3,1,333,R,0,20,20,20,,,,,None,,,,da,3,014,119.991433161,1C,auditory,2017_Nov_07_1322,
3A.wav,0,1,1,334,R,0,21,21,21,,,,,None,,,,da,3,014,119.991433161,1C,auditory,2017_Nov_07_1322,
3B.wav,0,2,1,335,R,0,22,22,22,,,,,None,,,,da,3,014,119.991433161,1C,auditory,2017_Nov_07_1322,
4B.wav,0,3,1,336,R,0,23,23,23,,,,,None,,,,da,3,014,119.991433161,1C,auditory,2017_Nov_07_1322,
silence.wav,0,0,0,0,B,0,24,24,24,,,,,None,,,,da,3,014,119.991433161,1C,auditory,2017_Nov_07_1322,
silence.wav,0,0,0,0,B,0,25,25,25,,,,,None,,,,da,3,014,119.991433161,1C,auditory,2017_Nov_07_1322,
silence.wav,0,0,0,0,B,0,26,26,26,,,,,None,,,,da,3,014,119.991433161,1C,auditory,2017_Nov_07_1322,
silence.wav,0,0,0,0,B,0,27,27,27,,,,,3,0.034078965662,,,da,3,014,119.991433161,1C,auditory,2017_Nov_07_1322,
silence.wav,0,0,0,0,B,0,28,28,28,,,,,None,,,,da,3,014,119.991433161,1C,auditory,2017_Nov_07_1322,
silence.wav,0,0,0,0,B,0,29,29,29,,,,,None,,,,da,3,014,119.991433161,1C,auditory,2017_Nov_07_1322,
silence.wav,0,0,0,0,B,0,30,30,30,,,,,None,,,,da,3,014,119.991433161,1C,auditory,2017_Nov_07_1322,
silence.wav,0,0,0,0,B,0,31,31,31,,,,,None,,,,da,3,014,119.991433161,1C,auditory,2017_Nov_07_1322,
silence.wav,0,0,0,0,B,0,32,32,32,,,,,None,,,,da,3,014,119.991433161,1C,auditory,2017_Nov_07_1322,
silence.wav,0,0,0,0,B,0,33,33,33,,,,,None,,,,da,3,014,119.991433161,1C,auditory,2017_Nov_07_1322,
silence.wav,0,0,0,0,B,0,34,34,34,,,,,None,,,,da,3,014,119.991433161,1C,auditory,2017_Nov_07_1322,
silence.wav,0,0,0,0,B,0,35,35,35,,,,,None,,,,da,3,014,119.991433161,1C,auditory,2017_Nov_07_1322,
di.wav,2,1,30,361,S,,,,,0,0,0,0,,,None,,da,3,014,119.991433161,1C,auditory,2017_Nov_07_1322,
ba.wav,2,2,30,362,S,,,,,0,1,1,1,,,None,,da,3,014,119.991433161,1C,auditory,2017_Nov_07_1322,
pu.wav,2,3,30,363,S,,,,,0,2,2,2,,,None,,da,3,014,119.991433161,1C,auditory,2017_Nov_07_1322,
pi.wav,1,1,32,364,S,,,,,0,3,3,3,,,None,,da,3,014,119.991433161,1C,auditory,2017_Nov_07_1322,
tu.wav,1,2,32,365,S,,,,,0,4,4,4,,,None,,da,3,014,119.991433161,1C,auditory,2017_Nov_07_1322,
bi.wav,1,3,32,366,S,,,,,0,5,5,5,,,None,,da,3,014,119.991433161,1C,auditory,2017_Nov_07_1322,
bu.wav,4,1,31,367,S,,,,,0,6,6,6,,,None,,da,3,014,119.991433161,1C,auditory,2017_Nov_07_1322,
pa.wav,4,2,31,368,S,,,,,0,7,7,7,,,None,,da,3,014,119.991433161,1C,auditory,2017_Nov_07_1322,
da.wav,4,3,31,369,S,,,,,0,8,8,8,,,None,,da,3,014,119.991433161,1C,auditory,2017_Nov_07_1322,
ta.wav,3,1,31,370,S,,,,,0,9,9,9,,,3,0.391910807404,da,3,014,119.991433161,1C,auditory,2017_Nov_07_1322,
ti.wav,3,2,31,371,S,,,,,0,10,10,10,,,None,,da,3,014,119.991433161,1C,auditory,2017_Nov_07_1322,
du.wav,3,3,31,372,S,,,,,0,11,11,11,,,None,,da,3,014,119.991433161,1C,auditory,2017_Nov_07_1322,
di.wav,2,1,31,373,S,,,,,0,12,12,12,,,None,,da,3,014,119.991433161,1C,auditory,2017_Nov_07_1322,
ba.wav,2,2,31,374,S,,,,,0,13,13,13,,,None,,da,3,014,119.991433161,1C,auditory,2017_Nov_07_1322,
pu.wav,2,3,31,375,S,,,,,0,14,14,14,,,None,,da,3,014,119.991433161,1C,auditory,2017_Nov_07_1322,
bu.wav,4,1,32,376,S,,,,,0,15,15,15,,,None,,da,3,014,119.991433161,1C,auditory,2017_Nov_07_1322,
pa.wav,4,2,32,377,S,,,,,0,16,16,16,,,None,,da,3,014,119.991433161,1C,auditory,2017_Nov_07_1322,
da.wav,4,3,32,378,S,,,,,0,17,17,17,,,None,,da,3,014,119.991433161,1C,auditory,2017_Nov_07_1322,
ta.wav,3,1,32,382,S,,,,,0,18,18,18,,,None,,da,3,014,119.991433161,1C,auditory,2017_Nov_07_1322,
ti.wav,3,2,32,383,S,,,,,0,19,19,19,,,3,0.00025628414005,da,3,014,119.991433161,1C,auditory,2017_Nov_07_1322,
du.wav,3,3,32,384,S,,,,,0,20,20,20,,,None,,da,3,014,119.991433161,1C,auditory,2017_Nov_07_1322,
di.wav,2,1,32,388,S,,,,,0,21,21,21,,,None,,da,3,014,119.991433161,1C,auditory,2017_Nov_07_1322,
ba.wav,2,2,32,389,S,,,,,0,22,22,22,,,None,,da,3,014,119.991433161,1C,auditory,2017_Nov_07_1322,
pu.wav,2,3,32,390,S,,,,,0,23,23,23,,,None,,da,3,014,119.991433161,1C,auditory,2017_Nov_07_1322,
4B.wav,0,1,1,361,R,0,0,0,0,,,,,None,,,,da,3,014,119.991433161,1C,auditory,2017_Nov_07_1322,
4A.wav,0,2,1,362,R,0,1,1,1,,,,,None,,,,da,3,014,119.991433161,1C,auditory,2017_Nov_07_1322,
2B.wav,0,3,1,363,R,0,2,2,2,,,,,None,,,,da,3,014,119.991433161,1C,auditory,2017_Nov_07_1322,
1A.wav,0,1,1,364,R,0,3,3,3,,,,,None,,,,da,3,014,119.991433161,1C,auditory,2017_Nov_07_1322,
4C.wav,0,2,1,365,R,0,4,4,4,,,,,None,,,,da,3,014,119.991433161,1C,auditory,2017_Nov_07_1322,
2A.wav,0,3,1,366,R,0,5,5,5,,,,,None,,,,da,3,014,119.991433161,1C,auditory,2017_Nov_07_1322,
3C.wav,0,1,1,367,R,0,6,6,6,,,,,None,,,,da,3,014,119.991433161,1C,auditory,2017_Nov_07_1322,
1B.wav,0,2,1,368,R,0,7,7,7,,,,,None,,,,da,3,014,119.991433161,1C,auditory,2017_Nov_07_1322,
1B.wav,0,3,1,369,R,0,8,8,8,,,,,None,,,,da,3,014,119.991433161,1C,auditory,2017_Nov_07_1322,
2C.wav,0,1,1,370,R,0,9,9,9,,,,,None,,,,da,3,014,119.991433161,1C,auditory,2017_Nov_07_1322,
2A.wav,0,2,1,371,R,0,10,10,10,,,,,None,,,,da,3,014,119.991433161,1C,auditory,2017_Nov_07_1322,
4B.wav,0,3,1,372,R,0,11,11,11,,,,,None,,,,da,3,014,119.991433161,1C,auditory,2017_Nov_07_1322,
1C.wav,0,1,1,373,R,0,12,12,12,,,,,None,,,,da,3,014,119.991433161,1C,auditory,2017_Nov_07_1322,
2B.wav,0,2,1,374,R,0,13,13,13,,,,,3,0.233605991991,,,da,3,014,119.991433161,1C,auditory,2017_Nov_07_1322,
1C.wav,0,3,1,375,R,0,14,14,14,,,,,None,,,,da,3,014,119.991433161,1C,auditory,2017_Nov_07_1322,
4A.wav,0,1,1,376,R,0,15,15,15,,,,,None,,,,da,3,014,119.991433161,1C,auditory,2017_Nov_07_1322,
1A.wav,0,2,1,377,R,0,16,16,16,,,,,3,0.158579019597,,,da,3,014,119.991433161,1C,auditory,2017_Nov_07_1322,
3A.wav,0,3,1,378,R,0,17,17,17,,,,,None,,,,da,3,014,119.991433161,1C,auditory,2017_Nov_07_1322,
1B.wav,0,1,1,379,R,0,18,18,18,,,,,3,0.266930327401,,,da,3,014,119.991433161,1C,auditory,2017_Nov_07_1322,
1A.wav,0,2,1,380,R,0,19,19,19,,,,,None,,,,da,3,014,119.991433161,1C,auditory,2017_Nov_07_1322,
2C.wav,0,3,1,381,R,0,20,20,20,,,,,None,,,,da,3,014,119.991433161,1C,auditory,2017_Nov_07_1322,
3B.wav,0,1,1,382,R,0,21,21,21,,,,,None,,,,da,3,014,119.991433161,1C,auditory,2017_Nov_07_1322,
4C.wav,0,2,1,383,R,0,22,22,22,,,,,None,,,,da,3,014,119.991433161,1C,auditory,2017_Nov_07_1322,
1C.wav,0,3,1,384,R,0,23,23,23,,,,,None,,,,da,3,014,119.991433161,1C,auditory,2017_Nov_07_1322,
