word,location,image,repetition,trialnum,condition,v_block_trials.thisRepN,v_block_trials.thisTrialN,v_block_trials.thisN,v_block_trials.thisIndex,l_block_trial_loop.thisRepN,l_block_trial_loop.thisTrialN,l_block_trial_loop.thisN,l_block_trial_loop.thisIndex,blank_block_trial_loop.thisRepN,blank_block_trial_loop.thisTrialN,blank_block_trial_loop.thisN,blank_block_trial_loop.thisIndex,v_block_trial_key_resp.keys,l_block_trial_key_resp.keys,l_block_trial_key_resp.rt,v_block_trial_key_resp.rt,blank_block_trial_key_resp.keys,Run,vtarget,PartID,ltarget,frameRate,expName,date,
1,1,Alien4.bmp,1,1,S,0,0,0,0,,,,,,,,,None,,,,,4,9,011,B,119.993480896,visual,2017_Nov_03_1007,
1,2,Alien5.bmp,1,2,S,0,1,1,1,,,,,,,,,None,,,,,4,9,011,B,119.993480896,visual,2017_Nov_03_1007,
1,3,Alien6.bmp,1,3,S,0,2,2,2,,,,,,,,,None,,,,,4,9,011,B,119.993480896,visual,2017_Nov_03_1007,
2,1,Alien1.bmp,1,4,S,0,3,3,3,,,,,,,,,None,,,,,4,9,011,B,119.993480896,visual,2017_Nov_03_1007,
2,2,Alien2.bmp,1,5,S,0,4,4,4,,,,,,,,,None,,,,,4,9,011,B,119.993480896,visual,2017_Nov_03_1007,
2,3,Alien3.bmp,1,6,S,0,5,5,5,,,,,,,,,None,,,,,4,9,011,B,119.993480896,visual,2017_Nov_03_1007,
3,1,Alien10.bmp,1,7,S,0,6,6,6,,,,,,,,,None,,,,,4,9,011,B,119.993480896,visual,2017_Nov_03_1007,
3,2,Alien11.bmp,1,8,S,0,7,7,7,,,,,,,,,None,,,,,4,9,011,B,119.993480896,visual,2017_Nov_03_1007,
3,3,Alien12.bmp,1,9,S,0,8,8,8,,,,,,,,,None,,,,,4,9,011,B,119.993480896,visual,2017_Nov_03_1007,
1,1,Alien4.bmp,2,10,S,0,9,9,9,,,,,,,,,None,,,,,4,9,011,B,119.993480896,visual,2017_Nov_03_1007,
1,2,Alien5.bmp,2,11,S,0,10,10,10,,,,,,,,,None,,,,,4,9,011,B,119.993480896,visual,2017_Nov_03_1007,
1,3,Alien6.bmp,2,12,S,0,11,11,11,,,,,,,,,None,,,,,4,9,011,B,119.993480896,visual,2017_Nov_03_1007,
4,1,Alien7.bmp,1,13,S,0,12,12,12,,,,,,,,,None,,,,,4,9,011,B,119.993480896,visual,2017_Nov_03_1007,
4,2,Alien8.bmp,1,14,S,0,13,13,13,,,,,,,,,None,,,,,4,9,011,B,119.993480896,visual,2017_Nov_03_1007,
4,3,Alien9.bmp,1,15,S,0,14,14,14,,,,,,,,,None,,,,,4,9,011,B,119.993480896,visual,2017_Nov_03_1007,
2,1,Alien1.bmp,2,16,S,0,15,15,15,,,,,,,,,None,,,,,4,9,011,B,119.993480896,visual,2017_Nov_03_1007,
2,2,Alien2.bmp,2,17,S,0,16,16,16,,,,,,,,,None,,,,,4,9,011,B,119.993480896,visual,2017_Nov_03_1007,
2,3,Alien3.bmp,2,18,S,0,17,17,17,,,,,,,,,None,,,,,4,9,011,B,119.993480896,visual,2017_Nov_03_1007,
3,1,Alien10.bmp,2,19,S,0,18,18,18,,,,,,,,,None,,,,,4,9,011,B,119.993480896,visual,2017_Nov_03_1007,
3,2,Alien11.bmp,2,20,S,0,19,19,19,,,,,,,,,None,,,,,4,9,011,B,119.993480896,visual,2017_Nov_03_1007,
3,3,Alien12.bmp,2,21,S,0,20,20,20,,,,,,,,,None,,,,,4,9,011,B,119.993480896,visual,2017_Nov_03_1007,
1,1,Alien4.bmp,3,22,S,0,21,21,21,,,,,,,,,None,,,,,4,9,011,B,119.993480896,visual,2017_Nov_03_1007,
1,2,Alien5.bmp,3,23,S,0,22,22,22,,,,,,,,,None,,,,,4,9,011,B,119.993480896,visual,2017_Nov_03_1007,
1,3,Alien6.bmp,3,24,S,0,23,23,23,,,,,,,,,None,,,,,4,9,011,B,119.993480896,visual,2017_Nov_03_1007,
0,0,blank.png,0,0,B,0,24,24,24,,,,,,,,,None,,,,,4,9,011,B,119.993480896,visual,2017_Nov_03_1007,
0,0,blank.png,0,0,B,0,25,25,25,,,,,,,,,None,,,,,4,9,011,B,119.993480896,visual,2017_Nov_03_1007,
0,0,blank.png,0,0,B,0,26,26,26,,,,,,,,,None,,,,,4,9,011,B,119.993480896,visual,2017_Nov_03_1007,
0,0,blank.png,0,0,B,0,27,27,27,,,,,,,,,None,,,,,4,9,011,B,119.993480896,visual,2017_Nov_03_1007,
0,0,blank.png,0,0,B,0,28,28,28,,,,,,,,,None,,,,,4,9,011,B,119.993480896,visual,2017_Nov_03_1007,
0,0,blank.png,0,0,B,0,29,29,29,,,,,,,,,None,,,,,4,9,011,B,119.993480896,visual,2017_Nov_03_1007,
0,0,blank.png,0,0,B,0,30,30,30,,,,,,,,,None,,,,,4,9,011,B,119.993480896,visual,2017_Nov_03_1007,
0,0,blank.png,0,0,B,0,31,31,31,,,,,,,,,None,,,,,4,9,011,B,119.993480896,visual,2017_Nov_03_1007,
0,0,blank.png,0,0,B,0,32,32,32,,,,,,,,,None,,,,,4,9,011,B,119.993480896,visual,2017_Nov_03_1007,
0,0,blank.png,0,0,B,0,33,33,33,,,,,,,,,None,,,,,4,9,011,B,119.993480896,visual,2017_Nov_03_1007,
0,0,blank.png,0,0,B,0,34,34,34,,,,,,,,,None,,,,,4,9,011,B,119.993480896,visual,2017_Nov_03_1007,
0,0,blank.png,0,0,B,0,35,35,35,,,,,,,,,None,,,,,4,9,011,B,119.993480896,visual,2017_Nov_03_1007,
0,1,B.png,1,1,R,,,,,0,0,0,0,,,,,,3,0.112958733691,,,4,9,011,B,119.993480896,visual,2017_Nov_03_1007,
0,2,A.png,1,2,R,,,,,0,1,1,1,,,,,,None,,,,4,9,011,B,119.993480896,visual,2017_Nov_03_1007,
0,3,K.png,1,3,R,,,,,0,2,2,2,,,,,,None,,,,4,9,011,B,119.993480896,visual,2017_Nov_03_1007,
0,1,D.png,1,4,R,,,,,0,3,3,3,,,,,,None,,,,4,9,011,B,119.993480896,visual,2017_Nov_03_1007,
0,2,C.png,1,5,R,,,,,0,4,4,4,,,,,,None,,,,4,9,011,B,119.993480896,visual,2017_Nov_03_1007,
0,3,M.png,1,6,R,,,,,0,5,5,5,,,,,,None,,,,4,9,011,B,119.993480896,visual,2017_Nov_03_1007,
0,1,E.png,1,7,R,,,,,0,6,6,6,,,,,,None,,,,4,9,011,B,119.993480896,visual,2017_Nov_03_1007,
0,2,C.png,1,8,R,,,,,0,7,7,7,,,,,,None,,,,4,9,011,B,119.993480896,visual,2017_Nov_03_1007,
0,3,J.png,1,9,R,,,,,0,8,8,8,,,,,,None,,,,4,9,011,B,119.993480896,visual,2017_Nov_03_1007,
0,1,F.png,1,10,R,,,,,0,9,9,9,,,,,,None,,,,4,9,011,B,119.993480896,visual,2017_Nov_03_1007,
0,2,J.png,1,11,R,,,,,0,10,10,10,,,,,,None,,,,4,9,011,B,119.993480896,visual,2017_Nov_03_1007,
0,3,L.png,1,12,R,,,,,0,11,11,11,,,,,,None,,,,4,9,011,B,119.993480896,visual,2017_Nov_03_1007,
0,1,G.png,1,13,R,,,,,0,12,12,12,,,,,,None,,,,4,9,011,B,119.993480896,visual,2017_Nov_03_1007,
0,2,G.png,1,14,R,,,,,0,13,13,13,,,,,,None,,,,4,9,011,B,119.993480896,visual,2017_Nov_03_1007,
0,3,A.png,1,15,R,,,,,0,14,14,14,,,,,,None,,,,4,9,011,B,119.993480896,visual,2017_Nov_03_1007,
0,1,H.png,1,16,R,,,,,0,15,15,15,,,,,,None,,,,4,9,011,B,119.993480896,visual,2017_Nov_03_1007,
0,2,K.png,1,17,R,,,,,0,16,16,16,,,,,,None,,,,4,9,011,B,119.993480896,visual,2017_Nov_03_1007,
0,3,M.png,1,18,R,,,,,0,17,17,17,,,,,,None,,,,4,9,011,B,119.993480896,visual,2017_Nov_03_1007,
0,1,F.png,1,19,R,,,,,0,18,18,18,,,,,,None,,,,4,9,011,B,119.993480896,visual,2017_Nov_03_1007,
0,2,K.png,1,20,R,,,,,0,19,19,19,,,,,,None,,,,4,9,011,B,119.993480896,visual,2017_Nov_03_1007,
0,3,B.png,1,21,R,,,,,0,20,20,20,,,,,,3,0.481461212214,,,4,9,011,B,119.993480896,visual,2017_Nov_03_1007,
0,1,M.png,1,22,R,,,,,0,21,21,21,,,,,,None,,,,4,9,011,B,119.993480896,visual,2017_Nov_03_1007,
0,2,D.png,1,23,R,,,,,0,22,22,22,,,,,,None,,,,4,9,011,B,119.993480896,visual,2017_Nov_03_1007,
0,3,B.png,1,24,R,,,,,0,23,23,23,,,,,,3,0.389221388265,,,4,9,011,B,119.993480896,visual,2017_Nov_03_1007,
4,1,Alien7.bmp,None,25,S,0,0,0,0,,,,,,,,,3,,,0.124551822722,,4,9,011,B,119.993480896,visual,2017_Nov_03_1007,
4,2,Alien8.bmp,2.0,26,S,0,1,1,1,,,,,,,,,None,,,,,4,9,011,B,119.993480896,visual,2017_Nov_03_1007,
4,3,Alien9.bmp,2.0,27,S,0,2,2,2,,,,,,,,,3,,,0.35854693428,,4,9,011,B,119.993480896,visual,2017_Nov_03_1007,
2,1,Alien1.bmp,3.0,28,S,0,3,3,3,,,,,,,,,None,,,,,4,9,011,B,119.993480896,visual,2017_Nov_03_1007,
2,2,Alien2.bmp,3.0,29,S,0,4,4,4,,,,,,,,,None,,,,,4,9,011,B,119.993480896,visual,2017_Nov_03_1007,
2,3,Alien3.bmp,3.0,30,S,0,5,5,5,,,,,,,,,None,,,,,4,9,011,B,119.993480896,visual,2017_Nov_03_1007,
4,1,Alien7.bmp,3.0,31,S,0,6,6,6,,,,,,,,,None,,,,,4,9,011,B,119.993480896,visual,2017_Nov_03_1007,
4,2,Alien8.bmp,3.0,32,S,0,7,7,7,,,,,,,,,None,,,,,4,9,011,B,119.993480896,visual,2017_Nov_03_1007,
4,3,Alien9.bmp,3.0,33,S,0,8,8,8,,,,,,,,,3,,,0.383561803596,,4,9,011,B,119.993480896,visual,2017_Nov_03_1007,
3,1,Alien10.bmp,3.0,34,S,0,9,9,9,,,,,,,,,None,,,,,4,9,011,B,119.993480896,visual,2017_Nov_03_1007,
3,2,Alien11.bmp,3.0,35,S,0,10,10,10,,,,,,,,,None,,,,,4,9,011,B,119.993480896,visual,2017_Nov_03_1007,
3,3,Alien12.bmp,3.0,36,S,0,11,11,11,,,,,,,,,None,,,,,4,9,011,B,119.993480896,visual,2017_Nov_03_1007,
1,1,Alien4.bmp,4.0,37,S,0,12,12,12,,,,,,,,,None,,,,,4,9,011,B,119.993480896,visual,2017_Nov_03_1007,
1,2,Alien5.bmp,4.0,38,S,0,13,13,13,,,,,,,,,None,,,,,4,9,011,B,119.993480896,visual,2017_Nov_03_1007,
1,3,Alien6.bmp,4.0,39,S,0,14,14,14,,,,,,,,,None,,,,,4,9,011,B,119.993480896,visual,2017_Nov_03_1007,
3,1,Alien10.bmp,4.0,40,S,0,15,15,15,,,,,,,,,None,,,,,4,9,011,B,119.993480896,visual,2017_Nov_03_1007,
3,2,Alien11.bmp,4.0,41,S,0,16,16,16,,,,,,,,,None,,,,,4,9,011,B,119.993480896,visual,2017_Nov_03_1007,
3,3,Alien12.bmp,4.0,42,S,0,17,17,17,,,,,,,,,None,,,,,4,9,011,B,119.993480896,visual,2017_Nov_03_1007,
1,1,Alien4.bmp,5.0,43,S,0,18,18,18,,,,,,,,,None,,,,,4,9,011,B,119.993480896,visual,2017_Nov_03_1007,
1,2,Alien5.bmp,5.0,44,S,0,19,19,19,,,,,,,,,None,,,,,4,9,011,B,119.993480896,visual,2017_Nov_03_1007,
1,3,Alien6.bmp,5.0,45,S,0,20,20,20,,,,,,,,,None,,,,,4,9,011,B,119.993480896,visual,2017_Nov_03_1007,
4,1,Alien7.bmp,4.0,46,S,0,21,21,21,,,,,,,,,None,,,,,4,9,011,B,119.993480896,visual,2017_Nov_03_1007,
4,2,Alien8.bmp,4.0,47,S,0,22,22,22,,,,,,,,,None,,,,,4,9,011,B,119.993480896,visual,2017_Nov_03_1007,
4,3,Alien9.bmp,4.0,48,S,0,23,23,23,,,,,,,,,3,,,0.341947913155,,4,9,011,B,119.993480896,visual,2017_Nov_03_1007,
0,0,blank.png,0.0,0,B,0,24,24,24,,,,,,,,,None,,,,,4,9,011,B,119.993480896,visual,2017_Nov_03_1007,
0,0,blank.png,0.0,0,B,0,25,25,25,,,,,,,,,None,,,,,4,9,011,B,119.993480896,visual,2017_Nov_03_1007,
0,0,blank.png,0.0,0,B,0,26,26,26,,,,,,,,,None,,,,,4,9,011,B,119.993480896,visual,2017_Nov_03_1007,
0,0,blank.png,0.0,0,B,0,27,27,27,,,,,,,,,None,,,,,4,9,011,B,119.993480896,visual,2017_Nov_03_1007,
0,0,blank.png,0.0,0,B,0,28,28,28,,,,,,,,,None,,,,,4,9,011,B,119.993480896,visual,2017_Nov_03_1007,
0,0,blank.png,0.0,0,B,0,29,29,29,,,,,,,,,None,,,,,4,9,011,B,119.993480896,visual,2017_Nov_03_1007,
0,0,blank.png,0.0,0,B,0,30,30,30,,,,,,,,,None,,,,,4,9,011,B,119.993480896,visual,2017_Nov_03_1007,
0,0,blank.png,0.0,0,B,0,31,31,31,,,,,,,,,None,,,,,4,9,011,B,119.993480896,visual,2017_Nov_03_1007,
0,0,blank.png,0.0,0,B,0,32,32,32,,,,,,,,,3,,,0.842075486347,,4,9,011,B,119.993480896,visual,2017_Nov_03_1007,
0,0,blank.png,0.0,0,B,0,33,33,33,,,,,,,,,None,,,,,4,9,011,B,119.993480896,visual,2017_Nov_03_1007,
0,0,blank.png,0.0,0,B,0,34,34,34,,,,,,,,,None,,,,,4,9,011,B,119.993480896,visual,2017_Nov_03_1007,
0,0,blank.png,0.0,0,B,0,35,35,35,,,,,,,,,None,,,,,4,9,011,B,119.993480896,visual,2017_Nov_03_1007,
2,1,Alien1.bmp,4.0,49,S,0,36,36,36,,,,,,,,,None,,,,,4,9,011,B,119.993480896,visual,2017_Nov_03_1007,
2,2,Alien2.bmp,4.0,50,S,0,37,37,37,,,,,,,,,None,,,,,4,9,011,B,119.993480896,visual,2017_Nov_03_1007,
2,3,Alien3.bmp,4.0,51,S,0,38,38,38,,,,,,,,,None,,,,,4,9,011,B,119.993480896,visual,2017_Nov_03_1007,
3,1,Alien10.bmp,5.0,52,S,0,39,39,39,,,,,,,,,None,,,,,4,9,011,B,119.993480896,visual,2017_Nov_03_1007,
3,2,Alien11.bmp,5.0,53,S,0,40,40,40,,,,,,,,,None,,,,,4,9,011,B,119.993480896,visual,2017_Nov_03_1007,
3,3,Alien12.bmp,5.0,54,S,0,41,41,41,,,,,,,,,None,,,,,4,9,011,B,119.993480896,visual,2017_Nov_03_1007,
1,1,Alien4.bmp,6.0,55,S,0,42,42,42,,,,,,,,,None,,,,,4,9,011,B,119.993480896,visual,2017_Nov_03_1007,
1,2,Alien5.bmp,6.0,56,S,0,43,43,43,,,,,,,,,None,,,,,4,9,011,B,119.993480896,visual,2017_Nov_03_1007,
1,3,Alien6.bmp,6.0,57,S,0,44,44,44,,,,,,,,,None,,,,,4,9,011,B,119.993480896,visual,2017_Nov_03_1007,
4,1,Alien7.bmp,5.0,58,S,0,45,45,45,,,,,,,,,None,,,,,4,9,011,B,119.993480896,visual,2017_Nov_03_1007,
4,2,Alien8.bmp,5.0,59,S,0,46,46,46,,,,,,,,,None,,,,,4,9,011,B,119.993480896,visual,2017_Nov_03_1007,
4,3,Alien9.bmp,5.0,60,S,0,47,47,47,,,,,,,,,3,,,0.291877214579,,4,9,011,B,119.993480896,visual,2017_Nov_03_1007,
2,1,Alien1.bmp,5.0,61,S,0,48,48,48,,,,,,,,,None,,,,,4,9,011,B,119.993480896,visual,2017_Nov_03_1007,
2,2,Alien2.bmp,5.0,62,S,0,49,49,49,,,,,,,,,None,,,,,4,9,011,B,119.993480896,visual,2017_Nov_03_1007,
2,3,Alien3.bmp,5.0,63,S,0,50,50,50,,,,,,,,,None,,,,,4,9,011,B,119.993480896,visual,2017_Nov_03_1007,
4,1,Alien7.bmp,6.0,64,S,0,51,51,51,,,,,,,,,None,,,,,4,9,011,B,119.993480896,visual,2017_Nov_03_1007,
4,2,Alien8.bmp,6.0,65,S,0,52,52,52,,,,,,,,,None,,,,,4,9,011,B,119.993480896,visual,2017_Nov_03_1007,
4,3,Alien9.bmp,6.0,66,S,0,53,53,53,,,,,,,,,3,,,0.400222549084,,4,9,011,B,119.993480896,visual,2017_Nov_03_1007,
1,1,Alien4.bmp,7.0,67,S,0,54,54,54,,,,,,,,,None,,,,,4,9,011,B,119.993480896,visual,2017_Nov_03_1007,
1,2,Alien5.bmp,7.0,68,S,0,55,55,55,,,,,,,,,None,,,,,4,9,011,B,119.993480896,visual,2017_Nov_03_1007,
1,3,Alien6.bmp,7.0,69,S,0,56,56,56,,,,,,,,,None,,,,,4,9,011,B,119.993480896,visual,2017_Nov_03_1007,
3,1,Alien10.bmp,6.0,70,S,0,57,57,57,,,,,,,,,None,,,,,4,9,011,B,119.993480896,visual,2017_Nov_03_1007,
3,2,Alien11.bmp,6.0,71,S,0,58,58,58,,,,,,,,,None,,,,,4,9,011,B,119.993480896,visual,2017_Nov_03_1007,
3,3,Alien12.bmp,6.0,72,S,0,59,59,59,,,,,,,,,None,,,,,4,9,011,B,119.993480896,visual,2017_Nov_03_1007,
0,1,K.png,1,25,R,,,,,0,0,0,0,,,,,,None,,,,4,9,011,B,119.993480896,visual,2017_Nov_03_1007,
0,2,L.png,1,26,R,,,,,0,1,1,1,,,,,,None,,,,4,9,011,B,119.993480896,visual,2017_Nov_03_1007,
0,3,B.png,1,27,R,,,,,0,2,2,2,,,,,,3,0.381378410515,,,4,9,011,B,119.993480896,visual,2017_Nov_03_1007,
0,1,G.png,1,28,R,,,,,0,3,3,3,,,,,,None,,,,4,9,011,B,119.993480896,visual,2017_Nov_03_1007,
0,2,D.png,1,29,R,,,,,0,4,4,4,,,,,,None,,,,4,9,011,B,119.993480896,visual,2017_Nov_03_1007,
0,3,J.png,1,30,R,,,,,0,5,5,5,,,,,,None,,,,4,9,011,B,119.993480896,visual,2017_Nov_03_1007,
0,1,H.png,1,31,R,,,,,0,6,6,6,,,,,,None,,,,4,9,011,B,119.993480896,visual,2017_Nov_03_1007,
0,2,B.png,1,32,R,,,,,0,7,7,7,,,,,,3,0.314623073136,,,4,9,011,B,119.993480896,visual,2017_Nov_03_1007,
0,3,C.png,1,33,R,,,,,0,8,8,8,,,,,,None,,,,4,9,011,B,119.993480896,visual,2017_Nov_03_1007,
0,1,M.png,1,34,R,,,,,0,9,9,9,,,,,,None,,,,4,9,011,B,119.993480896,visual,2017_Nov_03_1007,
0,2,K.png,1,35,R,,,,,0,10,10,10,,,,,,None,,,,4,9,011,B,119.993480896,visual,2017_Nov_03_1007,
0,3,L.png,1,36,R,,,,,0,11,11,11,,,,,,None,,,,4,9,011,B,119.993480896,visual,2017_Nov_03_1007,
0,1,E.png,1,37,R,,,,,0,12,12,12,,,,,,None,,,,4,9,011,B,119.993480896,visual,2017_Nov_03_1007,
0,2,F.png,1,38,R,,,,,0,13,13,13,,,,,,None,,,,4,9,011,B,119.993480896,visual,2017_Nov_03_1007,
0,3,A.png,1,39,R,,,,,0,14,14,14,,,,,,None,,,,4,9,011,B,119.993480896,visual,2017_Nov_03_1007,
0,1,L.png,1,40,R,,,,,0,15,15,15,,,,,,None,,,,4,9,011,B,119.993480896,visual,2017_Nov_03_1007,
0,2,E.png,1,41,R,,,,,0,16,16,16,,,,,,None,,,,4,9,011,B,119.993480896,visual,2017_Nov_03_1007,
0,3,H.png,1,42,R,,,,,0,17,17,17,,,,,,None,,,,4,9,011,B,119.993480896,visual,2017_Nov_03_1007,
0,1,C.png,1,43,R,,,,,0,18,18,18,,,,,,None,,,,4,9,011,B,119.993480896,visual,2017_Nov_03_1007,
0,2,G.png,1,44,R,,,,,0,19,19,19,,,,,,None,,,,4,9,011,B,119.993480896,visual,2017_Nov_03_1007,
0,3,M.png,1,45,R,,,,,0,20,20,20,,,,,,None,,,,4,9,011,B,119.993480896,visual,2017_Nov_03_1007,
0,1,H.png,1,46,R,,,,,0,21,21,21,,,,,,None,,,,4,9,011,B,119.993480896,visual,2017_Nov_03_1007,
0,2,D.png,1,47,R,,,,,0,22,22,22,,,,,,None,,,,4,9,011,B,119.993480896,visual,2017_Nov_03_1007,
0,3,E.png,1,48,R,,,,,0,23,23,23,,,,,,None,,,,4,9,011,B,119.993480896,visual,2017_Nov_03_1007,
0,0,blank.png,0,0,B,,,,,,,,,0,0,0,0,,,,,None,4,9,011,B,119.993480896,visual,2017_Nov_03_1007,
0,0,blank.png,0,0,B,,,,,,,,,0,1,1,1,,,,,None,4,9,011,B,119.993480896,visual,2017_Nov_03_1007,
0,0,blank.png,0,0,B,,,,,,,,,0,2,2,2,,,,,None,4,9,011,B,119.993480896,visual,2017_Nov_03_1007,
0,0,blank.png,0,0,B,,,,,,,,,0,3,3,3,,,,,None,4,9,011,B,119.993480896,visual,2017_Nov_03_1007,
0,0,blank.png,0,0,B,,,,,,,,,0,4,4,4,,,,,None,4,9,011,B,119.993480896,visual,2017_Nov_03_1007,
0,0,blank.png,0,0,B,,,,,,,,,0,5,5,5,,,,,None,4,9,011,B,119.993480896,visual,2017_Nov_03_1007,
0,0,blank.png,0,0,B,,,,,,,,,0,6,6,6,,,,,None,4,9,011,B,119.993480896,visual,2017_Nov_03_1007,
0,0,blank.png,0,0,B,,,,,,,,,0,7,7,7,,,,,None,4,9,011,B,119.993480896,visual,2017_Nov_03_1007,
0,0,blank.png,0,0,B,,,,,,,,,0,8,8,8,,,,,None,4,9,011,B,119.993480896,visual,2017_Nov_03_1007,
0,0,blank.png,0,0,B,,,,,,,,,0,9,9,9,,,,,None,4,9,011,B,119.993480896,visual,2017_Nov_03_1007,
0,0,blank.png,0,0,B,,,,,,,,,0,10,10,10,,,,,None,4,9,011,B,119.993480896,visual,2017_Nov_03_1007,
0,0,blank.png,0,0,B,,,,,,,,,0,11,11,11,,,,,None,4,9,011,B,119.993480896,visual,2017_Nov_03_1007,
0,1,B.png,1,49,R,,,,,0,0,0,0,,,,,,3,0.604331685739,,,4,9,011,B,119.993480896,visual,2017_Nov_03_1007,
0,2,J.png,1,50,R,,,,,0,1,1,1,,,,,,None,,,,4,9,011,B,119.993480896,visual,2017_Nov_03_1007,
0,3,K.png,1,51,R,,,,,0,2,2,2,,,,,,None,,,,4,9,011,B,119.993480896,visual,2017_Nov_03_1007,
0,1,A.png,1,52,R,,,,,0,3,3,3,,,,,,None,,,,4,9,011,B,119.993480896,visual,2017_Nov_03_1007,
0,2,H.png,1,53,R,,,,,0,4,4,4,,,,,,None,,,,4,9,011,B,119.993480896,visual,2017_Nov_03_1007,
0,3,C.png,1,54,R,,,,,0,5,5,5,,,,,,None,,,,4,9,011,B,119.993480896,visual,2017_Nov_03_1007,
0,1,F.png,1,55,R,,,,,0,6,6,6,,,,,,None,,,,4,9,011,B,119.993480896,visual,2017_Nov_03_1007,
0,2,E.png,1,56,R,,,,,0,7,7,7,,,,,,None,,,,4,9,011,B,119.993480896,visual,2017_Nov_03_1007,
0,3,J.png,1,57,R,,,,,0,8,8,8,,,,,,None,,,,4,9,011,B,119.993480896,visual,2017_Nov_03_1007,
0,1,F.png,1,58,R,,,,,0,9,9,9,,,,,,None,,,,4,9,011,B,119.993480896,visual,2017_Nov_03_1007,
0,2,C.png,1,59,R,,,,,0,10,10,10,,,,,,None,,,,4,9,011,B,119.993480896,visual,2017_Nov_03_1007,
0,3,A.png,1,60,R,,,,,0,11,11,11,,,,,,None,,,,4,9,011,B,119.993480896,visual,2017_Nov_03_1007,
0,1,G.png,1,61,R,,,,,0,12,12,12,,,,,,None,,,,4,9,011,B,119.993480896,visual,2017_Nov_03_1007,
0,2,B.png,1,62,R,,,,,0,13,13,13,,,,,,3,0.464349338348,,,4,9,011,B,119.993480896,visual,2017_Nov_03_1007,
0,3,E.png,1,63,R,,,,,0,14,14,14,,,,,,None,,,,4,9,011,B,119.993480896,visual,2017_Nov_03_1007,
0,1,K.png,1,64,R,,,,,0,15,15,15,,,,,,None,,,,4,9,011,B,119.993480896,visual,2017_Nov_03_1007,
0,2,G.png,1,65,R,,,,,0,16,16,16,,,,,,None,,,,4,9,011,B,119.993480896,visual,2017_Nov_03_1007,
0,3,D.png,1,66,R,,,,,0,17,17,17,,,,,,None,,,,4,9,011,B,119.993480896,visual,2017_Nov_03_1007,
0,1,D.png,1,67,R,,,,,0,18,18,18,,,,,,None,,,,4,9,011,B,119.993480896,visual,2017_Nov_03_1007,
0,2,M.png,1,68,R,,,,,0,19,19,19,,,,,,None,,,,4,9,011,B,119.993480896,visual,2017_Nov_03_1007,
0,3,H.png,1,69,R,,,,,0,20,20,20,,,,,,None,,,,4,9,011,B,119.993480896,visual,2017_Nov_03_1007,
0,1,M.png,1,70,R,,,,,0,21,21,21,,,,,,None,,,,4,9,011,B,119.993480896,visual,2017_Nov_03_1007,
0,2,L.png,1,71,R,,,,,0,22,22,22,,,,,,None,,,,4,9,011,B,119.993480896,visual,2017_Nov_03_1007,
0,3,L.png,1,72,R,,,,,0,23,23,23,,,,,,None,,,,4,9,011,B,119.993480896,visual,2017_Nov_03_1007,
2,1,Alien1.bmp,6,73,S,0,0,0,0,,,,,,,,,None,,,,,4,9,011,B,119.993480896,visual,2017_Nov_03_1007,
2,2,Alien2.bmp,6,74,S,0,1,1,1,,,,,,,,,None,,,,,4,9,011,B,119.993480896,visual,2017_Nov_03_1007,
2,3,Alien3.bmp,6,75,S,0,2,2,2,,,,,,,,,None,,,,,4,9,011,B,119.993480896,visual,2017_Nov_03_1007,
1,1,Alien4.bmp,8,76,S,0,3,3,3,,,,,,,,,None,,,,,4,9,011,B,119.993480896,visual,2017_Nov_03_1007,
1,2,Alien5.bmp,8,77,S,0,4,4,4,,,,,,,,,None,,,,,4,9,011,B,119.993480896,visual,2017_Nov_03_1007,
1,3,Alien6.bmp,8,78,S,0,5,5,5,,,,,,,,,None,,,,,4,9,011,B,119.993480896,visual,2017_Nov_03_1007,
4,1,Alien7.bmp,7,79,S,0,6,6,6,,,,,,,,,None,,,,,4,9,011,B,119.993480896,visual,2017_Nov_03_1007,
4,2,Alien8.bmp,7,80,S,0,7,7,7,,,,,,,,,None,,,,,4,9,011,B,119.993480896,visual,2017_Nov_03_1007,
4,3,Alien9.bmp,7,81,S,0,8,8,8,,,,,,,,,3,,,0.341920322084,,4,9,011,B,119.993480896,visual,2017_Nov_03_1007,
3,1,Alien10.bmp,7,82,S,0,9,9,9,,,,,,,,,None,,,,,4,9,011,B,119.993480896,visual,2017_Nov_03_1007,
3,2,Alien11.bmp,7,83,S,0,10,10,10,,,,,,,,,None,,,,,4,9,011,B,119.993480896,visual,2017_Nov_03_1007,
3,3,Alien12.bmp,7,84,S,0,11,11,11,,,,,,,,,None,,,,,4,9,011,B,119.993480896,visual,2017_Nov_03_1007,
2,1,Alien1.bmp,7,85,S,0,12,12,12,,,,,,,,,None,,,,,4,9,011,B,119.993480896,visual,2017_Nov_03_1007,
2,2,Alien2.bmp,7,86,S,0,13,13,13,,,,,,,,,None,,,,,4,9,011,B,119.993480896,visual,2017_Nov_03_1007,
2,3,Alien3.bmp,7,87,S,0,14,14,14,,,,,,,,,None,,,,,4,9,011,B,119.993480896,visual,2017_Nov_03_1007,
4,1,Alien7.bmp,8,88,S,0,15,15,15,,,,,,,,,None,,,,,4,9,011,B,119.993480896,visual,2017_Nov_03_1007,
4,2,Alien8.bmp,8,89,S,0,16,16,16,,,,,,,,,None,,,,,4,9,011,B,119.993480896,visual,2017_Nov_03_1007,
4,3,Alien9.bmp,8,90,S,0,17,17,17,,,,,,,,,3,,,0.425308813879,,4,9,011,B,119.993480896,visual,2017_Nov_03_1007,
1,1,Alien4.bmp,9,91,S,0,18,18,18,,,,,,,,,None,,,,,4,9,011,B,119.993480896,visual,2017_Nov_03_1007,
1,2,Alien5.bmp,9,92,S,0,19,19,19,,,,,,,,,None,,,,,4,9,011,B,119.993480896,visual,2017_Nov_03_1007,
1,3,Alien6.bmp,9,93,S,0,20,20,20,,,,,,,,,None,,,,,4,9,011,B,119.993480896,visual,2017_Nov_03_1007,
3,1,Alien10.bmp,8,94,S,0,21,21,21,,,,,,,,,None,,,,,4,9,011,B,119.993480896,visual,2017_Nov_03_1007,
3,2,Alien11.bmp,8,95,S,0,22,22,22,,,,,,,,,None,,,,,4,9,011,B,119.993480896,visual,2017_Nov_03_1007,
3,3,Alien12.bmp,8,96,S,0,23,23,23,,,,,,,,,None,,,,,4,9,011,B,119.993480896,visual,2017_Nov_03_1007,
0,0,blank.png,0,0,B,0,24,24,24,,,,,,,,,None,,,,,4,9,011,B,119.993480896,visual,2017_Nov_03_1007,
0,0,blank.png,0,0,B,0,25,25,25,,,,,,,,,None,,,,,4,9,011,B,119.993480896,visual,2017_Nov_03_1007,
0,0,blank.png,0,0,B,0,26,26,26,,,,,,,,,None,,,,,4,9,011,B,119.993480896,visual,2017_Nov_03_1007,
0,0,blank.png,0,0,B,0,27,27,27,,,,,,,,,None,,,,,4,9,011,B,119.993480896,visual,2017_Nov_03_1007,
0,0,blank.png,0,0,B,0,28,28,28,,,,,,,,,None,,,,,4,9,011,B,119.993480896,visual,2017_Nov_03_1007,
0,0,blank.png,0,0,B,0,29,29,29,,,,,,,,,None,,,,,4,9,011,B,119.993480896,visual,2017_Nov_03_1007,
0,0,blank.png,0,0,B,0,30,30,30,,,,,,,,,None,,,,,4,9,011,B,119.993480896,visual,2017_Nov_03_1007,
0,0,blank.png,0,0,B,0,31,31,31,,,,,,,,,None,,,,,4,9,011,B,119.993480896,visual,2017_Nov_03_1007,
0,0,blank.png,0,0,B,0,32,32,32,,,,,,,,,None,,,,,4,9,011,B,119.993480896,visual,2017_Nov_03_1007,
0,0,blank.png,0,0,B,0,33,33,33,,,,,,,,,None,,,,,4,9,011,B,119.993480896,visual,2017_Nov_03_1007,
0,0,blank.png,0,0,B,0,34,34,34,,,,,,,,,None,,,,,4,9,011,B,119.993480896,visual,2017_Nov_03_1007,
0,0,blank.png,0,0,B,0,35,35,35,,,,,,,,,None,,,,,4,9,011,B,119.993480896,visual,2017_Nov_03_1007,
0,1,M.png,1,73,R,,,,,0,0,0,0,,,,,,None,,,,4,9,011,B,119.993480896,visual,2017_Nov_03_1007,
0,2,B.png,1,74,R,,,,,0,1,1,1,,,,,,3,0.43107904731,,,4,9,011,B,119.993480896,visual,2017_Nov_03_1007,
0,3,C.png,1,75,R,,,,,0,2,2,2,,,,,,None,,,,4,9,011,B,119.993480896,visual,2017_Nov_03_1007,
0,1,J.png,1,76,R,,,,,0,3,3,3,,,,,,None,,,,4,9,011,B,119.993480896,visual,2017_Nov_03_1007,
0,2,L.png,1,77,R,,,,,0,4,4,4,,,,,,None,,,,4,9,011,B,119.993480896,visual,2017_Nov_03_1007,
0,3,E.png,1,78,R,,,,,0,5,5,5,,,,,,None,,,,4,9,011,B,119.993480896,visual,2017_Nov_03_1007,
0,1,A.png,1,79,R,,,,,0,6,6,6,,,,,,None,,,,4,9,011,B,119.993480896,visual,2017_Nov_03_1007,
0,2,K.png,1,80,R,,,,,0,7,7,7,,,,,,None,,,,4,9,011,B,119.993480896,visual,2017_Nov_03_1007,
0,3,L.png,1,81,R,,,,,0,8,8,8,,,,,,None,,,,4,9,011,B,119.993480896,visual,2017_Nov_03_1007,
0,1,B.png,1,82,R,,,,,0,9,9,9,,,,,,3,0.356432376691,,,4,9,011,B,119.993480896,visual,2017_Nov_03_1007,
0,2,G.png,1,83,R,,,,,0,10,10,10,,,,,,None,,,,4,9,011,B,119.993480896,visual,2017_Nov_03_1007,
0,3,K.png,1,84,R,,,,,0,11,11,11,,,,,,None,,,,4,9,011,B,119.993480896,visual,2017_Nov_03_1007,
0,1,H.png,1,85,R,,,,,0,12,12,12,,,,,,None,,,,4,9,011,B,119.993480896,visual,2017_Nov_03_1007,
0,2,H.png,1,86,R,,,,,0,13,13,13,,,,,,None,,,,4,9,011,B,119.993480896,visual,2017_Nov_03_1007,
0,3,F.png,1,87,R,,,,,0,14,14,14,,,,,,None,,,,4,9,011,B,119.993480896,visual,2017_Nov_03_1007,
0,1,J.png,1,88,R,,,,,0,15,15,15,,,,,,None,,,,4,9,011,B,119.993480896,visual,2017_Nov_03_1007,
0,2,G.png,1,89,R,,,,,0,16,16,16,,,,,,None,,,,4,9,011,B,119.993480896,visual,2017_Nov_03_1007,
0,3,A.png,1,90,R,,,,,0,17,17,17,,,,,,None,,,,4,9,011,B,119.993480896,visual,2017_Nov_03_1007,
0,1,E.png,1,91,R,,,,,0,18,18,18,,,,,,None,,,,4,9,011,B,119.993480896,visual,2017_Nov_03_1007,
0,2,D.png,1,92,R,,,,,0,19,19,19,,,,,,None,,,,4,9,011,B,119.993480896,visual,2017_Nov_03_1007,
0,3,D.png,1,93,R,,,,,0,20,20,20,,,,,,None,,,,4,9,011,B,119.993480896,visual,2017_Nov_03_1007,
0,1,C.png,1,94,R,,,,,0,21,21,21,,,,,,None,,,,4,9,011,B,119.993480896,visual,2017_Nov_03_1007,
0,2,F.png,1,95,R,,,,,0,22,22,22,,,,,,None,,,,4,9,011,B,119.993480896,visual,2017_Nov_03_1007,
0,3,M.png,1,96,R,,,,,0,23,23,23,,,,,,None,,,,4,9,011,B,119.993480896,visual,2017_Nov_03_1007,
1,1,Alien4.bmp,10,97,S,0,0,0,0,,,,,,,,,None,,,,,4,9,011,B,119.993480896,visual,2017_Nov_03_1007,
1,2,Alien5.bmp,10,98,S,0,1,1,1,,,,,,,,,None,,,,,4,9,011,B,119.993480896,visual,2017_Nov_03_1007,
1,3,Alien6.bmp,10,99,S,0,2,2,2,,,,,,,,,None,,,,,4,9,011,B,119.993480896,visual,2017_Nov_03_1007,
2,1,Alien1.bmp,8,100,S,0,3,3,3,,,,,,,,,None,,,,,4,9,011,B,119.993480896,visual,2017_Nov_03_1007,
2,2,Alien2.bmp,8,101,S,0,4,4,4,,,,,,,,,None,,,,,4,9,011,B,119.993480896,visual,2017_Nov_03_1007,
2,3,Alien3.bmp,8,102,S,0,5,5,5,,,,,,,,,None,,,,,4,9,011,B,119.993480896,visual,2017_Nov_03_1007,
4,1,Alien7.bmp,9,103,S,0,6,6,6,,,,,,,,,None,,,,,4,9,011,B,119.993480896,visual,2017_Nov_03_1007,
4,2,Alien8.bmp,9,104,S,0,7,7,7,,,,,,,,,None,,,,,4,9,011,B,119.993480896,visual,2017_Nov_03_1007,
4,3,Alien9.bmp,9,105,S,0,8,8,8,,,,,,,,,3,,,0.350230641518,,4,9,011,B,119.993480896,visual,2017_Nov_03_1007,
3,1,Alien10.bmp,9,106,S,0,9,9,9,,,,,,,,,None,,,,,4,9,011,B,119.993480896,visual,2017_Nov_03_1007,
3,2,Alien11.bmp,9,107,S,0,10,10,10,,,,,,,,,None,,,,,4,9,011,B,119.993480896,visual,2017_Nov_03_1007,
3,3,Alien12.bmp,9,108,S,0,11,11,11,,,,,,,,,None,,,,,4,9,011,B,119.993480896,visual,2017_Nov_03_1007,
2,1,Alien1.bmp,9,109,S,0,12,12,12,,,,,,,,,None,,,,,4,9,011,B,119.993480896,visual,2017_Nov_03_1007,
2,2,Alien2.bmp,9,110,S,0,13,13,13,,,,,,,,,None,,,,,4,9,011,B,119.993480896,visual,2017_Nov_03_1007,
2,3,Alien3.bmp,9,111,S,0,14,14,14,,,,,,,,,None,,,,,4,9,011,B,119.993480896,visual,2017_Nov_03_1007,
1,1,Alien4.bmp,11,112,S,0,15,15,15,,,,,,,,,None,,,,,4,9,011,B,119.993480896,visual,2017_Nov_03_1007,
1,2,Alien5.bmp,11,113,S,0,16,16,16,,,,,,,,,None,,,,,4,9,011,B,119.993480896,visual,2017_Nov_03_1007,
1,3,Alien6.bmp,11,114,S,0,17,17,17,,,,,,,,,None,,,,,4,9,011,B,119.993480896,visual,2017_Nov_03_1007,
3,1,Alien10.bmp,10,115,S,0,18,18,18,,,,,,,,,None,,,,,4,9,011,B,119.993480896,visual,2017_Nov_03_1007,
3,2,Alien11.bmp,10,116,S,0,19,19,19,,,,,,,,,None,,,,,4,9,011,B,119.993480896,visual,2017_Nov_03_1007,
3,3,Alien12.bmp,10,117,S,0,20,20,20,,,,,,,,,None,,,,,4,9,011,B,119.993480896,visual,2017_Nov_03_1007,
4,1,Alien7.bmp,10,118,S,0,21,21,21,,,,,,,,,None,,,,,4,9,011,B,119.993480896,visual,2017_Nov_03_1007,
4,2,Alien8.bmp,10,119,S,0,22,22,22,,,,,,,,,None,,,,,4,9,011,B,119.993480896,visual,2017_Nov_03_1007,
4,3,Alien9.bmp,10,120,S,0,23,23,23,,,,,,,,,3,,,0.408623890631,,4,9,011,B,119.993480896,visual,2017_Nov_03_1007,
0,1,E.png,1,97,R,,,,,0,0,0,0,,,,,,None,,,,4,9,011,B,119.993480896,visual,2017_Nov_03_1007,
0,2,L.png,1,98,R,,,,,0,1,1,1,,,,,,None,,,,4,9,011,B,119.993480896,visual,2017_Nov_03_1007,
0,3,G.png,1,99,R,,,,,0,2,2,2,,,,,,None,,,,4,9,011,B,119.993480896,visual,2017_Nov_03_1007,
0,1,K.png,1,100,R,,,,,0,3,3,3,,,,,,None,,,,4,9,011,B,119.993480896,visual,2017_Nov_03_1007,
0,2,F.png,1,101,R,,,,,0,4,4,4,,,,,,None,,,,4,9,011,B,119.993480896,visual,2017_Nov_03_1007,
0,3,C.png,1,102,R,,,,,0,5,5,5,,,,,,None,,,,4,9,011,B,119.993480896,visual,2017_Nov_03_1007,
0,1,M.png,1,103,R,,,,,0,6,6,6,,,,,,None,,,,4,9,011,B,119.993480896,visual,2017_Nov_03_1007,
0,2,D.png,1,104,R,,,,,0,7,7,7,,,,,,None,,,,4,9,011,B,119.993480896,visual,2017_Nov_03_1007,
0,3,F.png,1,105,R,,,,,0,8,8,8,,,,,,None,,,,4,9,011,B,119.993480896,visual,2017_Nov_03_1007,
0,1,B.png,1,106,R,,,,,0,9,9,9,,,,,,3,0.398094622607,,,4,9,011,B,119.993480896,visual,2017_Nov_03_1007,
0,2,A.png,1,107,R,,,,,0,10,10,10,,,,,,None,,,,4,9,011,B,119.993480896,visual,2017_Nov_03_1007,
0,3,C.png,1,108,R,,,,,0,11,11,11,,,,,,None,,,,4,9,011,B,119.993480896,visual,2017_Nov_03_1007,
0,1,H.png,1,109,R,,,,,0,12,12,12,,,,,,None,,,,4,9,011,B,119.993480896,visual,2017_Nov_03_1007,
0,2,J.png,1,110,R,,,,,0,13,13,13,,,,,,None,,,,4,9,011,B,119.993480896,visual,2017_Nov_03_1007,
0,3,E.png,1,111,R,,,,,0,14,14,14,,,,,,None,,,,4,9,011,B,119.993480896,visual,2017_Nov_03_1007,
0,1,A.png,1,112,R,,,,,0,15,15,15,,,,,,None,,,,4,9,011,B,119.993480896,visual,2017_Nov_03_1007,
0,2,G.png,1,113,R,,,,,0,16,16,16,,,,,,None,,,,4,9,011,B,119.993480896,visual,2017_Nov_03_1007,
0,3,D.png,1,114,R,,,,,0,17,17,17,,,,,,None,,,,4,9,011,B,119.993480896,visual,2017_Nov_03_1007,
0,1,J.png,1,115,R,,,,,0,18,18,18,,,,,,None,,,,4,9,011,B,119.993480896,visual,2017_Nov_03_1007,
0,2,H.png,1,116,R,,,,,0,19,19,19,,,,,,None,,,,4,9,011,B,119.993480896,visual,2017_Nov_03_1007,
0,3,B.png,1,117,R,,,,,0,20,20,20,,,,,,3,0.564766361858,,,4,9,011,B,119.993480896,visual,2017_Nov_03_1007,
0,1,L.png,1,118,R,,,,,0,21,21,21,,,,,,None,,,,4,9,011,B,119.993480896,visual,2017_Nov_03_1007,
0,2,K.png,1,119,R,,,,,0,22,22,22,,,,,,None,,,,4,9,011,B,119.993480896,visual,2017_Nov_03_1007,
0,3,M.png,1,120,R,,,,,0,23,23,23,,,,,,None,,,,4,9,011,B,119.993480896,visual,2017_Nov_03_1007,
0,0,blank.png,0,0,B,,,,,,,,,0,0,0,0,,,,,None,4,9,011,B,119.993480896,visual,2017_Nov_03_1007,
0,0,blank.png,0,0,B,,,,,,,,,0,1,1,1,,,,,None,4,9,011,B,119.993480896,visual,2017_Nov_03_1007,
0,0,blank.png,0,0,B,,,,,,,,,0,2,2,2,,,,,None,4,9,011,B,119.993480896,visual,2017_Nov_03_1007,
0,0,blank.png,0,0,B,,,,,,,,,0,3,3,3,,,,,None,4,9,011,B,119.993480896,visual,2017_Nov_03_1007,
0,0,blank.png,0,0,B,,,,,,,,,0,4,4,4,,,,,None,4,9,011,B,119.993480896,visual,2017_Nov_03_1007,
0,0,blank.png,0,0,B,,,,,,,,,0,5,5,5,,,,,None,4,9,011,B,119.993480896,visual,2017_Nov_03_1007,
0,0,blank.png,0,0,B,,,,,,,,,0,6,6,6,,,,,None,4,9,011,B,119.993480896,visual,2017_Nov_03_1007,
0,0,blank.png,0,0,B,,,,,,,,,0,7,7,7,,,,,None,4,9,011,B,119.993480896,visual,2017_Nov_03_1007,
0,0,blank.png,0,0,B,,,,,,,,,0,8,8,8,,,,,None,4,9,011,B,119.993480896,visual,2017_Nov_03_1007,
0,0,blank.png,0,0,B,,,,,,,,,0,9,9,9,,,,,None,4,9,011,B,119.993480896,visual,2017_Nov_03_1007,
0,0,blank.png,0,0,B,,,,,,,,,0,10,10,10,,,,,None,4,9,011,B,119.993480896,visual,2017_Nov_03_1007,
0,0,blank.png,0,0,B,,,,,,,,,0,11,11,11,,,,,None,4,9,011,B,119.993480896,visual,2017_Nov_03_1007,
2,1,Alien1.bmp,10,121,S,0,0,0,0,,,,,,,,,None,,,,,4,9,011,B,119.993480896,visual,2017_Nov_03_1007,
2,2,Alien2.bmp,10,122,S,0,1,1,1,,,,,,,,,None,,,,,4,9,011,B,119.993480896,visual,2017_Nov_03_1007,
2,3,Alien3.bmp,10,123,S,0,2,2,2,,,,,,,,,None,,,,,4,9,011,B,119.993480896,visual,2017_Nov_03_1007,
1,1,Alien4.bmp,12,124,S,0,3,3,3,,,,,,,,,None,,,,,4,9,011,B,119.993480896,visual,2017_Nov_03_1007,
1,2,Alien5.bmp,12,125,S,0,4,4,4,,,,,,,,,None,,,,,4,9,011,B,119.993480896,visual,2017_Nov_03_1007,
1,3,Alien6.bmp,12,126,S,0,5,5,5,,,,,,,,,None,,,,,4,9,011,B,119.993480896,visual,2017_Nov_03_1007,
2,1,Alien1.bmp,11,127,S,0,6,6,6,,,,,,,,,None,,,,,4,9,011,B,119.993480896,visual,2017_Nov_03_1007,
2,2,Alien2.bmp,11,128,S,0,7,7,7,,,,,,,,,None,,,,,4,9,011,B,119.993480896,visual,2017_Nov_03_1007,
2,3,Alien3.bmp,11,129,S,0,8,8,8,,,,,,,,,None,,,,,4,9,011,B,119.993480896,visual,2017_Nov_03_1007,
4,1,Alien7.bmp,11,130,S,0,9,9,9,,,,,,,,,None,,,,,4,9,011,B,119.993480896,visual,2017_Nov_03_1007,
4,2,Alien8.bmp,11,131,S,0,10,10,10,,,,,,,,,None,,,,,4,9,011,B,119.993480896,visual,2017_Nov_03_1007,
4,3,Alien9.bmp,11,132,S,0,11,11,11,,,,,,,,,3,,,0.466941477614,,4,9,011,B,119.993480896,visual,2017_Nov_03_1007,
3,1,Alien10.bmp,11,133,S,0,12,12,12,,,,,,,,,None,,,,,4,9,011,B,119.993480896,visual,2017_Nov_03_1007,
3,2,Alien11.bmp,11,134,S,0,13,13,13,,,,,,,,,None,,,,,4,9,011,B,119.993480896,visual,2017_Nov_03_1007,
3,3,Alien12.bmp,11,135,S,0,14,14,14,,,,,,,,,None,,,,,4,9,011,B,119.993480896,visual,2017_Nov_03_1007,
4,1,Alien7.bmp,12,136,S,0,15,15,15,,,,,,,,,None,,,,,4,9,011,B,119.993480896,visual,2017_Nov_03_1007,
4,2,Alien8.bmp,12,137,S,0,16,16,16,,,,,,,,,None,,,,,4,9,011,B,119.993480896,visual,2017_Nov_03_1007,
4,3,Alien9.bmp,12,138,S,0,17,17,17,,,,,,,,,3,,,0.400293660117,,4,9,011,B,119.993480896,visual,2017_Nov_03_1007,
3,1,Alien10.bmp,12,139,S,0,18,18,18,,,,,,,,,None,,,,,4,9,011,B,119.993480896,visual,2017_Nov_03_1007,
3,2,Alien11.bmp,12,140,S,0,19,19,19,,,,,,,,,None,,,,,4,9,011,B,119.993480896,visual,2017_Nov_03_1007,
3,3,Alien12.bmp,12,141,S,0,20,20,20,,,,,,,,,None,,,,,4,9,011,B,119.993480896,visual,2017_Nov_03_1007,
2,1,Alien1.bmp,12,142,S,0,21,21,21,,,,,,,,,None,,,,,4,9,011,B,119.993480896,visual,2017_Nov_03_1007,
2,2,Alien2.bmp,12,143,S,0,22,22,22,,,,,,,,,None,,,,,4,9,011,B,119.993480896,visual,2017_Nov_03_1007,
2,3,Alien3.bmp,12,144,S,0,23,23,23,,,,,,,,,None,,,,,4,9,011,B,119.993480896,visual,2017_Nov_03_1007,
0,1,M.png,1,121,R,,,,,0,0,0,0,,,,,,None,,,,4,9,011,B,119.993480896,visual,2017_Nov_03_1007,
0,2,G.png,1,122,R,,,,,0,1,1,1,,,,,,None,,,,4,9,011,B,119.993480896,visual,2017_Nov_03_1007,
0,3,H.png,1,123,R,,,,,0,2,2,2,,,,,,None,,,,4,9,011,B,119.993480896,visual,2017_Nov_03_1007,
0,1,F.png,1,124,R,,,,,0,3,3,3,,,,,,None,,,,4,9,011,B,119.993480896,visual,2017_Nov_03_1007,
0,2,A.png,1,125,R,,,,,0,4,4,4,,,,,,None,,,,4,9,011,B,119.993480896,visual,2017_Nov_03_1007,
0,3,D.png,1,126,R,,,,,0,5,5,5,,,,,,None,,,,4,9,011,B,119.993480896,visual,2017_Nov_03_1007,
0,1,D.png,1,127,R,,,,,0,6,6,6,,,,,,None,,,,4,9,011,B,119.993480896,visual,2017_Nov_03_1007,
0,2,H.png,1,128,R,,,,,0,7,7,7,,,,,,None,,,,4,9,011,B,119.993480896,visual,2017_Nov_03_1007,
0,3,F.png,1,129,R,,,,,0,8,8,8,,,,,,None,,,,4,9,011,B,119.993480896,visual,2017_Nov_03_1007,
0,1,L.png,1,130,R,,,,,0,9,9,9,,,,,,None,,,,4,9,011,B,119.993480896,visual,2017_Nov_03_1007,
0,2,A.png,1,131,R,,,,,0,10,10,10,,,,,,None,,,,4,9,011,B,119.993480896,visual,2017_Nov_03_1007,
0,3,A.png,1,132,R,,,,,0,11,11,11,,,,,,None,,,,4,9,011,B,119.993480896,visual,2017_Nov_03_1007,
0,1,J.png,1,133,R,,,,,0,12,12,12,,,,,,None,,,,4,9,011,B,119.993480896,visual,2017_Nov_03_1007,
0,2,E.png,1,134,R,,,,,0,13,13,13,,,,,,None,,,,4,9,011,B,119.993480896,visual,2017_Nov_03_1007,
0,3,C.png,1,135,R,,,,,0,14,14,14,,,,,,None,,,,4,9,011,B,119.993480896,visual,2017_Nov_03_1007,
0,1,B.png,1,136,R,,,,,0,15,15,15,,,,,,3,0.38913008169,,,4,9,011,B,119.993480896,visual,2017_Nov_03_1007,
0,2,J.png,1,137,R,,,,,0,16,16,16,,,,,,None,,,,4,9,011,B,119.993480896,visual,2017_Nov_03_1007,
0,3,E.png,1,138,R,,,,,0,17,17,17,,,,,,None,,,,4,9,011,B,119.993480896,visual,2017_Nov_03_1007,
0,1,L.png,1,139,R,,,,,0,18,18,18,,,,,,None,,,,4,9,011,B,119.993480896,visual,2017_Nov_03_1007,
0,2,C.png,1,140,R,,,,,0,19,19,19,,,,,,None,,,,4,9,011,B,119.993480896,visual,2017_Nov_03_1007,
0,3,F.png,1,141,R,,,,,0,20,20,20,,,,,,None,,,,4,9,011,B,119.993480896,visual,2017_Nov_03_1007,
0,1,K.png,1,142,R,,,,,0,21,21,21,,,,,,None,,,,4,9,011,B,119.993480896,visual,2017_Nov_03_1007,
0,2,J.png,1,143,R,,,,,0,22,22,22,,,,,,None,,,,4,9,011,B,119.993480896,visual,2017_Nov_03_1007,
0,3,G.png,1,144,R,,,,,0,23,23,23,,,,,,None,,,,4,9,011,B,119.993480896,visual,2017_Nov_03_1007,
0,0,blank.png,0,0,B,,,,,,,,,0,0,0,0,,,,,None,4,9,011,B,119.993480896,visual,2017_Nov_03_1007,
0,0,blank.png,0,0,B,,,,,,,,,0,1,1,1,,,,,None,4,9,011,B,119.993480896,visual,2017_Nov_03_1007,
0,0,blank.png,0,0,B,,,,,,,,,0,2,2,2,,,,,None,4,9,011,B,119.993480896,visual,2017_Nov_03_1007,
0,0,blank.png,0,0,B,,,,,,,,,0,3,3,3,,,,,None,4,9,011,B,119.993480896,visual,2017_Nov_03_1007,
0,0,blank.png,0,0,B,,,,,,,,,0,4,4,4,,,,,None,4,9,011,B,119.993480896,visual,2017_Nov_03_1007,
0,0,blank.png,0,0,B,,,,,,,,,0,5,5,5,,,,,None,4,9,011,B,119.993480896,visual,2017_Nov_03_1007,
0,0,blank.png,0,0,B,,,,,,,,,0,6,6,6,,,,,None,4,9,011,B,119.993480896,visual,2017_Nov_03_1007,
0,0,blank.png,0,0,B,,,,,,,,,0,7,7,7,,,,,None,4,9,011,B,119.993480896,visual,2017_Nov_03_1007,
0,0,blank.png,0,0,B,,,,,,,,,0,8,8,8,,,,,None,4,9,011,B,119.993480896,visual,2017_Nov_03_1007,
0,0,blank.png,0,0,B,,,,,,,,,0,9,9,9,,,,,None,4,9,011,B,119.993480896,visual,2017_Nov_03_1007,
0,0,blank.png,0,0,B,,,,,,,,,0,10,10,10,,,,,None,4,9,011,B,119.993480896,visual,2017_Nov_03_1007,
0,0,blank.png,0,0,B,,,,,,,,,0,11,11,11,,,,,None,4,9,011,B,119.993480896,visual,2017_Nov_03_1007,
0,1,L.png,1,145,R,,,,,0,0,0,0,,,,,,None,,,,4,9,011,B,119.993480896,visual,2017_Nov_03_1007,
0,2,B.png,1,146,R,,,,,0,1,1,1,,,,,,3,0.381283121736,,,4,9,011,B,119.993480896,visual,2017_Nov_03_1007,
0,3,J.png,1,147,R,,,,,0,2,2,2,,,,,,None,,,,4,9,011,B,119.993480896,visual,2017_Nov_03_1007,
0,1,B.png,1,148,R,,,,,0,3,3,3,,,,,,3,0.57249328641,,,4,9,011,B,119.993480896,visual,2017_Nov_03_1007,
0,2,L.png,1,149,R,,,,,0,4,4,4,,,,,,None,,,,4,9,011,B,119.993480896,visual,2017_Nov_03_1007,
0,3,A.png,1,150,R,,,,,0,5,5,5,,,,,,None,,,,4,9,011,B,119.993480896,visual,2017_Nov_03_1007,
0,1,H.png,1,151,R,,,,,0,6,6,6,,,,,,None,,,,4,9,011,B,119.993480896,visual,2017_Nov_03_1007,
0,2,M.png,1,152,R,,,,,0,7,7,7,,,,,,None,,,,4,9,011,B,119.993480896,visual,2017_Nov_03_1007,
0,3,F.png,1,153,R,,,,,0,8,8,8,,,,,,None,,,,4,9,011,B,119.993480896,visual,2017_Nov_03_1007,
0,1,E.png,1,154,R,,,,,0,9,9,9,,,,,,None,,,,4,9,011,B,119.993480896,visual,2017_Nov_03_1007,
0,2,B.png,1,155,R,,,,,0,10,10,10,,,,,,3,0.364834287117,,,4,9,011,B,119.993480896,visual,2017_Nov_03_1007,
0,3,C.png,1,156,R,,,,,0,11,11,11,,,,,,None,,,,4,9,011,B,119.993480896,visual,2017_Nov_03_1007,
0,1,K.png,1,157,R,,,,,0,12,12,12,,,,,,None,,,,4,9,011,B,119.993480896,visual,2017_Nov_03_1007,
0,2,A.png,1,158,R,,,,,0,13,13,13,,,,,,None,,,,4,9,011,B,119.993480896,visual,2017_Nov_03_1007,
0,3,F.png,1,159,R,,,,,0,14,14,14,,,,,,None,,,,4,9,011,B,119.993480896,visual,2017_Nov_03_1007,
0,1,M.png,1,160,R,,,,,0,15,15,15,,,,,,None,,,,4,9,011,B,119.993480896,visual,2017_Nov_03_1007,
0,2,G.png,1,161,R,,,,,0,16,16,16,,,,,,None,,,,4,9,011,B,119.993480896,visual,2017_Nov_03_1007,
0,3,E.png,1,162,R,,,,,0,17,17,17,,,,,,None,,,,4,9,011,B,119.993480896,visual,2017_Nov_03_1007,
0,1,D.png,1,163,R,,,,,0,18,18,18,,,,,,None,,,,4,9,011,B,119.993480896,visual,2017_Nov_03_1007,
0,2,M.png,1,164,R,,,,,0,19,19,19,,,,,,None,,,,4,9,011,B,119.993480896,visual,2017_Nov_03_1007,
0,3,H.png,1,165,R,,,,,0,20,20,20,,,,,,None,,,,4,9,011,B,119.993480896,visual,2017_Nov_03_1007,
0,1,K.png,1,166,R,,,,,0,21,21,21,,,,,,None,,,,4,9,011,B,119.993480896,visual,2017_Nov_03_1007,
0,2,K.png,1,167,R,,,,,0,22,22,22,,,,,,None,,,,4,9,011,B,119.993480896,visual,2017_Nov_03_1007,
0,3,J.png,1,168,R,,,,,0,23,23,23,,,,,,None,,,,4,9,011,B,119.993480896,visual,2017_Nov_03_1007,
1,1,Alien4.bmp,13,145,S,0,0,0,0,,,,,,,,,None,,,,,4,9,011,B,119.993480896,visual,2017_Nov_03_1007,
1,2,Alien5.bmp,13,146,S,0,1,1,1,,,,,,,,,None,,,,,4,9,011,B,119.993480896,visual,2017_Nov_03_1007,
1,3,Alien6.bmp,13,147,S,0,2,2,2,,,,,,,,,None,,,,,4,9,011,B,119.993480896,visual,2017_Nov_03_1007,
3,1,Alien10.bmp,13,148,S,0,3,3,3,,,,,,,,,None,,,,,4,9,011,B,119.993480896,visual,2017_Nov_03_1007,
3,2,Alien11.bmp,13,149,S,0,4,4,4,,,,,,,,,None,,,,,4,9,011,B,119.993480896,visual,2017_Nov_03_1007,
3,3,Alien12.bmp,13,150,S,0,5,5,5,,,,,,,,,None,,,,,4,9,011,B,119.993480896,visual,2017_Nov_03_1007,
1,1,Alien4.bmp,14,151,S,0,6,6,6,,,,,,,,,None,,,,,4,9,011,B,119.993480896,visual,2017_Nov_03_1007,
1,2,Alien5.bmp,14,152,S,0,7,7,7,,,,,,,,,None,,,,,4,9,011,B,119.993480896,visual,2017_Nov_03_1007,
1,3,Alien6.bmp,14,153,S,0,8,8,8,,,,,,,,,None,,,,,4,9,011,B,119.993480896,visual,2017_Nov_03_1007,
4,1,Alien7.bmp,13,154,S,0,9,9,9,,,,,,,,,None,,,,,4,9,011,B,119.993480896,visual,2017_Nov_03_1007,
4,2,Alien8.bmp,13,155,S,0,10,10,10,,,,,,,,,None,,,,,4,9,011,B,119.993480896,visual,2017_Nov_03_1007,
4,3,Alien9.bmp,13,156,S,0,11,11,11,,,,,,,,,3,,,0.416952414496,,4,9,011,B,119.993480896,visual,2017_Nov_03_1007,
2,1,Alien1.bmp,13,157,S,0,12,12,12,,,,,,,,,None,,,,,4,9,011,B,119.993480896,visual,2017_Nov_03_1007,
2,2,Alien2.bmp,13,158,S,0,13,13,13,,,,,,,,,None,,,,,4,9,011,B,119.993480896,visual,2017_Nov_03_1007,
2,3,Alien3.bmp,13,159,S,0,14,14,14,,,,,,,,,None,,,,,4,9,011,B,119.993480896,visual,2017_Nov_03_1007,
1,1,Alien4.bmp,15,160,S,0,15,15,15,,,,,,,,,None,,,,,4,9,011,B,119.993480896,visual,2017_Nov_03_1007,
1,2,Alien5.bmp,15,161,S,0,16,16,16,,,,,,,,,None,,,,,4,9,011,B,119.993480896,visual,2017_Nov_03_1007,
1,3,Alien6.bmp,15,162,S,0,17,17,17,,,,,,,,,None,,,,,4,9,011,B,119.993480896,visual,2017_Nov_03_1007,
4,1,Alien7.bmp,14,163,S,0,18,18,18,,,,,,,,,None,,,,,4,9,011,B,119.993480896,visual,2017_Nov_03_1007,
4,2,Alien8.bmp,14,164,S,0,19,19,19,,,,,,,,,None,,,,,4,9,011,B,119.993480896,visual,2017_Nov_03_1007,
4,3,Alien9.bmp,14,165,S,0,20,20,20,,,,,,,,,3,,,0.666977090019,,4,9,011,B,119.993480896,visual,2017_Nov_03_1007,
2,1,Alien1.bmp,14,166,S,0,21,21,21,,,,,,,,,None,,,,,4,9,011,B,119.993480896,visual,2017_Nov_03_1007,
2,2,Alien2.bmp,14,167,S,0,22,22,22,,,,,,,,,None,,,,,4,9,011,B,119.993480896,visual,2017_Nov_03_1007,
2,3,Alien3.bmp,14,168,S,0,23,23,23,,,,,,,,,None,,,,,4,9,011,B,119.993480896,visual,2017_Nov_03_1007,
0,0,blank.png,0,0,B,0,24,24,24,,,,,,,,,None,,,,,4,9,011,B,119.993480896,visual,2017_Nov_03_1007,
0,0,blank.png,0,0,B,0,25,25,25,,,,,,,,,None,,,,,4,9,011,B,119.993480896,visual,2017_Nov_03_1007,
0,0,blank.png,0,0,B,0,26,26,26,,,,,,,,,None,,,,,4,9,011,B,119.993480896,visual,2017_Nov_03_1007,
0,0,blank.png,0,0,B,0,27,27,27,,,,,,,,,None,,,,,4,9,011,B,119.993480896,visual,2017_Nov_03_1007,
0,0,blank.png,0,0,B,0,28,28,28,,,,,,,,,None,,,,,4,9,011,B,119.993480896,visual,2017_Nov_03_1007,
0,0,blank.png,0,0,B,0,29,29,29,,,,,,,,,None,,,,,4,9,011,B,119.993480896,visual,2017_Nov_03_1007,
0,0,blank.png,0,0,B,0,30,30,30,,,,,,,,,None,,,,,4,9,011,B,119.993480896,visual,2017_Nov_03_1007,
0,0,blank.png,0,0,B,0,31,31,31,,,,,,,,,None,,,,,4,9,011,B,119.993480896,visual,2017_Nov_03_1007,
0,0,blank.png,0,0,B,0,32,32,32,,,,,,,,,None,,,,,4,9,011,B,119.993480896,visual,2017_Nov_03_1007,
0,0,blank.png,0,0,B,0,33,33,33,,,,,,,,,None,,,,,4,9,011,B,119.993480896,visual,2017_Nov_03_1007,
0,0,blank.png,0,0,B,0,34,34,34,,,,,,,,,None,,,,,4,9,011,B,119.993480896,visual,2017_Nov_03_1007,
0,0,blank.png,0,0,B,0,35,35,35,,,,,,,,,None,,,,,4,9,011,B,119.993480896,visual,2017_Nov_03_1007,
3,1,Alien10.bmp,14,169,S,0,36,36,36,,,,,,,,,None,,,,,4,9,011,B,119.993480896,visual,2017_Nov_03_1007,
3,2,Alien11.bmp,14,170,S,0,37,37,37,,,,,,,,,None,,,,,4,9,011,B,119.993480896,visual,2017_Nov_03_1007,
3,3,Alien12.bmp,14,171,S,0,38,38,38,,,,,,,,,None,,,,,4,9,011,B,119.993480896,visual,2017_Nov_03_1007,
2,1,Alien1.bmp,15,172,S,0,39,39,39,,,,,,,,,None,,,,,4,9,011,B,119.993480896,visual,2017_Nov_03_1007,
2,2,Alien2.bmp,15,173,S,0,40,40,40,,,,,,,,,None,,,,,4,9,011,B,119.993480896,visual,2017_Nov_03_1007,
2,3,Alien3.bmp,15,174,S,0,41,41,41,,,,,,,,,None,,,,,4,9,011,B,119.993480896,visual,2017_Nov_03_1007,
1,1,Alien4.bmp,16,175,S,0,42,42,42,,,,,,,,,None,,,,,4,9,011,B,119.993480896,visual,2017_Nov_03_1007,
1,2,Alien5.bmp,16,176,S,0,43,43,43,,,,,,,,,None,,,,,4,9,011,B,119.993480896,visual,2017_Nov_03_1007,
1,3,Alien6.bmp,16,177,S,0,44,44,44,,,,,,,,,None,,,,,4,9,011,B,119.993480896,visual,2017_Nov_03_1007,
3,1,Alien10.bmp,15,178,S,0,45,45,45,,,,,,,,,None,,,,,4,9,011,B,119.993480896,visual,2017_Nov_03_1007,
3,2,Alien11.bmp,15,179,S,0,46,46,46,,,,,,,,,None,,,,,4,9,011,B,119.993480896,visual,2017_Nov_03_1007,
3,3,Alien12.bmp,15,180,S,0,47,47,47,,,,,,,,,None,,,,,4,9,011,B,119.993480896,visual,2017_Nov_03_1007,
4,1,Alien7.bmp,15,181,S,0,48,48,48,,,,,,,,,None,,,,,4,9,011,B,119.993480896,visual,2017_Nov_03_1007,
4,2,Alien8.bmp,15,182,S,0,49,49,49,,,,,,,,,None,,,,,4,9,011,B,119.993480896,visual,2017_Nov_03_1007,
4,3,Alien9.bmp,15,183,S,0,50,50,50,,,,,,,,,3,,,0.475367850246,,4,9,011,B,119.993480896,visual,2017_Nov_03_1007,
3,1,Alien10.bmp,16,184,S,0,51,51,51,,,,,,,,,None,,,,,4,9,011,B,119.993480896,visual,2017_Nov_03_1007,
3,2,Alien11.bmp,16,185,S,0,52,52,52,,,,,,,,,None,,,,,4,9,011,B,119.993480896,visual,2017_Nov_03_1007,
3,3,Alien12.bmp,16,186,S,0,53,53,53,,,,,,,,,None,,,,,4,9,011,B,119.993480896,visual,2017_Nov_03_1007,
2,1,Alien1.bmp,16,187,S,0,54,54,54,,,,,,,,,None,,,,,4,9,011,B,119.993480896,visual,2017_Nov_03_1007,
2,2,Alien2.bmp,16,188,S,0,55,55,55,,,,,,,,,None,,,,,4,9,011,B,119.993480896,visual,2017_Nov_03_1007,
2,3,Alien3.bmp,16,189,S,0,56,56,56,,,,,,,,,None,,,,,4,9,011,B,119.993480896,visual,2017_Nov_03_1007,
4,1,Alien7.bmp,16,190,S,0,57,57,57,,,,,,,,,None,,,,,4,9,011,B,119.993480896,visual,2017_Nov_03_1007,
4,2,Alien8.bmp,16,191,S,0,58,58,58,,,,,,,,,None,,,,,4,9,011,B,119.993480896,visual,2017_Nov_03_1007,
4,3,Alien9.bmp,16,192,S,0,59,59,59,,,,,,,,,3,,,0.433633639957,,4,9,011,B,119.993480896,visual,2017_Nov_03_1007,
0,0,blank.png,0,0,B,0,60,60,60,,,,,,,,,None,,,,,4,9,011,B,119.993480896,visual,2017_Nov_03_1007,
0,0,blank.png,0,0,B,0,61,61,61,,,,,,,,,None,,,,,4,9,011,B,119.993480896,visual,2017_Nov_03_1007,
0,0,blank.png,0,0,B,0,62,62,62,,,,,,,,,None,,,,,4,9,011,B,119.993480896,visual,2017_Nov_03_1007,
0,0,blank.png,0,0,B,0,63,63,63,,,,,,,,,None,,,,,4,9,011,B,119.993480896,visual,2017_Nov_03_1007,
0,0,blank.png,0,0,B,0,64,64,64,,,,,,,,,None,,,,,4,9,011,B,119.993480896,visual,2017_Nov_03_1007,
0,0,blank.png,0,0,B,0,65,65,65,,,,,,,,,None,,,,,4,9,011,B,119.993480896,visual,2017_Nov_03_1007,
0,0,blank.png,0,0,B,0,66,66,66,,,,,,,,,None,,,,,4,9,011,B,119.993480896,visual,2017_Nov_03_1007,
0,0,blank.png,0,0,B,0,67,67,67,,,,,,,,,None,,,,,4,9,011,B,119.993480896,visual,2017_Nov_03_1007,
0,0,blank.png,0,0,B,0,68,68,68,,,,,,,,,None,,,,,4,9,011,B,119.993480896,visual,2017_Nov_03_1007,
0,0,blank.png,0,0,B,0,69,69,69,,,,,,,,,None,,,,,4,9,011,B,119.993480896,visual,2017_Nov_03_1007,
0,0,blank.png,0,0,B,0,70,70,70,,,,,,,,,None,,,,,4,9,011,B,119.993480896,visual,2017_Nov_03_1007,
0,0,blank.png,0,0,B,0,71,71,71,,,,,,,,,None,,,,,4,9,011,B,119.993480896,visual,2017_Nov_03_1007,
0,1,A.png,1,169,R,,,,,0,0,0,0,,,,,,None,,,,4,9,011,B,119.993480896,visual,2017_Nov_03_1007,
0,2,H.png,1,170,R,,,,,0,1,1,1,,,,,,None,,,,4,9,011,B,119.993480896,visual,2017_Nov_03_1007,
0,3,G.png,1,171,R,,,,,0,2,2,2,,,,,,None,,,,4,9,011,B,119.993480896,visual,2017_Nov_03_1007,
0,1,C.png,1,172,R,,,,,0,3,3,3,,,,,,None,,,,4,9,011,B,119.993480896,visual,2017_Nov_03_1007,
0,2,F.png,1,173,R,,,,,0,4,4,4,,,,,,None,,,,4,9,011,B,119.993480896,visual,2017_Nov_03_1007,
0,3,K.png,1,174,R,,,,,0,5,5,5,,,,,,None,,,,4,9,011,B,119.993480896,visual,2017_Nov_03_1007,
0,1,D.png,1,175,R,,,,,0,6,6,6,,,,,,None,,,,4,9,011,B,119.993480896,visual,2017_Nov_03_1007,
0,2,C.png,1,176,R,,,,,0,7,7,7,,,,,,None,,,,4,9,011,B,119.993480896,visual,2017_Nov_03_1007,
0,3,H.png,1,177,R,,,,,0,8,8,8,,,,,,None,,,,4,9,011,B,119.993480896,visual,2017_Nov_03_1007,
0,1,E.png,1,178,R,,,,,0,9,9,9,,,,,,None,,,,4,9,011,B,119.993480896,visual,2017_Nov_03_1007,
0,2,L.png,1,179,R,,,,,0,10,10,10,,,,,,None,,,,4,9,011,B,119.993480896,visual,2017_Nov_03_1007,
0,3,A.png,1,180,R,,,,,0,11,11,11,,,,,,None,,,,4,9,011,B,119.993480896,visual,2017_Nov_03_1007,
0,1,F.png,1,181,R,,,,,0,12,12,12,,,,,,None,,,,4,9,011,B,119.993480896,visual,2017_Nov_03_1007,
0,2,J.png,1,182,R,,,,,0,13,13,13,,,,,,None,,,,4,9,011,B,119.993480896,visual,2017_Nov_03_1007,
0,3,M.png,1,183,R,,,,,0,14,14,14,,,,,,None,,,,4,9,011,B,119.993480896,visual,2017_Nov_03_1007,
0,1,E.png,1,184,R,,,,,0,15,15,15,,,,,,None,,,,4,9,011,B,119.993480896,visual,2017_Nov_03_1007,
0,2,G.png,1,185,R,,,,,0,16,16,16,,,,,,None,,,,4,9,011,B,119.993480896,visual,2017_Nov_03_1007,
0,3,C.png,1,186,R,,,,,0,17,17,17,,,,,,None,,,,4,9,011,B,119.993480896,visual,2017_Nov_03_1007,
0,1,D.png,1,187,R,,,,,0,18,18,18,,,,,,None,,,,4,9,011,B,119.993480896,visual,2017_Nov_03_1007,
0,2,D.png,1,188,R,,,,,0,19,19,19,,,,,,None,,,,4,9,011,B,119.993480896,visual,2017_Nov_03_1007,
0,3,G.png,1,189,R,,,,,0,20,20,20,,,,,,None,,,,4,9,011,B,119.993480896,visual,2017_Nov_03_1007,
0,1,L.png,1,190,R,,,,,0,21,21,21,,,,,,None,,,,4,9,011,B,119.993480896,visual,2017_Nov_03_1007,
0,2,B.png,1,191,R,,,,,0,22,22,22,,,,,,3,0.514828498679,,,4,9,011,B,119.993480896,visual,2017_Nov_03_1007,
0,3,J.png,1,192,R,,,,,0,23,23,23,,,,,,None,,,,4,9,011,B,119.993480896,visual,2017_Nov_03_1007,
