word,location,image,repetition,trialnum,condition,v_block_trials.thisRepN,v_block_trials.thisTrialN,v_block_trials.thisN,v_block_trials.thisIndex,l_block_trial_loop.thisRepN,l_block_trial_loop.thisTrialN,l_block_trial_loop.thisN,l_block_trial_loop.thisIndex,blank_block_trial_loop.thisRepN,blank_block_trial_loop.thisTrialN,blank_block_trial_loop.thisN,blank_block_trial_loop.thisIndex,v_block_trial_key_resp.keys,v_block_trial_key_resp.rt,l_block_trial_key_resp.keys,l_block_trial_key_resp.rt,blank_block_trial_key_resp.keys,Run,vtarget,PartID,ltarget,frameRate,expName,date,
0,1,Alien12.bmp,1,193,R,0,0,0,0,,,,,,,,,None,,,,,2,3,f002,F,120.008977802,visual,2018_Jan_12_1124,
0,2,Alien1.bmp,1,194,R,0,1,1,1,,,,,,,,,None,,,,,2,3,f002,F,120.008977802,visual,2018_Jan_12_1124,
0,3,Alien1.bmp,1,195,R,0,2,2,2,,,,,,,,,None,,,,,2,3,f002,F,120.008977802,visual,2018_Jan_12_1124,
0,1,Alien2.bmp,1,196,R,0,3,3,3,,,,,,,,,None,,,,,2,3,f002,F,120.008977802,visual,2018_Jan_12_1124,
0,2,Alien7.bmp,1,197,R,0,4,4,4,,,,,,,,,None,,,,,2,3,f002,F,120.008977802,visual,2018_Jan_12_1124,
0,3,Alien8.bmp,1,198,R,0,5,5,5,,,,,,,,,None,,,,,2,3,f002,F,120.008977802,visual,2018_Jan_12_1124,
0,1,Alien3.bmp,1,199,R,0,6,6,6,,,,,,,,,3,0.508914057165,,,,2,3,f002,F,120.008977802,visual,2018_Jan_12_1124,
0,2,Alien5.bmp,1,200,R,0,7,7,7,,,,,,,,,None,,,,,2,3,f002,F,120.008977802,visual,2018_Jan_12_1124,
0,3,Alien2.bmp,1,201,R,0,8,8,8,,,,,,,,,None,,,,,2,3,f002,F,120.008977802,visual,2018_Jan_12_1124,
0,1,Alien4.bmp,1,202,R,0,9,9,9,,,,,,,,,None,,,,,2,3,f002,F,120.008977802,visual,2018_Jan_12_1124,
0,2,Alien9.bmp,1,203,R,0,10,10,10,,,,,,,,,None,,,,,2,3,f002,F,120.008977802,visual,2018_Jan_12_1124,
0,3,Alien6.bmp,1,204,R,0,11,11,11,,,,,,,,,None,,,,,2,3,f002,F,120.008977802,visual,2018_Jan_12_1124,
0,1,Alien3.bmp,1,205,R,0,12,12,12,,,,,,,,,3,0.642786621116,,,,2,3,f002,F,120.008977802,visual,2018_Jan_12_1124,
0,2,Alien11.bmp,1,206,R,0,13,13,13,,,,,,,,,None,,,,,2,3,f002,F,120.008977802,visual,2018_Jan_12_1124,
0,3,Alien10.bmp,1,207,R,0,14,14,14,,,,,,,,,None,,,,,2,3,f002,F,120.008977802,visual,2018_Jan_12_1124,
0,1,Alien4.bmp,1,208,R,0,15,15,15,,,,,,,,,None,,,,,2,3,f002,F,120.008977802,visual,2018_Jan_12_1124,
0,2,Alien8.bmp,1,209,R,0,16,16,16,,,,,,,,,None,,,,,2,3,f002,F,120.008977802,visual,2018_Jan_12_1124,
0,3,Alien5.bmp,1,210,R,0,17,17,17,,,,,,,,,None,,,,,2,3,f002,F,120.008977802,visual,2018_Jan_12_1124,
0,1,Alien9.bmp,1,211,R,0,18,18,18,,,,,,,,,None,,,,,2,3,f002,F,120.008977802,visual,2018_Jan_12_1124,
0,2,Alien11.bmp,1,212,R,0,19,19,19,,,,,,,,,None,,,,,2,3,f002,F,120.008977802,visual,2018_Jan_12_1124,
0,3,Alien7.bmp,1,213,R,0,20,20,20,,,,,,,,,None,,,,,2,3,f002,F,120.008977802,visual,2018_Jan_12_1124,
0,1,Alien10.bmp,1,214,R,0,21,21,21,,,,,,,,,None,,,,,2,3,f002,F,120.008977802,visual,2018_Jan_12_1124,
0,2,Alien6.bmp,1,215,R,0,22,22,22,,,,,,,,,None,,,,,2,3,f002,F,120.008977802,visual,2018_Jan_12_1124,
0,3,Alien12.bmp,1,216,R,0,23,23,23,,,,,,,,,None,,,,,2,3,f002,F,120.008977802,visual,2018_Jan_12_1124,
0,1,Alien7.bmp,1,217,R,0,24,24,24,,,,,,,,,None,,,,,2,3,f002,F,120.008977802,visual,2018_Jan_12_1124,
0,2,Alien5.bmp,1,218,R,0,25,25,25,,,,,,,,,None,,,,,2,3,f002,F,120.008977802,visual,2018_Jan_12_1124,
0,3,Alien2.bmp,1,219,R,0,26,26,26,,,,,,,,,None,,,,,2,3,f002,F,120.008977802,visual,2018_Jan_12_1124,
0,1,Alien4.bmp,1,220,R,0,27,27,27,,,,,,,,,None,,,,,2,3,f002,F,120.008977802,visual,2018_Jan_12_1124,
0,2,Alien5.bmp,1,221,R,0,28,28,28,,,,,,,,,None,,,,,2,3,f002,F,120.008977802,visual,2018_Jan_12_1124,
0,3,Alien11.bmp,1,222,R,0,29,29,29,,,,,,,,,None,,,,,2,3,f002,F,120.008977802,visual,2018_Jan_12_1124,
0,1,Alien11.bmp,1,223,R,0,30,30,30,,,,,,,,,None,,,,,2,3,f002,F,120.008977802,visual,2018_Jan_12_1124,
0,2,Alien12.bmp,1,224,R,0,31,31,31,,,,,,,,,None,,,,,2,3,f002,F,120.008977802,visual,2018_Jan_12_1124,
0,3,Alien9.bmp,1,225,R,0,32,32,32,,,,,,,,,None,,,,,2,3,f002,F,120.008977802,visual,2018_Jan_12_1124,
0,1,Alien4.bmp,1,226,R,0,33,33,33,,,,,,,,,None,,,,,2,3,f002,F,120.008977802,visual,2018_Jan_12_1124,
0,2,Alien8.bmp,1,227,R,0,34,34,34,,,,,,,,,None,,,,,2,3,f002,F,120.008977802,visual,2018_Jan_12_1124,
0,3,Alien9.bmp,1,228,R,0,35,35,35,,,,,,,,,None,,,,,2,3,f002,F,120.008977802,visual,2018_Jan_12_1124,
0,1,Alien6.bmp,1,229,R,0,36,36,36,,,,,,,,,None,,,,,2,3,f002,F,120.008977802,visual,2018_Jan_12_1124,
0,2,Alien10.bmp,1,230,R,0,37,37,37,,,,,,,,,None,,,,,2,3,f002,F,120.008977802,visual,2018_Jan_12_1124,
0,3,Alien3.bmp,1,231,R,0,38,38,38,,,,,,,,,3,0.500309901778,,,,2,3,f002,F,120.008977802,visual,2018_Jan_12_1124,
0,1,Alien12.bmp,1,232,R,0,39,39,39,,,,,,,,,None,,,,,2,3,f002,F,120.008977802,visual,2018_Jan_12_1124,
0,2,Alien6.bmp,1,233,R,0,40,40,40,,,,,,,,,None,,,,,2,3,f002,F,120.008977802,visual,2018_Jan_12_1124,
0,3,Alien3.bmp,1,234,R,0,41,41,41,,,,,,,,,3,0.500430790707,,,,2,3,f002,F,120.008977802,visual,2018_Jan_12_1124,
0,1,Alien8.bmp,1,235,R,0,42,42,42,,,,,,,,,None,,,,,2,3,f002,F,120.008977802,visual,2018_Jan_12_1124,
0,2,Alien2.bmp,1,236,R,0,43,43,43,,,,,,,,,None,,,,,2,3,f002,F,120.008977802,visual,2018_Jan_12_1124,
0,3,Alien7.bmp,1,237,R,0,44,44,44,,,,,,,,,None,,,,,2,3,f002,F,120.008977802,visual,2018_Jan_12_1124,
0,1,Alien1.bmp,1,238,R,0,45,45,45,,,,,,,,,None,,,,,2,3,f002,F,120.008977802,visual,2018_Jan_12_1124,
0,2,Alien1.bmp,1,239,R,0,46,46,46,,,,,,,,,None,,,,,2,3,f002,F,120.008977802,visual,2018_Jan_12_1124,
0,3,Alien10.bmp,1,240,R,0,47,47,47,,,,,,,,,None,,,,,2,3,f002,F,120.008977802,visual,2018_Jan_12_1124,
1,1,M.png,17,193,S,,,,,0,0,0,0,,,,,,,None,,,2,3,f002,F,120.008977802,visual,2018_Jan_12_1124,
1,2,K.png,17,194,S,,,,,0,1,1,1,,,,,,,None,,,2,3,f002,F,120.008977802,visual,2018_Jan_12_1124,
1,3,B.png,17,195,S,,,,,0,2,2,2,,,,,,,None,,,2,3,f002,F,120.008977802,visual,2018_Jan_12_1124,
4,1,E.png,17,196,S,,,,,0,3,3,3,,,,,,,None,,,2,3,f002,F,120.008977802,visual,2018_Jan_12_1124,
4,2,L.png,17,197,S,,,,,0,4,4,4,,,,,,,None,,,2,3,f002,F,120.008977802,visual,2018_Jan_12_1124,
4,3,H.png,17,198,S,,,,,0,5,5,5,,,,,,,None,,,2,3,f002,F,120.008977802,visual,2018_Jan_12_1124,
2,1,A.png,17,199,S,,,,,0,6,6,6,,,,,,,None,,,2,3,f002,F,120.008977802,visual,2018_Jan_12_1124,
2,2,J.png,17,200,S,,,,,0,7,7,7,,,,,,,None,,,2,3,f002,F,120.008977802,visual,2018_Jan_12_1124,
2,3,F.png,17,201,S,,,,,0,8,8,8,,,,,,,3,0.166983015835,,2,3,f002,F,120.008977802,visual,2018_Jan_12_1124,
3,1,D.png,17,202,S,,,,,0,9,9,9,,,,,,,None,,,2,3,f002,F,120.008977802,visual,2018_Jan_12_1124,
3,2,G.png,17,203,S,,,,,0,10,10,10,,,,,,,None,,,2,3,f002,F,120.008977802,visual,2018_Jan_12_1124,
3,3,C.png,17,204,S,,,,,0,11,11,11,,,,,,,None,,,2,3,f002,F,120.008977802,visual,2018_Jan_12_1124,
4,1,E.png,18,205,S,,,,,0,12,12,12,,,,,,,None,,,2,3,f002,F,120.008977802,visual,2018_Jan_12_1124,
4,2,L.png,18,206,S,,,,,0,13,13,13,,,,,,,None,,,2,3,f002,F,120.008977802,visual,2018_Jan_12_1124,
4,3,H.png,18,207,S,,,,,0,14,14,14,,,,,,,None,,,2,3,f002,F,120.008977802,visual,2018_Jan_12_1124,
1,1,M.png,18,208,S,,,,,0,15,15,15,,,,,,,None,,,2,3,f002,F,120.008977802,visual,2018_Jan_12_1124,
1,2,K.png,18,209,S,,,,,0,16,16,16,,,,,,,None,,,2,3,f002,F,120.008977802,visual,2018_Jan_12_1124,
1,3,B.png,18,210,S,,,,,0,17,17,17,,,,,,,None,,,2,3,f002,F,120.008977802,visual,2018_Jan_12_1124,
2,1,A.png,18,211,S,,,,,0,18,18,18,,,,,,,None,,,2,3,f002,F,120.008977802,visual,2018_Jan_12_1124,
2,2,J.png,18,212,S,,,,,0,19,19,19,,,,,,,3,0.542290464509,,2,3,f002,F,120.008977802,visual,2018_Jan_12_1124,
2,3,F.png,18,213,S,,,,,0,20,20,20,,,,,,,3,0.1324230358,,2,3,f002,F,120.008977802,visual,2018_Jan_12_1124,
3,1,D.png,18,214,S,,,,,0,21,21,21,,,,,,,None,,,2,3,f002,F,120.008977802,visual,2018_Jan_12_1124,
3,2,G.png,18,215,S,,,,,0,22,22,22,,,,,,,None,,,2,3,f002,F,120.008977802,visual,2018_Jan_12_1124,
3,3,C.png,18,216,S,,,,,0,23,23,23,,,,,,,None,,,2,3,f002,F,120.008977802,visual,2018_Jan_12_1124,
1,1,M.png,19,217,S,,,,,0,24,24,24,,,,,,,None,,,2,3,f002,F,120.008977802,visual,2018_Jan_12_1124,
1,2,K.png,19,218,S,,,,,0,25,25,25,,,,,,,None,,,2,3,f002,F,120.008977802,visual,2018_Jan_12_1124,
1,3,B.png,19,219,S,,,,,0,26,26,26,,,,,,,None,,,2,3,f002,F,120.008977802,visual,2018_Jan_12_1124,
3,1,D.png,19,220,S,,,,,0,27,27,27,,,,,,,None,,,2,3,f002,F,120.008977802,visual,2018_Jan_12_1124,
3,2,G.png,19,221,S,,,,,0,28,28,28,,,,,,,None,,,2,3,f002,F,120.008977802,visual,2018_Jan_12_1124,
3,3,C.png,19,222,S,,,,,0,29,29,29,,,,,,,None,,,2,3,f002,F,120.008977802,visual,2018_Jan_12_1124,
4,1,E.png,19,223,S,,,,,0,30,30,30,,,,,,,None,,,2,3,f002,F,120.008977802,visual,2018_Jan_12_1124,
4,2,L.png,19,224,S,,,,,0,31,31,31,,,,,,,None,,,2,3,f002,F,120.008977802,visual,2018_Jan_12_1124,
4,3,H.png,19,225,S,,,,,0,32,32,32,,,,,,,None,,,2,3,f002,F,120.008977802,visual,2018_Jan_12_1124,
2,1,A.png,19,226,S,,,,,0,33,33,33,,,,,,,None,,,2,3,f002,F,120.008977802,visual,2018_Jan_12_1124,
2,2,J.png,19,227,S,,,,,0,34,34,34,,,,,,,None,,,2,3,f002,F,120.008977802,visual,2018_Jan_12_1124,
2,3,F.png,19,228,S,,,,,0,35,35,35,,,,,,,3,0.108707494102,,2,3,f002,F,120.008977802,visual,2018_Jan_12_1124,
4,1,E.png,20,229,S,,,,,0,36,36,36,,,,,,,None,,,2,3,f002,F,120.008977802,visual,2018_Jan_12_1124,
4,2,L.png,20,230,S,,,,,0,37,37,37,,,,,,,None,,,2,3,f002,F,120.008977802,visual,2018_Jan_12_1124,
4,3,H.png,20,231,S,,,,,0,38,38,38,,,,,,,None,,,2,3,f002,F,120.008977802,visual,2018_Jan_12_1124,
3,1,D.png,20,232,S,,,,,0,39,39,39,,,,,,,None,,,2,3,f002,F,120.008977802,visual,2018_Jan_12_1124,
3,2,G.png,20,233,S,,,,,0,40,40,40,,,,,,,None,,,2,3,f002,F,120.008977802,visual,2018_Jan_12_1124,
3,3,C.png,20,234,S,,,,,0,41,41,41,,,,,,,None,,,2,3,f002,F,120.008977802,visual,2018_Jan_12_1124,
1,1,M.png,20,235,S,,,,,0,42,42,42,,,,,,,None,,,2,3,f002,F,120.008977802,visual,2018_Jan_12_1124,
1,2,K.png,20,236,S,,,,,0,43,43,43,,,,,,,None,,,2,3,f002,F,120.008977802,visual,2018_Jan_12_1124,
1,3,B.png,20,237,S,,,,,0,44,44,44,,,,,,,None,,,2,3,f002,F,120.008977802,visual,2018_Jan_12_1124,
2,1,A.png,20,238,S,,,,,0,45,45,45,,,,,,,None,,,2,3,f002,F,120.008977802,visual,2018_Jan_12_1124,
2,2,J.png,20,239,S,,,,,0,46,46,46,,,,,,,None,,,2,3,f002,F,120.008977802,visual,2018_Jan_12_1124,
2,3,F.png,20,240,S,,,,,0,47,47,47,,,,,,,3,0.116979133338,,2,3,f002,F,120.008977802,visual,2018_Jan_12_1124,
0,0,blank.png,0,0,B,,,,,,,,,0,0,0,0,,,,,None,2,3,f002,F,120.008977802,visual,2018_Jan_12_1124,
0,0,blank.png,0,0,B,,,,,,,,,0,1,1,1,,,,,None,2,3,f002,F,120.008977802,visual,2018_Jan_12_1124,
0,0,blank.png,0,0,B,,,,,,,,,0,2,2,2,,,,,None,2,3,f002,F,120.008977802,visual,2018_Jan_12_1124,
0,0,blank.png,0,0,B,,,,,,,,,0,3,3,3,,,,,None,2,3,f002,F,120.008977802,visual,2018_Jan_12_1124,
0,0,blank.png,0,0,B,,,,,,,,,0,4,4,4,,,,,None,2,3,f002,F,120.008977802,visual,2018_Jan_12_1124,
0,0,blank.png,0,0,B,,,,,,,,,0,5,5,5,,,,,None,2,3,f002,F,120.008977802,visual,2018_Jan_12_1124,
0,0,blank.png,0,0,B,,,,,,,,,0,6,6,6,,,,,None,2,3,f002,F,120.008977802,visual,2018_Jan_12_1124,
0,0,blank.png,0,0,B,,,,,,,,,0,7,7,7,,,,,None,2,3,f002,F,120.008977802,visual,2018_Jan_12_1124,
0,0,blank.png,0,0,B,,,,,,,,,0,8,8,8,,,,,None,2,3,f002,F,120.008977802,visual,2018_Jan_12_1124,
0,0,blank.png,0,0,B,,,,,,,,,0,9,9,9,,,,,None,2,3,f002,F,120.008977802,visual,2018_Jan_12_1124,
0,0,blank.png,0,0,B,,,,,,,,,0,10,10,10,,,,,None,2,3,f002,F,120.008977802,visual,2018_Jan_12_1124,
0,0,blank.png,0,0,B,,,,,,,,,0,11,11,11,,,,,None,2,3,f002,F,120.008977802,visual,2018_Jan_12_1124,
0,1,Alien10.bmp,1,241,R,0,0,0,0,,,,,,,,,None,,,,,2,3,f002,F,120.008977802,visual,2018_Jan_12_1124,
0,2,Alien8.bmp,1,242,R,0,1,1,1,,,,,,,,,None,,,,,2,3,f002,F,120.008977802,visual,2018_Jan_12_1124,
0,3,Alien9.bmp,1,243,R,0,2,2,2,,,,,,,,,None,,,,,2,3,f002,F,120.008977802,visual,2018_Jan_12_1124,
0,1,Alien8.bmp,1,244,R,0,3,3,3,,,,,,,,,None,,,,,2,3,f002,F,120.008977802,visual,2018_Jan_12_1124,
0,2,Alien4.bmp,1,245,R,0,4,4,4,,,,,,,,,None,,,,,2,3,f002,F,120.008977802,visual,2018_Jan_12_1124,
0,3,Alien7.bmp,1,246,R,0,5,5,5,,,,,,,,,None,,,,,2,3,f002,F,120.008977802,visual,2018_Jan_12_1124,
0,1,Alien5.bmp,1,247,R,0,6,6,6,,,,,,,,,None,,,,,2,3,f002,F,120.008977802,visual,2018_Jan_12_1124,
0,2,Alien4.bmp,1,248,R,0,7,7,7,,,,,,,,,None,,,,,2,3,f002,F,120.008977802,visual,2018_Jan_12_1124,
0,3,Alien8.bmp,1,249,R,0,8,8,8,,,,,,,,,None,,,,,2,3,f002,F,120.008977802,visual,2018_Jan_12_1124,
0,1,Alien2.bmp,1,250,R,0,9,9,9,,,,,,,,,None,,,,,2,3,f002,F,120.008977802,visual,2018_Jan_12_1124,
0,2,Alien12.bmp,1,251,R,0,10,10,10,,,,,,,,,None,,,,,2,3,f002,F,120.008977802,visual,2018_Jan_12_1124,
0,3,Alien12.bmp,1,252,R,0,11,11,11,,,,,,,,,None,,,,,2,3,f002,F,120.008977802,visual,2018_Jan_12_1124,
0,1,Alien6.bmp,1,253,R,0,12,12,12,,,,,,,,,None,,,,,2,3,f002,F,120.008977802,visual,2018_Jan_12_1124,
0,2,Alien7.bmp,1,254,R,0,13,13,13,,,,,,,,,None,,,,,2,3,f002,F,120.008977802,visual,2018_Jan_12_1124,
0,3,Alien9.bmp,1,255,R,0,14,14,14,,,,,,,,,None,,,,,2,3,f002,F,120.008977802,visual,2018_Jan_12_1124,
0,1,Alien10.bmp,1,256,R,0,15,15,15,,,,,,,,,None,,,,,2,3,f002,F,120.008977802,visual,2018_Jan_12_1124,
0,2,Alien3.bmp,1,257,R,0,16,16,16,,,,,,,,,3,0.525398741011,,,,2,3,f002,F,120.008977802,visual,2018_Jan_12_1124,
0,3,Alien11.bmp,1,258,R,0,17,17,17,,,,,,,,,None,,,,,2,3,f002,F,120.008977802,visual,2018_Jan_12_1124,
0,1,Alien9.bmp,1,259,R,0,18,18,18,,,,,,,,,None,,,,,2,3,f002,F,120.008977802,visual,2018_Jan_12_1124,
0,2,Alien6.bmp,1,260,R,0,19,19,19,,,,,,,,,None,,,,,2,3,f002,F,120.008977802,visual,2018_Jan_12_1124,
0,3,Alien7.bmp,1,261,R,0,20,20,20,,,,,,,,,None,,,,,2,3,f002,F,120.008977802,visual,2018_Jan_12_1124,
0,1,Alien1.bmp,1,262,R,0,21,21,21,,,,,,,,,None,,,,,2,3,f002,F,120.008977802,visual,2018_Jan_12_1124,
0,2,Alien11.bmp,1,263,R,0,22,22,22,,,,,,,,,None,,,,,2,3,f002,F,120.008977802,visual,2018_Jan_12_1124,
0,3,Alien5.bmp,1,264,R,0,23,23,23,,,,,,,,,None,,,,,2,3,f002,F,120.008977802,visual,2018_Jan_12_1124,
0,1,Alien11.bmp,1,265,R,0,24,24,24,,,,,,,,,None,,,,,2,3,f002,F,120.008977802,visual,2018_Jan_12_1124,
0,2,Alien6.bmp,1,266,R,0,25,25,25,,,,,,,,,None,,,,,2,3,f002,F,120.008977802,visual,2018_Jan_12_1124,
0,3,Alien10.bmp,1,267,R,0,26,26,26,,,,,,,,,None,,,,,2,3,f002,F,120.008977802,visual,2018_Jan_12_1124,
0,1,Alien4.bmp,1,268,R,0,27,27,27,,,,,,,,,None,,,,,2,3,f002,F,120.008977802,visual,2018_Jan_12_1124,
0,2,Alien11.bmp,1,269,R,0,28,28,28,,,,,,,,,None,,,,,2,3,f002,F,120.008977802,visual,2018_Jan_12_1124,
0,3,Alien6.bmp,1,270,R,0,29,29,29,,,,,,,,,None,,,,,2,3,f002,F,120.008977802,visual,2018_Jan_12_1124,
0,1,Alien2.bmp,1,271,R,0,30,30,30,,,,,,,,,None,,,,,2,3,f002,F,120.008977802,visual,2018_Jan_12_1124,
0,2,Alien12.bmp,1,272,R,0,31,31,31,,,,,,,,,None,,,,,2,3,f002,F,120.008977802,visual,2018_Jan_12_1124,
0,3,Alien12.bmp,1,273,R,0,32,32,32,,,,,,,,,None,,,,,2,3,f002,F,120.008977802,visual,2018_Jan_12_1124,
0,1,Alien4.bmp,1,274,R,0,33,33,33,,,,,,,,,None,,,,,2,3,f002,F,120.008977802,visual,2018_Jan_12_1124,
0,2,Alien3.bmp,1,275,R,0,34,34,34,,,,,,,,,3,0.592049440835,,,,2,3,f002,F,120.008977802,visual,2018_Jan_12_1124,
0,3,Alien9.bmp,1,276,R,0,35,35,35,,,,,,,,,None,,,,,2,3,f002,F,120.008977802,visual,2018_Jan_12_1124,
0,1,Alien2.bmp,1,277,R,0,36,36,36,,,,,,,,,None,,,,,2,3,f002,F,120.008977802,visual,2018_Jan_12_1124,
0,2,Alien8.bmp,1,278,R,0,37,37,37,,,,,,,,,None,,,,,2,3,f002,F,120.008977802,visual,2018_Jan_12_1124,
0,3,Alien5.bmp,1,279,R,0,38,38,38,,,,,,,,,None,,,,,2,3,f002,F,120.008977802,visual,2018_Jan_12_1124,
0,1,Alien4.bmp,1,280,R,0,39,39,39,,,,,,,,,None,,,,,2,3,f002,F,120.008977802,visual,2018_Jan_12_1124,
0,2,Alien3.bmp,1,281,R,0,40,40,40,,,,,,,,,3,0.575345166028,,,,2,3,f002,F,120.008977802,visual,2018_Jan_12_1124,
0,3,Alien1.bmp,1,282,R,0,41,41,41,,,,,,,,,None,,,,,2,3,f002,F,120.008977802,visual,2018_Jan_12_1124,
0,1,Alien1.bmp,1,283,R,0,42,42,42,,,,,,,,,None,,,,,2,3,f002,F,120.008977802,visual,2018_Jan_12_1124,
0,2,Alien7.bmp,1,284,R,0,43,43,43,,,,,,,,,None,,,,,2,3,f002,F,120.008977802,visual,2018_Jan_12_1124,
0,3,Alien6.bmp,1,285,R,0,44,44,44,,,,,,,,,None,,,,,2,3,f002,F,120.008977802,visual,2018_Jan_12_1124,
0,1,Alien5.bmp,1,286,R,0,45,45,45,,,,,,,,,None,,,,,2,3,f002,F,120.008977802,visual,2018_Jan_12_1124,
0,2,Alien10.bmp,1,287,R,0,46,46,46,,,,,,,,,None,,,,,2,3,f002,F,120.008977802,visual,2018_Jan_12_1124,
0,3,Alien5.bmp,1,288,R,0,47,47,47,,,,,,,,,None,,,,,2,3,f002,F,120.008977802,visual,2018_Jan_12_1124,
0,0,blank.png,0,0,B,0,48,48,48,,,,,,,,,None,,,,,2,3,f002,F,120.008977802,visual,2018_Jan_12_1124,
0,0,blank.png,0,0,B,0,49,49,49,,,,,,,,,None,,,,,2,3,f002,F,120.008977802,visual,2018_Jan_12_1124,
0,0,blank.png,0,0,B,0,50,50,50,,,,,,,,,None,,,,,2,3,f002,F,120.008977802,visual,2018_Jan_12_1124,
0,0,blank.png,0,0,B,0,51,51,51,,,,,,,,,None,,,,,2,3,f002,F,120.008977802,visual,2018_Jan_12_1124,
0,0,blank.png,0,0,B,0,52,52,52,,,,,,,,,None,,,,,2,3,f002,F,120.008977802,visual,2018_Jan_12_1124,
0,0,blank.png,0,0,B,0,53,53,53,,,,,,,,,None,,,,,2,3,f002,F,120.008977802,visual,2018_Jan_12_1124,
0,0,blank.png,0,0,B,0,54,54,54,,,,,,,,,None,,,,,2,3,f002,F,120.008977802,visual,2018_Jan_12_1124,
0,0,blank.png,0,0,B,0,55,55,55,,,,,,,,,None,,,,,2,3,f002,F,120.008977802,visual,2018_Jan_12_1124,
0,0,blank.png,0,0,B,0,56,56,56,,,,,,,,,None,,,,,2,3,f002,F,120.008977802,visual,2018_Jan_12_1124,
0,0,blank.png,0,0,B,0,57,57,57,,,,,,,,,None,,,,,2,3,f002,F,120.008977802,visual,2018_Jan_12_1124,
0,0,blank.png,0,0,B,0,58,58,58,,,,,,,,,None,,,,,2,3,f002,F,120.008977802,visual,2018_Jan_12_1124,
0,0,blank.png,0,0,B,0,59,59,59,,,,,,,,,None,,,,,2,3,f002,F,120.008977802,visual,2018_Jan_12_1124,
0,1,Alien6.bmp,1,289,R,0,60,60,60,,,,,,,,,None,,,,,2,3,f002,F,120.008977802,visual,2018_Jan_12_1124,
0,2,Alien12.bmp,1,290,R,0,61,61,61,,,,,,,,,None,,,,,2,3,f002,F,120.008977802,visual,2018_Jan_12_1124,
0,3,Alien6.bmp,1,291,R,0,62,62,62,,,,,,,,,None,,,,,2,3,f002,F,120.008977802,visual,2018_Jan_12_1124,
0,1,Alien5.bmp,1,292,R,0,63,63,63,,,,,,,,,None,,,,,2,3,f002,F,120.008977802,visual,2018_Jan_12_1124,
0,2,Alien8.bmp,1,293,R,0,64,64,64,,,,,,,,,None,,,,,2,3,f002,F,120.008977802,visual,2018_Jan_12_1124,
0,3,Alien10.bmp,1,294,R,0,65,65,65,,,,,,,,,None,,,,,2,3,f002,F,120.008977802,visual,2018_Jan_12_1124,
0,1,Alien8.bmp,1,295,R,0,66,66,66,,,,,,,,,None,,,,,2,3,f002,F,120.008977802,visual,2018_Jan_12_1124,
0,2,Alien7.bmp,1,296,R,0,67,67,67,,,,,,,,,None,,,,,2,3,f002,F,120.008977802,visual,2018_Jan_12_1124,
0,3,Alien10.bmp,1,297,R,0,68,68,68,,,,,,,,,None,,,,,2,3,f002,F,120.008977802,visual,2018_Jan_12_1124,
0,1,Alien5.bmp,1,298,R,0,69,69,69,,,,,,,,,None,,,,,2,3,f002,F,120.008977802,visual,2018_Jan_12_1124,
0,2,Alien2.bmp,1,299,R,0,70,70,70,,,,,,,,,None,,,,,2,3,f002,F,120.008977802,visual,2018_Jan_12_1124,
0,3,Alien7.bmp,1,300,R,0,71,71,71,,,,,,,,,None,,,,,2,3,f002,F,120.008977802,visual,2018_Jan_12_1124,
0,1,Alien9.bmp,1,301,R,0,72,72,72,,,,,,,,,None,,,,,2,3,f002,F,120.008977802,visual,2018_Jan_12_1124,
0,2,Alien9.bmp,1,302,R,0,73,73,73,,,,,,,,,None,,,,,2,3,f002,F,120.008977802,visual,2018_Jan_12_1124,
0,3,Alien12.bmp,1,303,R,0,74,74,74,,,,,,,,,None,,,,,2,3,f002,F,120.008977802,visual,2018_Jan_12_1124,
0,1,Alien11.bmp,1,304,R,0,75,75,75,,,,,,,,,None,,,,,2,3,f002,F,120.008977802,visual,2018_Jan_12_1124,
0,2,Alien11.bmp,1,305,R,0,76,76,76,,,,,,,,,None,,,,,2,3,f002,F,120.008977802,visual,2018_Jan_12_1124,
0,3,Alien4.bmp,1,306,R,0,77,77,77,,,,,,,,,None,,,,,2,3,f002,F,120.008977802,visual,2018_Jan_12_1124,
0,1,Alien3.bmp,1,307,R,0,78,78,78,,,,,,,,,3,0.525342421141,,,,2,3,f002,F,120.008977802,visual,2018_Jan_12_1124,
0,2,Alien7.bmp,1,308,R,0,79,79,79,,,,,,,,,None,,,,,2,3,f002,F,120.008977802,visual,2018_Jan_12_1124,
0,3,Alien8.bmp,1,309,R,0,80,80,80,,,,,,,,,None,,,,,2,3,f002,F,120.008977802,visual,2018_Jan_12_1124,
0,1,Alien1.bmp,1,310,R,0,81,81,81,,,,,,,,,None,,,,,2,3,f002,F,120.008977802,visual,2018_Jan_12_1124,
0,2,Alien9.bmp,1,311,R,0,82,82,82,,,,,,,,,None,,,,,2,3,f002,F,120.008977802,visual,2018_Jan_12_1124,
0,3,Alien4.bmp,1,312,R,0,83,83,83,,,,,,,,,None,,,,,2,3,f002,F,120.008977802,visual,2018_Jan_12_1124,
0,0,blank.png,0,0,B,0,84,84,84,,,,,,,,,None,,,,,2,3,f002,F,120.008977802,visual,2018_Jan_12_1124,
0,0,blank.png,0,0,B,0,85,85,85,,,,,,,,,None,,,,,2,3,f002,F,120.008977802,visual,2018_Jan_12_1124,
0,0,blank.png,0,0,B,0,86,86,86,,,,,,,,,None,,,,,2,3,f002,F,120.008977802,visual,2018_Jan_12_1124,
0,0,blank.png,0,0,B,0,87,87,87,,,,,,,,,None,,,,,2,3,f002,F,120.008977802,visual,2018_Jan_12_1124,
0,0,blank.png,0,0,B,0,88,88,88,,,,,,,,,None,,,,,2,3,f002,F,120.008977802,visual,2018_Jan_12_1124,
0,0,blank.png,0,0,B,0,89,89,89,,,,,,,,,None,,,,,2,3,f002,F,120.008977802,visual,2018_Jan_12_1124,
0,0,blank.png,0,0,B,0,90,90,90,,,,,,,,,None,,,,,2,3,f002,F,120.008977802,visual,2018_Jan_12_1124,
0,0,blank.png,0,0,B,0,91,91,91,,,,,,,,,None,,,,,2,3,f002,F,120.008977802,visual,2018_Jan_12_1124,
0,0,blank.png,0,0,B,0,92,92,92,,,,,,,,,None,,,,,2,3,f002,F,120.008977802,visual,2018_Jan_12_1124,
0,0,blank.png,0,0,B,0,93,93,93,,,,,,,,,None,,,,,2,3,f002,F,120.008977802,visual,2018_Jan_12_1124,
0,0,blank.png,0,0,B,0,94,94,94,,,,,,,,,None,,,,,2,3,f002,F,120.008977802,visual,2018_Jan_12_1124,
0,0,blank.png,0,0,B,0,95,95,95,,,,,,,,,None,,,,,2,3,f002,F,120.008977802,visual,2018_Jan_12_1124,
4,1,E.png,21,241,S,,,,,0,0,0,0,,,,,,,None,,,2,3,f002,F,120.008977802,visual,2018_Jan_12_1124,
4,2,L.png,21,242,S,,,,,0,1,1,1,,,,,,,None,,,2,3,f002,F,120.008977802,visual,2018_Jan_12_1124,
4,3,H.png,21,243,S,,,,,0,2,2,2,,,,,,,None,,,2,3,f002,F,120.008977802,visual,2018_Jan_12_1124,
1,1,M.png,21,244,S,,,,,0,3,3,3,,,,,,,None,,,2,3,f002,F,120.008977802,visual,2018_Jan_12_1124,
1,2,K.png,21,245,S,,,,,0,4,4,4,,,,,,,None,,,2,3,f002,F,120.008977802,visual,2018_Jan_12_1124,
1,3,B.png,21,246,S,,,,,0,5,5,5,,,,,,,None,,,2,3,f002,F,120.008977802,visual,2018_Jan_12_1124,
3,1,D.png,21,247,S,,,,,0,6,6,6,,,,,,,None,,,2,3,f002,F,120.008977802,visual,2018_Jan_12_1124,
3,2,G.png,21,248,S,,,,,0,7,7,7,,,,,,,None,,,2,3,f002,F,120.008977802,visual,2018_Jan_12_1124,
3,3,C.png,21,249,S,,,,,0,8,8,8,,,,,,,None,,,2,3,f002,F,120.008977802,visual,2018_Jan_12_1124,
4,1,E.png,22,250,S,,,,,0,9,9,9,,,,,,,None,,,2,3,f002,F,120.008977802,visual,2018_Jan_12_1124,
4,2,L.png,22,251,S,,,,,0,10,10,10,,,,,,,None,,,2,3,f002,F,120.008977802,visual,2018_Jan_12_1124,
4,3,H.png,22,252,S,,,,,0,11,11,11,,,,,,,None,,,2,3,f002,F,120.008977802,visual,2018_Jan_12_1124,
1,1,M.png,22,253,S,,,,,0,12,12,12,,,,,,,None,,,2,3,f002,F,120.008977802,visual,2018_Jan_12_1124,
1,2,K.png,22,254,S,,,,,0,13,13,13,,,,,,,None,,,2,3,f002,F,120.008977802,visual,2018_Jan_12_1124,
1,3,B.png,22,255,S,,,,,0,14,14,14,,,,,,,None,,,2,3,f002,F,120.008977802,visual,2018_Jan_12_1124,
3,1,D.png,22,256,S,,,,,0,15,15,15,,,,,,,None,,,2,3,f002,F,120.008977802,visual,2018_Jan_12_1124,
3,2,G.png,22,257,S,,,,,0,16,16,16,,,,,,,None,,,2,3,f002,F,120.008977802,visual,2018_Jan_12_1124,
3,3,C.png,22,258,S,,,,,0,17,17,17,,,,,,,None,,,2,3,f002,F,120.008977802,visual,2018_Jan_12_1124,
2,1,A.png,21,259,S,,,,,0,18,18,18,,,,,,,None,,,2,3,f002,F,120.008977802,visual,2018_Jan_12_1124,
2,2,J.png,21,260,S,,,,,0,19,19,19,,,,,,,None,,,2,3,f002,F,120.008977802,visual,2018_Jan_12_1124,
2,3,F.png,21,261,S,,,,,0,20,20,20,,,,,,,3,0.0753125972115,,2,3,f002,F,120.008977802,visual,2018_Jan_12_1124,
4,1,E.png,23,262,S,,,,,0,21,21,21,,,,,,,None,,,2,3,f002,F,120.008977802,visual,2018_Jan_12_1124,
4,2,L.png,23,263,S,,,,,0,22,22,22,,,,,,,None,,,2,3,f002,F,120.008977802,visual,2018_Jan_12_1124,
4,3,H.png,23,264,S,,,,,0,23,23,23,,,,,,,None,,,2,3,f002,F,120.008977802,visual,2018_Jan_12_1124,
0,0,blank.png,0,0,B,,,,,,,,,0,0,0,0,,,,,None,2,3,f002,F,120.008977802,visual,2018_Jan_12_1124,
0,0,blank.png,0,0,B,,,,,,,,,0,1,1,1,,,,,None,2,3,f002,F,120.008977802,visual,2018_Jan_12_1124,
0,0,blank.png,0,0,B,,,,,,,,,0,2,2,2,,,,,None,2,3,f002,F,120.008977802,visual,2018_Jan_12_1124,
0,0,blank.png,0,0,B,,,,,,,,,0,3,3,3,,,,,None,2,3,f002,F,120.008977802,visual,2018_Jan_12_1124,
0,0,blank.png,0,0,B,,,,,,,,,0,4,4,4,,,,,None,2,3,f002,F,120.008977802,visual,2018_Jan_12_1124,
0,0,blank.png,0,0,B,,,,,,,,,0,5,5,5,,,,,None,2,3,f002,F,120.008977802,visual,2018_Jan_12_1124,
0,0,blank.png,0,0,B,,,,,,,,,0,6,6,6,,,,,None,2,3,f002,F,120.008977802,visual,2018_Jan_12_1124,
0,0,blank.png,0,0,B,,,,,,,,,0,7,7,7,,,,,None,2,3,f002,F,120.008977802,visual,2018_Jan_12_1124,
0,0,blank.png,0,0,B,,,,,,,,,0,8,8,8,,,,,None,2,3,f002,F,120.008977802,visual,2018_Jan_12_1124,
0,0,blank.png,0,0,B,,,,,,,,,0,9,9,9,,,,,None,2,3,f002,F,120.008977802,visual,2018_Jan_12_1124,
0,0,blank.png,0,0,B,,,,,,,,,0,10,10,10,,,,,None,2,3,f002,F,120.008977802,visual,2018_Jan_12_1124,
0,0,blank.png,0,0,B,,,,,,,,,0,11,11,11,,,,,None,2,3,f002,F,120.008977802,visual,2018_Jan_12_1124,
2,1,A.png,22,265,S,,,,,0,0,0,0,,,,,,,None,,,2,3,f002,F,120.008977802,visual,2018_Jan_12_1124,
2,2,J.png,22,266,S,,,,,0,1,1,1,,,,,,,None,,,2,3,f002,F,120.008977802,visual,2018_Jan_12_1124,
2,3,F.png,22,267,S,,,,,0,2,2,2,,,,,,,3,0.108640933875,,2,3,f002,F,120.008977802,visual,2018_Jan_12_1124,
3,1,D.png,23,268,S,,,,,0,3,3,3,,,,,,,None,,,2,3,f002,F,120.008977802,visual,2018_Jan_12_1124,
3,2,G.png,23,269,S,,,,,0,4,4,4,,,,,,,None,,,2,3,f002,F,120.008977802,visual,2018_Jan_12_1124,
3,3,C.png,23,270,S,,,,,0,5,5,5,,,,,,,None,,,2,3,f002,F,120.008977802,visual,2018_Jan_12_1124,
1,1,M.png,23,271,S,,,,,0,6,6,6,,,,,,,None,,,2,3,f002,F,120.008977802,visual,2018_Jan_12_1124,
1,2,K.png,23,272,S,,,,,0,7,7,7,,,,,,,None,,,2,3,f002,F,120.008977802,visual,2018_Jan_12_1124,
1,3,B.png,23,273,S,,,,,0,8,8,8,,,,,,,None,,,2,3,f002,F,120.008977802,visual,2018_Jan_12_1124,
2,1,A.png,23,274,S,,,,,0,9,9,9,,,,,,,None,,,2,3,f002,F,120.008977802,visual,2018_Jan_12_1124,
2,2,J.png,23,275,S,,,,,0,10,10,10,,,,,,,3,0.96715379646,,2,3,f002,F,120.008977802,visual,2018_Jan_12_1124,
2,3,F.png,23,276,S,,,,,0,11,11,11,,,,,,,None,,,2,3,f002,F,120.008977802,visual,2018_Jan_12_1124,
3,1,D.png,24,277,S,,,,,0,12,12,12,,,,,,,None,,,2,3,f002,F,120.008977802,visual,2018_Jan_12_1124,
3,2,G.png,24,278,S,,,,,0,13,13,13,,,,,,,None,,,2,3,f002,F,120.008977802,visual,2018_Jan_12_1124,
3,3,C.png,24,279,S,,,,,0,14,14,14,,,,,,,None,,,2,3,f002,F,120.008977802,visual,2018_Jan_12_1124,
4,1,E.png,24,280,S,,,,,0,15,15,15,,,,,,,None,,,2,3,f002,F,120.008977802,visual,2018_Jan_12_1124,
4,2,L.png,24,281,S,,,,,0,16,16,16,,,,,,,None,,,2,3,f002,F,120.008977802,visual,2018_Jan_12_1124,
4,3,H.png,24,282,S,,,,,0,17,17,17,,,,,,,None,,,2,3,f002,F,120.008977802,visual,2018_Jan_12_1124,
1,1,M.png,24,283,S,,,,,0,18,18,18,,,,,,,None,,,2,3,f002,F,120.008977802,visual,2018_Jan_12_1124,
1,2,K.png,24,284,S,,,,,0,19,19,19,,,,,,,None,,,2,3,f002,F,120.008977802,visual,2018_Jan_12_1124,
1,3,B.png,24,285,S,,,,,0,20,20,20,,,,,,,None,,,2,3,f002,F,120.008977802,visual,2018_Jan_12_1124,
2,1,A.png,24,286,S,,,,,0,21,21,21,,,,,,,None,,,2,3,f002,F,120.008977802,visual,2018_Jan_12_1124,
2,2,J.png,24,287,S,,,,,0,22,22,22,,,,,,,None,,,2,3,f002,F,120.008977802,visual,2018_Jan_12_1124,
2,3,F.png,24,288,S,,,,,0,23,23,23,,,,,,,3,0.0169252883643,,2,3,f002,F,120.008977802,visual,2018_Jan_12_1124,
0,0,blank.png,0,0,B,,,,,,,,,0,0,0,0,,,,,None,2,3,f002,F,120.008977802,visual,2018_Jan_12_1124,
0,0,blank.png,0,0,B,,,,,,,,,0,1,1,1,,,,,None,2,3,f002,F,120.008977802,visual,2018_Jan_12_1124,
0,0,blank.png,0,0,B,,,,,,,,,0,2,2,2,,,,,None,2,3,f002,F,120.008977802,visual,2018_Jan_12_1124,
0,0,blank.png,0,0,B,,,,,,,,,0,3,3,3,,,,,None,2,3,f002,F,120.008977802,visual,2018_Jan_12_1124,
0,0,blank.png,0,0,B,,,,,,,,,0,4,4,4,,,,,None,2,3,f002,F,120.008977802,visual,2018_Jan_12_1124,
0,0,blank.png,0,0,B,,,,,,,,,0,5,5,5,,,,,None,2,3,f002,F,120.008977802,visual,2018_Jan_12_1124,
0,0,blank.png,0,0,B,,,,,,,,,0,6,6,6,,,,,None,2,3,f002,F,120.008977802,visual,2018_Jan_12_1124,
0,0,blank.png,0,0,B,,,,,,,,,0,7,7,7,,,,,None,2,3,f002,F,120.008977802,visual,2018_Jan_12_1124,
0,0,blank.png,0,0,B,,,,,,,,,0,8,8,8,,,,,None,2,3,f002,F,120.008977802,visual,2018_Jan_12_1124,
0,0,blank.png,0,0,B,,,,,,,,,0,9,9,9,,,,,None,2,3,f002,F,120.008977802,visual,2018_Jan_12_1124,
0,0,blank.png,0,0,B,,,,,,,,,0,10,10,10,,,,,None,2,3,f002,F,120.008977802,visual,2018_Jan_12_1124,
0,0,blank.png,0,0,B,,,,,,,,,0,11,11,11,,,,,None,2,3,f002,F,120.008977802,visual,2018_Jan_12_1124,
1,1,M.png,25,289,S,,,,,0,0,0,0,,,,,,,None,,,2,3,f002,F,120.008977802,visual,2018_Jan_12_1124,
1,2,K.png,25,290,S,,,,,0,1,1,1,,,,,,,None,,,2,3,f002,F,120.008977802,visual,2018_Jan_12_1124,
1,3,B.png,25,291,S,,,,,0,2,2,2,,,,,,,None,,,2,3,f002,F,120.008977802,visual,2018_Jan_12_1124,
2,1,A.png,25,292,S,,,,,0,3,3,3,,,,,,,None,,,2,3,f002,F,120.008977802,visual,2018_Jan_12_1124,
2,2,J.png,25,293,S,,,,,0,4,4,4,,,,,,,None,,,2,3,f002,F,120.008977802,visual,2018_Jan_12_1124,
2,3,F.png,25,294,S,,,,,0,5,5,5,,,,,,,3,0.0919249965809,,2,3,f002,F,120.008977802,visual,2018_Jan_12_1124,
3,1,D.png,25,295,S,,,,,0,6,6,6,,,,,,,None,,,2,3,f002,F,120.008977802,visual,2018_Jan_12_1124,
3,2,G.png,25,296,S,,,,,0,7,7,7,,,,,,,None,,,2,3,f002,F,120.008977802,visual,2018_Jan_12_1124,
3,3,C.png,25,297,S,,,,,0,8,8,8,,,,,,,None,,,2,3,f002,F,120.008977802,visual,2018_Jan_12_1124,
1,1,M.png,26,298,S,,,,,0,9,9,9,,,,,,,None,,,2,3,f002,F,120.008977802,visual,2018_Jan_12_1124,
1,2,K.png,26,299,S,,,,,0,10,10,10,,,,,,,None,,,2,3,f002,F,120.008977802,visual,2018_Jan_12_1124,
1,3,B.png,26,300,S,,,,,0,11,11,11,,,,,,,None,,,2,3,f002,F,120.008977802,visual,2018_Jan_12_1124,
4,1,E.png,25,301,S,,,,,0,12,12,12,,,,,,,None,,,2,3,f002,F,120.008977802,visual,2018_Jan_12_1124,
4,2,L.png,25,302,S,,,,,0,13,13,13,,,,,,,None,,,2,3,f002,F,120.008977802,visual,2018_Jan_12_1124,
4,3,H.png,25,303,S,,,,,0,14,14,14,,,,,,,None,,,2,3,f002,F,120.008977802,visual,2018_Jan_12_1124,
2,1,A.png,26,304,S,,,,,0,15,15,15,,,,,,,None,,,2,3,f002,F,120.008977802,visual,2018_Jan_12_1124,
2,2,J.png,26,305,S,,,,,0,16,16,16,,,,,,,3,0.967173423152,,2,3,f002,F,120.008977802,visual,2018_Jan_12_1124,
2,3,F.png,26,306,S,,,,,0,17,17,17,,,,,,,None,,,2,3,f002,F,120.008977802,visual,2018_Jan_12_1124,
3,1,D.png,26,307,S,,,,,0,18,18,18,,,,,,,None,,,2,3,f002,F,120.008977802,visual,2018_Jan_12_1124,
3,2,G.png,26,308,S,,,,,0,19,19,19,,,,,,,None,,,2,3,f002,F,120.008977802,visual,2018_Jan_12_1124,
3,3,C.png,26,309,S,,,,,0,20,20,20,,,,,,,None,,,2,3,f002,F,120.008977802,visual,2018_Jan_12_1124,
1,1,M.png,27,310,S,,,,,0,21,21,21,,,,,,,None,,,2,3,f002,F,120.008977802,visual,2018_Jan_12_1124,
1,2,K.png,27,311,S,,,,,0,22,22,22,,,,,,,None,,,2,3,f002,F,120.008977802,visual,2018_Jan_12_1124,
1,3,B.png,27,312,S,,,,,0,23,23,23,,,,,,,None,,,2,3,f002,F,120.008977802,visual,2018_Jan_12_1124,
4,1,E.png,26,313,S,,,,,0,24,24,24,,,,,,,None,,,2,3,f002,F,120.008977802,visual,2018_Jan_12_1124,
4,2,L.png,26,314,S,,,,,0,25,25,25,,,,,,,None,,,2,3,f002,F,120.008977802,visual,2018_Jan_12_1124,
4,3,H.png,26,315,S,,,,,0,26,26,26,,,,,,,None,,,2,3,f002,F,120.008977802,visual,2018_Jan_12_1124,
2,1,A.png,27,316,S,,,,,0,27,27,27,,,,,,,None,,,2,3,f002,F,120.008977802,visual,2018_Jan_12_1124,
2,2,J.png,27,317,S,,,,,0,28,28,28,,,,,,,None,,,2,3,f002,F,120.008977802,visual,2018_Jan_12_1124,
2,3,F.png,27,318,S,,,,,0,29,29,29,,,,,,,3,0.0666077486239,,2,3,f002,F,120.008977802,visual,2018_Jan_12_1124,
4,1,E.png,27,319,S,,,,,0,30,30,30,,,,,,,None,,,2,3,f002,F,120.008977802,visual,2018_Jan_12_1124,
4,2,L.png,27,320,S,,,,,0,31,31,31,,,,,,,None,,,2,3,f002,F,120.008977802,visual,2018_Jan_12_1124,
4,3,H.png,27,321,S,,,,,0,32,32,32,,,,,,,None,,,2,3,f002,F,120.008977802,visual,2018_Jan_12_1124,
3,1,D.png,27,322,S,,,,,0,33,33,33,,,,,,,None,,,2,3,f002,F,120.008977802,visual,2018_Jan_12_1124,
3,2,G.png,27,323,S,,,,,0,34,34,34,,,,,,,None,,,2,3,f002,F,120.008977802,visual,2018_Jan_12_1124,
3,3,C.png,27,324,S,,,,,0,35,35,35,,,,,,,None,,,2,3,f002,F,120.008977802,visual,2018_Jan_12_1124,
1,1,M.png,28,325,S,,,,,0,36,36,36,,,,,,,None,,,2,3,f002,F,120.008977802,visual,2018_Jan_12_1124,
1,2,K.png,28,326,S,,,,,0,37,37,37,,,,,,,None,,,2,3,f002,F,120.008977802,visual,2018_Jan_12_1124,
1,3,B.png,28,327,S,,,,,0,38,38,38,,,,,,,None,,,2,3,f002,F,120.008977802,visual,2018_Jan_12_1124,
3,1,D.png,28,328,S,,,,,0,39,39,39,,,,,,,None,,,2,3,f002,F,120.008977802,visual,2018_Jan_12_1124,
3,2,G.png,28,329,S,,,,,0,40,40,40,,,,,,,None,,,2,3,f002,F,120.008977802,visual,2018_Jan_12_1124,
3,3,C.png,28,330,S,,,,,0,41,41,41,,,,,,,None,,,2,3,f002,F,120.008977802,visual,2018_Jan_12_1124,
1,1,M.png,29,331,S,,,,,0,42,42,42,,,,,,,None,,,2,3,f002,F,120.008977802,visual,2018_Jan_12_1124,
1,2,K.png,29,332,S,,,,,0,43,43,43,,,,,,,None,,,2,3,f002,F,120.008977802,visual,2018_Jan_12_1124,
1,3,B.png,29,333,S,,,,,0,44,44,44,,,,,,,None,,,2,3,f002,F,120.008977802,visual,2018_Jan_12_1124,
4,1,E.png,28,334,S,,,,,0,45,45,45,,,,,,,None,,,2,3,f002,F,120.008977802,visual,2018_Jan_12_1124,
4,2,L.png,28,335,S,,,,,0,46,46,46,,,,,,,None,,,2,3,f002,F,120.008977802,visual,2018_Jan_12_1124,
4,3,H.png,28,336,S,,,,,0,47,47,47,,,,,,,None,,,2,3,f002,F,120.008977802,visual,2018_Jan_12_1124,
0,0,blank.png,0,0,B,,,,,,,,,0,0,0,0,,,,,None,2,3,f002,F,120.008977802,visual,2018_Jan_12_1124,
0,0,blank.png,0,0,B,,,,,,,,,0,1,1,1,,,,,None,2,3,f002,F,120.008977802,visual,2018_Jan_12_1124,
0,0,blank.png,0,0,B,,,,,,,,,0,2,2,2,,,,,None,2,3,f002,F,120.008977802,visual,2018_Jan_12_1124,
0,0,blank.png,0,0,B,,,,,,,,,0,3,3,3,,,,,None,2,3,f002,F,120.008977802,visual,2018_Jan_12_1124,
0,0,blank.png,0,0,B,,,,,,,,,0,4,4,4,,,,,None,2,3,f002,F,120.008977802,visual,2018_Jan_12_1124,
0,0,blank.png,0,0,B,,,,,,,,,0,5,5,5,,,,,None,2,3,f002,F,120.008977802,visual,2018_Jan_12_1124,
0,0,blank.png,0,0,B,,,,,,,,,0,6,6,6,,,,,None,2,3,f002,F,120.008977802,visual,2018_Jan_12_1124,
0,0,blank.png,0,0,B,,,,,,,,,0,7,7,7,,,,,None,2,3,f002,F,120.008977802,visual,2018_Jan_12_1124,
0,0,blank.png,0,0,B,,,,,,,,,0,8,8,8,,,,,None,2,3,f002,F,120.008977802,visual,2018_Jan_12_1124,
0,0,blank.png,0,0,B,,,,,,,,,0,9,9,9,,,,,None,2,3,f002,F,120.008977802,visual,2018_Jan_12_1124,
0,0,blank.png,0,0,B,,,,,,,,,0,10,10,10,,,,,None,2,3,f002,F,120.008977802,visual,2018_Jan_12_1124,
0,0,blank.png,0,0,B,,,,,,,,,0,11,11,11,,,,,None,2,3,f002,F,120.008977802,visual,2018_Jan_12_1124,
0,1,Alien2.bmp,1,337,R,0,0,0,0,,,,,,,,,None,,,,,2,3,f002,F,120.008977802,visual,2018_Jan_12_1124,
0,2,Alien6.bmp,1,338,R,0,1,1,1,,,,,,,,,None,,,,,2,3,f002,F,120.008977802,visual,2018_Jan_12_1124,
0,3,Alien11.bmp,1,339,R,0,2,2,2,,,,,,,,,None,,,,,2,3,f002,F,120.008977802,visual,2018_Jan_12_1124,
0,1,Alien8.bmp,1,340,R,0,3,3,3,,,,,,,,,None,,,,,2,3,f002,F,120.008977802,visual,2018_Jan_12_1124,
0,2,Alien1.bmp,1,341,R,0,4,4,4,,,,,,,,,None,,,,,2,3,f002,F,120.008977802,visual,2018_Jan_12_1124,
0,3,Alien10.bmp,1,342,R,0,5,5,5,,,,,,,,,None,,,,,2,3,f002,F,120.008977802,visual,2018_Jan_12_1124,
0,1,Alien3.bmp,1,343,R,0,6,6,6,,,,,,,,,3,0.467078845482,,,,2,3,f002,F,120.008977802,visual,2018_Jan_12_1124,
0,2,Alien4.bmp,1,344,R,0,7,7,7,,,,,,,,,None,,,,,2,3,f002,F,120.008977802,visual,2018_Jan_12_1124,
0,3,Alien11.bmp,1,345,R,0,8,8,8,,,,,,,,,None,,,,,2,3,f002,F,120.008977802,visual,2018_Jan_12_1124,
0,1,Alien12.bmp,1,346,R,0,9,9,9,,,,,,,,,None,,,,,2,3,f002,F,120.008977802,visual,2018_Jan_12_1124,
0,2,Alien10.bmp,1,347,R,0,10,10,10,,,,,,,,,None,,,,,2,3,f002,F,120.008977802,visual,2018_Jan_12_1124,
0,3,Alien3.bmp,1,348,R,0,11,11,11,,,,,,,,,3,0.467096765526,,,,2,3,f002,F,120.008977802,visual,2018_Jan_12_1124,
0,1,Alien7.bmp,1,349,R,0,12,12,12,,,,,,,,,None,,,,,2,3,f002,F,120.008977802,visual,2018_Jan_12_1124,
0,2,Alien8.bmp,1,350,R,0,13,13,13,,,,,,,,,None,,,,,2,3,f002,F,120.008977802,visual,2018_Jan_12_1124,
0,3,Alien2.bmp,1,351,R,0,14,14,14,,,,,,,,,None,,,,,2,3,f002,F,120.008977802,visual,2018_Jan_12_1124,
0,1,Alien6.bmp,1,352,R,0,15,15,15,,,,,,,,,None,,,,,2,3,f002,F,120.008977802,visual,2018_Jan_12_1124,
0,2,Alien7.bmp,1,353,R,0,16,16,16,,,,,,,,,None,,,,,2,3,f002,F,120.008977802,visual,2018_Jan_12_1124,
0,3,Alien5.bmp,1,354,R,0,17,17,17,,,,,,,,,None,,,,,2,3,f002,F,120.008977802,visual,2018_Jan_12_1124,
0,1,Alien9.bmp,1,355,R,0,18,18,18,,,,,,,,,None,,,,,2,3,f002,F,120.008977802,visual,2018_Jan_12_1124,
0,2,Alien9.bmp,1,356,R,0,19,19,19,,,,,,,,,None,,,,,2,3,f002,F,120.008977802,visual,2018_Jan_12_1124,
0,3,Alien5.bmp,1,357,R,0,20,20,20,,,,,,,,,None,,,,,2,3,f002,F,120.008977802,visual,2018_Jan_12_1124,
0,1,Alien4.bmp,1,358,R,0,21,21,21,,,,,,,,,None,,,,,2,3,f002,F,120.008977802,visual,2018_Jan_12_1124,
0,2,Alien12.bmp,1,359,R,0,22,22,22,,,,,,,,,None,,,,,2,3,f002,F,120.008977802,visual,2018_Jan_12_1124,
0,3,Alien1.bmp,1,360,R,0,23,23,23,,,,,,,,,None,,,,,2,3,f002,F,120.008977802,visual,2018_Jan_12_1124,
0,1,Alien11.bmp,1,313,R,0,24,24,24,,,,,,,,,None,,,,,2,3,f002,F,120.008977802,visual,2018_Jan_12_1124,
0,2,Alien10.bmp,1,314,R,0,25,25,25,,,,,,,,,None,,,,,2,3,f002,F,120.008977802,visual,2018_Jan_12_1124,
0,3,Alien6.bmp,1,315,R,0,26,26,26,,,,,,,,,3,0.250394595321,,,,2,3,f002,F,120.008977802,visual,2018_Jan_12_1124,
0,1,Alien1.bmp,1,316,R,0,27,27,27,,,,,,,,,None,,,,,2,3,f002,F,120.008977802,visual,2018_Jan_12_1124,
0,2,Alien12.bmp,1,317,R,0,28,28,28,,,,,,,,,None,,,,,2,3,f002,F,120.008977802,visual,2018_Jan_12_1124,
0,3,Alien11.bmp,1,318,R,0,29,29,29,,,,,,,,,None,,,,,2,3,f002,F,120.008977802,visual,2018_Jan_12_1124,
0,1,Alien1.bmp,1,319,R,0,30,30,30,,,,,,,,,None,,,,,2,3,f002,F,120.008977802,visual,2018_Jan_12_1124,
0,2,Alien7.bmp,1,320,R,0,31,31,31,,,,,,,,,None,,,,,2,3,f002,F,120.008977802,visual,2018_Jan_12_1124,
0,3,Alien2.bmp,1,321,R,0,32,32,32,,,,,,,,,None,,,,,2,3,f002,F,120.008977802,visual,2018_Jan_12_1124,
0,1,Alien9.bmp,1,322,R,0,33,33,33,,,,,,,,,None,,,,,2,3,f002,F,120.008977802,visual,2018_Jan_12_1124,
0,2,Alien3.bmp,1,323,R,0,34,34,34,,,,,,,,,3,0.530670347158,,,,2,3,f002,F,120.008977802,visual,2018_Jan_12_1124,
0,3,Alien8.bmp,1,324,R,0,35,35,35,,,,,,,,,None,,,,,2,3,f002,F,120.008977802,visual,2018_Jan_12_1124,
0,1,Alien4.bmp,1,325,R,0,36,36,36,,,,,,,,,None,,,,,2,3,f002,F,120.008977802,visual,2018_Jan_12_1124,
0,2,Alien8.bmp,1,326,R,0,37,37,37,,,,,,,,,None,,,,,2,3,f002,F,120.008977802,visual,2018_Jan_12_1124,
0,3,Alien7.bmp,1,327,R,0,38,38,38,,,,,,,,,None,,,,,2,3,f002,F,120.008977802,visual,2018_Jan_12_1124,
0,1,Alien12.bmp,1,328,R,0,39,39,39,,,,,,,,,None,,,,,2,3,f002,F,120.008977802,visual,2018_Jan_12_1124,
0,2,Alien5.bmp,1,329,R,0,40,40,40,,,,,,,,,None,,,,,2,3,f002,F,120.008977802,visual,2018_Jan_12_1124,
0,3,Alien3.bmp,1,330,R,0,41,41,41,,,,,,,,,3,0.491962884553,,,,2,3,f002,F,120.008977802,visual,2018_Jan_12_1124,
0,1,Alien2.bmp,1,331,R,0,42,42,42,,,,,,,,,None,,,,,2,3,f002,F,120.008977802,visual,2018_Jan_12_1124,
0,2,Alien2.bmp,1,332,R,0,43,43,43,,,,,,,,,None,,,,,2,3,f002,F,120.008977802,visual,2018_Jan_12_1124,
0,3,Alien3.bmp,1,333,R,0,44,44,44,,,,,,,,,3,0.541943158489,,,,2,3,f002,F,120.008977802,visual,2018_Jan_12_1124,
0,1,Alien9.bmp,1,334,R,0,45,45,45,,,,,,,,,None,,,,,2,3,f002,F,120.008977802,visual,2018_Jan_12_1124,
0,2,Alien10.bmp,1,335,R,0,46,46,46,,,,,,,,,None,,,,,2,3,f002,F,120.008977802,visual,2018_Jan_12_1124,
0,3,Alien1.bmp,1,336,R,0,47,47,47,,,,,,,,,None,,,,,2,3,f002,F,120.008977802,visual,2018_Jan_12_1124,
0,0,blank.png,0,0,B,0,48,48,48,,,,,,,,,None,,,,,2,3,f002,F,120.008977802,visual,2018_Jan_12_1124,
0,0,blank.png,0,0,B,0,49,49,49,,,,,,,,,None,,,,,2,3,f002,F,120.008977802,visual,2018_Jan_12_1124,
0,0,blank.png,0,0,B,0,50,50,50,,,,,,,,,None,,,,,2,3,f002,F,120.008977802,visual,2018_Jan_12_1124,
0,0,blank.png,0,0,B,0,51,51,51,,,,,,,,,None,,,,,2,3,f002,F,120.008977802,visual,2018_Jan_12_1124,
0,0,blank.png,0,0,B,0,52,52,52,,,,,,,,,None,,,,,2,3,f002,F,120.008977802,visual,2018_Jan_12_1124,
0,0,blank.png,0,0,B,0,53,53,53,,,,,,,,,None,,,,,2,3,f002,F,120.008977802,visual,2018_Jan_12_1124,
0,0,blank.png,0,0,B,0,54,54,54,,,,,,,,,None,,,,,2,3,f002,F,120.008977802,visual,2018_Jan_12_1124,
0,0,blank.png,0,0,B,0,55,55,55,,,,,,,,,None,,,,,2,3,f002,F,120.008977802,visual,2018_Jan_12_1124,
0,0,blank.png,0,0,B,0,56,56,56,,,,,,,,,None,,,,,2,3,f002,F,120.008977802,visual,2018_Jan_12_1124,
0,0,blank.png,0,0,B,0,57,57,57,,,,,,,,,None,,,,,2,3,f002,F,120.008977802,visual,2018_Jan_12_1124,
0,0,blank.png,0,0,B,0,58,58,58,,,,,,,,,None,,,,,2,3,f002,F,120.008977802,visual,2018_Jan_12_1124,
0,0,blank.png,0,0,B,0,59,59,59,,,,,,,,,None,,,,,2,3,f002,F,120.008977802,visual,2018_Jan_12_1124,
2,1,A.png,28,337,S,,,,,0,0,0,0,,,,,,,None,,,2,3,f002,F,120.008977802,visual,2018_Jan_12_1124,
2,2,J.png,28,338,S,,,,,0,1,1,1,,,,,,,None,,,2,3,f002,F,120.008977802,visual,2018_Jan_12_1124,
2,3,F.png,28,339,S,,,,,0,2,2,2,,,,,,,3,0.0586370509118,,2,3,f002,F,120.008977802,visual,2018_Jan_12_1124,
3,1,D.png,29,340,S,,,,,0,3,3,3,,,,,,,None,,,2,3,f002,F,120.008977802,visual,2018_Jan_12_1124,
3,2,G.png,29,341,S,,,,,0,4,4,4,,,,,,,None,,,2,3,f002,F,120.008977802,visual,2018_Jan_12_1124,
3,3,C.png,29,342,S,,,,,0,5,5,5,,,,,,,None,,,2,3,f002,F,120.008977802,visual,2018_Jan_12_1124,
1,1,M.png,30,343,S,,,,,0,6,6,6,,,,,,,None,,,2,3,f002,F,120.008977802,visual,2018_Jan_12_1124,
1,2,K.png,30,344,S,,,,,0,7,7,7,,,,,,,None,,,2,3,f002,F,120.008977802,visual,2018_Jan_12_1124,
1,3,B.png,30,345,S,,,,,0,8,8,8,,,,,,,None,,,2,3,f002,F,120.008977802,visual,2018_Jan_12_1124,
4,1,E.png,29,346,S,,,,,0,9,9,9,,,,,,,None,,,2,3,f002,F,120.008977802,visual,2018_Jan_12_1124,
4,2,L.png,29,347,S,,,,,0,10,10,10,,,,,,,None,,,2,3,f002,F,120.008977802,visual,2018_Jan_12_1124,
4,3,H.png,29,348,S,,,,,0,11,11,11,,,,,,,None,,,2,3,f002,F,120.008977802,visual,2018_Jan_12_1124,
2,1,A.png,29,349,S,,,,,0,12,12,12,,,,,,,None,,,2,3,f002,F,120.008977802,visual,2018_Jan_12_1124,
2,2,J.png,29,350,S,,,,,0,13,13,13,,,,,,,None,,,2,3,f002,F,120.008977802,visual,2018_Jan_12_1124,
2,3,F.png,29,351,S,,,,,0,14,14,14,,,,,,,3,0.0503750825301,,2,3,f002,F,120.008977802,visual,2018_Jan_12_1124,
4,1,E.png,30,352,S,,,,,0,15,15,15,,,,,,,None,,,2,3,f002,F,120.008977802,visual,2018_Jan_12_1124,
4,2,L.png,30,353,S,,,,,0,16,16,16,,,,,,,None,,,2,3,f002,F,120.008977802,visual,2018_Jan_12_1124,
4,3,H.png,30,354,S,,,,,0,17,17,17,,,,,,,None,,,2,3,f002,F,120.008977802,visual,2018_Jan_12_1124,
1,1,M.png,31,355,S,,,,,0,18,18,18,,,,,,,None,,,2,3,f002,F,120.008977802,visual,2018_Jan_12_1124,
1,2,K.png,31,356,S,,,,,0,19,19,19,,,,,,,None,,,2,3,f002,F,120.008977802,visual,2018_Jan_12_1124,
1,3,B.png,31,357,S,,,,,0,20,20,20,,,,,,,None,,,2,3,f002,F,120.008977802,visual,2018_Jan_12_1124,
3,1,D.png,30,358,S,,,,,0,21,21,21,,,,,,,None,,,2,3,f002,F,120.008977802,visual,2018_Jan_12_1124,
3,2,G.png,30,359,S,,,,,0,22,22,22,,,,,,,None,,,2,3,f002,F,120.008977802,visual,2018_Jan_12_1124,
3,3,C.png,30,360,S,,,,,0,23,23,23,,,,,,,None,,,2,3,f002,F,120.008977802,visual,2018_Jan_12_1124,
2,1,A.png,30,361,S,,,,,0,24,24,24,,,,,,,None,,,2,3,f002,F,120.008977802,visual,2018_Jan_12_1124,
2,2,J.png,30,362,S,,,,,0,25,25,25,,,,,,,None,,,2,3,f002,F,120.008977802,visual,2018_Jan_12_1124,
2,3,F.png,30,363,S,,,,,0,26,26,26,,,,,,,3,0.0920035033487,,2,3,f002,F,120.008977802,visual,2018_Jan_12_1124,
1,1,M.png,32,364,S,,,,,0,27,27,27,,,,,,,None,,,2,3,f002,F,120.008977802,visual,2018_Jan_12_1124,
1,2,K.png,32,365,S,,,,,0,28,28,28,,,,,,,None,,,2,3,f002,F,120.008977802,visual,2018_Jan_12_1124,
1,3,B.png,32,366,S,,,,,0,29,29,29,,,,,,,None,,,2,3,f002,F,120.008977802,visual,2018_Jan_12_1124,
4,1,E.png,31,367,S,,,,,0,30,30,30,,,,,,,None,,,2,3,f002,F,120.008977802,visual,2018_Jan_12_1124,
4,2,L.png,31,368,S,,,,,0,31,31,31,,,,,,,None,,,2,3,f002,F,120.008977802,visual,2018_Jan_12_1124,
4,3,H.png,31,369,S,,,,,0,32,32,32,,,,,,,None,,,2,3,f002,F,120.008977802,visual,2018_Jan_12_1124,
3,1,D.png,31,370,S,,,,,0,33,33,33,,,,,,,None,,,2,3,f002,F,120.008977802,visual,2018_Jan_12_1124,
3,2,G.png,31,371,S,,,,,0,34,34,34,,,,,,,None,,,2,3,f002,F,120.008977802,visual,2018_Jan_12_1124,
3,3,C.png,31,372,S,,,,,0,35,35,35,,,,,,,None,,,2,3,f002,F,120.008977802,visual,2018_Jan_12_1124,
2,1,A.png,31,373,S,,,,,0,36,36,36,,,,,,,None,,,2,3,f002,F,120.008977802,visual,2018_Jan_12_1124,
2,2,J.png,31,374,S,,,,,0,37,37,37,,,,,,,None,,,2,3,f002,F,120.008977802,visual,2018_Jan_12_1124,
2,3,F.png,31,375,S,,,,,0,38,38,38,,,,,,,3,0.0170783190988,,2,3,f002,F,120.008977802,visual,2018_Jan_12_1124,
4,1,E.png,32,376,S,,,,,0,39,39,39,,,,,,,None,,,2,3,f002,F,120.008977802,visual,2018_Jan_12_1124,
4,2,L.png,32,377,S,,,,,0,40,40,40,,,,,,,None,,,2,3,f002,F,120.008977802,visual,2018_Jan_12_1124,
4,3,H.png,32,378,S,,,,,0,41,41,41,,,,,,,None,,,2,3,f002,F,120.008977802,visual,2018_Jan_12_1124,
3,1,D.png,32,382,S,,,,,0,42,42,42,,,,,,,None,,,2,3,f002,F,120.008977802,visual,2018_Jan_12_1124,
3,2,G.png,32,383,S,,,,,0,43,43,43,,,,,,,None,,,2,3,f002,F,120.008977802,visual,2018_Jan_12_1124,
3,3,C.png,32,384,S,,,,,0,44,44,44,,,,,,,None,,,2,3,f002,F,120.008977802,visual,2018_Jan_12_1124,
2,1,A.png,32,388,S,,,,,0,45,45,45,,,,,,,None,,,2,3,f002,F,120.008977802,visual,2018_Jan_12_1124,
2,2,J.png,32,389,S,,,,,0,46,46,46,,,,,,,None,,,2,3,f002,F,120.008977802,visual,2018_Jan_12_1124,
2,3,F.png,32,390,S,,,,,0,47,47,47,,,,,,,3,0.017199207563,,2,3,f002,F,120.008977802,visual,2018_Jan_12_1124,
0,0,blank.png,0,0,B,,,,,,,,,0,0,0,0,,,,,None,2,3,f002,F,120.008977802,visual,2018_Jan_12_1124,
0,0,blank.png,0,0,B,,,,,,,,,0,1,1,1,,,,,None,2,3,f002,F,120.008977802,visual,2018_Jan_12_1124,
0,0,blank.png,0,0,B,,,,,,,,,0,2,2,2,,,,,None,2,3,f002,F,120.008977802,visual,2018_Jan_12_1124,
0,0,blank.png,0,0,B,,,,,,,,,0,3,3,3,,,,,None,2,3,f002,F,120.008977802,visual,2018_Jan_12_1124,
0,0,blank.png,0,0,B,,,,,,,,,0,4,4,4,,,,,None,2,3,f002,F,120.008977802,visual,2018_Jan_12_1124,
0,0,blank.png,0,0,B,,,,,,,,,0,5,5,5,,,,,None,2,3,f002,F,120.008977802,visual,2018_Jan_12_1124,
0,0,blank.png,0,0,B,,,,,,,,,0,6,6,6,,,,,None,2,3,f002,F,120.008977802,visual,2018_Jan_12_1124,
0,0,blank.png,0,0,B,,,,,,,,,0,7,7,7,,,,,None,2,3,f002,F,120.008977802,visual,2018_Jan_12_1124,
0,0,blank.png,0,0,B,,,,,,,,,0,8,8,8,,,,,None,2,3,f002,F,120.008977802,visual,2018_Jan_12_1124,
0,0,blank.png,0,0,B,,,,,,,,,0,9,9,9,,,,,None,2,3,f002,F,120.008977802,visual,2018_Jan_12_1124,
0,0,blank.png,0,0,B,,,,,,,,,0,10,10,10,,,,,None,2,3,f002,F,120.008977802,visual,2018_Jan_12_1124,
0,0,blank.png,0,0,B,,,,,,,,,0,11,11,11,,,,,None,2,3,f002,F,120.008977802,visual,2018_Jan_12_1124,
2,1,A.png,30,361,S,,,,,0,0,0,0,,,,,,,None,,,2,3,f002,F,120.008977802,visual,2018_Jan_12_1124,
2,2,J.png,30,362,S,,,,,0,1,1,1,,,,,,,None,,,2,3,f002,F,120.008977802,visual,2018_Jan_12_1124,
2,3,F.png,30,363,S,,,,,0,2,2,2,,,,,,,3,0.100390342996,,2,3,f002,F,120.008977802,visual,2018_Jan_12_1124,
1,1,M.png,32,364,S,,,,,0,3,3,3,,,,,,,None,,,2,3,f002,F,120.008977802,visual,2018_Jan_12_1124,
1,2,K.png,32,365,S,,,,,0,4,4,4,,,,,,,None,,,2,3,f002,F,120.008977802,visual,2018_Jan_12_1124,
1,3,B.png,32,366,S,,,,,0,5,5,5,,,,,,,None,,,2,3,f002,F,120.008977802,visual,2018_Jan_12_1124,
4,1,E.png,31,367,S,,,,,0,6,6,6,,,,,,,None,,,2,3,f002,F,120.008977802,visual,2018_Jan_12_1124,
4,2,L.png,31,368,S,,,,,0,7,7,7,,,,,,,None,,,2,3,f002,F,120.008977802,visual,2018_Jan_12_1124,
4,3,H.png,31,369,S,,,,,0,8,8,8,,,,,,,None,,,2,3,f002,F,120.008977802,visual,2018_Jan_12_1124,
3,1,D.png,31,370,S,,,,,0,9,9,9,,,,,,,None,,,2,3,f002,F,120.008977802,visual,2018_Jan_12_1124,
3,2,G.png,31,371,S,,,,,0,10,10,10,,,,,,,None,,,2,3,f002,F,120.008977802,visual,2018_Jan_12_1124,
3,3,C.png,31,372,S,,,,,0,11,11,11,,,,,,,None,,,2,3,f002,F,120.008977802,visual,2018_Jan_12_1124,
2,1,A.png,31,373,S,,,,,0,12,12,12,,,,,,,None,,,2,3,f002,F,120.008977802,visual,2018_Jan_12_1124,
2,2,J.png,31,374,S,,,,,0,13,13,13,,,,,,,None,,,2,3,f002,F,120.008977802,visual,2018_Jan_12_1124,
2,3,F.png,31,375,S,,,,,0,14,14,14,,,,,,,3,0.208707009908,,2,3,f002,F,120.008977802,visual,2018_Jan_12_1124,
4,1,E.png,32,376,S,,,,,0,15,15,15,,,,,,,None,,,2,3,f002,F,120.008977802,visual,2018_Jan_12_1124,
4,2,L.png,32,377,S,,,,,0,16,16,16,,,,,,,None,,,2,3,f002,F,120.008977802,visual,2018_Jan_12_1124,
4,3,H.png,32,378,S,,,,,0,17,17,17,,,,,,,None,,,2,3,f002,F,120.008977802,visual,2018_Jan_12_1124,
3,1,D.png,32,382,S,,,,,0,18,18,18,,,,,,,None,,,2,3,f002,F,120.008977802,visual,2018_Jan_12_1124,
3,2,G.png,32,383,S,,,,,0,19,19,19,,,,,,,None,,,2,3,f002,F,120.008977802,visual,2018_Jan_12_1124,
3,3,C.png,32,384,S,,,,,0,20,20,20,,,,,,,None,,,2,3,f002,F,120.008977802,visual,2018_Jan_12_1124,
2,1,A.png,32,388,S,,,,,0,21,21,21,,,,,,,None,,,2,3,f002,F,120.008977802,visual,2018_Jan_12_1124,
2,2,J.png,32,389,S,,,,,0,22,22,22,,,,,,,None,,,2,3,f002,F,120.008977802,visual,2018_Jan_12_1124,
2,3,F.png,32,390,S,,,,,0,23,23,23,,,,,,,None,,,2,3,f002,F,120.008977802,visual,2018_Jan_12_1124,
0,1,Alien10.bmp,1,361,R,0,0,0,0,,,,,,,,,None,,,,,2,3,f002,F,120.008977802,visual,2018_Jan_12_1124,
0,2,Alien12.bmp,1,362,R,0,1,1,1,,,,,,,,,None,,,,,2,3,f002,F,120.008977802,visual,2018_Jan_12_1124,
0,3,Alien2.bmp,1,363,R,0,2,2,2,,,,,,,,,None,,,,,2,3,f002,F,120.008977802,visual,2018_Jan_12_1124,
0,1,Alien2.bmp,1,364,R,0,3,3,3,,,,,,,,,None,,,,,2,3,f002,F,120.008977802,visual,2018_Jan_12_1124,
0,2,Alien3.bmp,1,365,R,0,4,4,4,,,,,,,,,3,0.491986209061,,,,2,3,f002,F,120.008977802,visual,2018_Jan_12_1124,
0,3,Alien1.bmp,1,366,R,0,5,5,5,,,,,,,,,None,,,,,2,3,f002,F,120.008977802,visual,2018_Jan_12_1124,
0,1,Alien3.bmp,1,367,R,0,6,6,6,,,,,,,,,3,0.575272063725,,,,2,3,f002,F,120.008977802,visual,2018_Jan_12_1124,
0,2,Alien6.bmp,1,368,R,0,7,7,7,,,,,,,,,None,,,,,2,3,f002,F,120.008977802,visual,2018_Jan_12_1124,
0,3,Alien11.bmp,1,369,R,0,8,8,8,,,,,,,,,None,,,,,2,3,f002,F,120.008977802,visual,2018_Jan_12_1124,
0,1,Alien10.bmp,1,370,R,0,9,9,9,,,,,,,,,None,,,,,2,3,f002,F,120.008977802,visual,2018_Jan_12_1124,
0,2,Alien4.bmp,1,371,R,0,10,10,10,,,,,,,,,None,,,,,2,3,f002,F,120.008977802,visual,2018_Jan_12_1124,
0,3,Alien9.bmp,1,372,R,0,11,11,11,,,,,,,,,None,,,,,2,3,f002,F,120.008977802,visual,2018_Jan_12_1124,
0,1,Alien7.bmp,1,373,R,0,12,12,12,,,,,,,,,None,,,,,2,3,f002,F,120.008977802,visual,2018_Jan_12_1124,
0,2,Alien1.bmp,1,374,R,0,13,13,13,,,,,,,,,None,,,,,2,3,f002,F,120.008977802,visual,2018_Jan_12_1124,
0,3,Alien12.bmp,1,375,R,0,14,14,14,,,,,,,,,None,,,,,2,3,f002,F,120.008977802,visual,2018_Jan_12_1124,
0,1,Alien2.bmp,1,376,R,0,15,15,15,,,,,,,,,None,,,,,2,3,f002,F,120.008977802,visual,2018_Jan_12_1124,
0,2,Alien1.bmp,1,377,R,0,16,16,16,,,,,,,,,None,,,,,2,3,f002,F,120.008977802,visual,2018_Jan_12_1124,
0,3,Alien4.bmp,1,378,R,0,17,17,17,,,,,,,,,None,,,,,2,3,f002,F,120.008977802,visual,2018_Jan_12_1124,
0,1,Alien5.bmp,1,379,R,0,18,18,18,,,,,,,,,None,,,,,2,3,f002,F,120.008977802,visual,2018_Jan_12_1124,
0,2,Alien11.bmp,1,380,R,0,19,19,19,,,,,,,,,None,,,,,2,3,f002,F,120.008977802,visual,2018_Jan_12_1124,
0,3,Alien3.bmp,1,381,R,0,20,20,20,,,,,,,,,3,0.52545278566,,,,2,3,f002,F,120.008977802,visual,2018_Jan_12_1124,
0,1,Alien6.bmp,1,382,R,0,21,21,21,,,,,,,,,None,,,,,2,3,f002,F,120.008977802,visual,2018_Jan_12_1124,
0,2,Alien8.bmp,1,383,R,0,22,22,22,,,,,,,,,None,,,,,2,3,f002,F,120.008977802,visual,2018_Jan_12_1124,
0,3,Alien5.bmp,1,384,R,0,23,23,23,,,,,,,,,None,,,,,2,3,f002,F,120.008977802,visual,2018_Jan_12_1124,
