"","image","trialnum","condition","l_block_trial_key_resp.keys","l_block_trial_key_resp.rt","v_block_trial_key_resp.keys","v_block_trial_key_resp.rt","vtarget","Run","PartID","ltarget","expName"
"1","Alien4.bmp",1,"S","",NA,"None",NA,6,4,"f001","H","visual"
"2","Alien5.bmp",2,"S","",NA,"None",NA,6,4,"f001","H","visual"
"3","Alien6.bmp",3,"S","",NA,"None",NA,6,4,"f001","H","visual"
"4","Alien1.bmp",4,"S","",NA,"None",NA,6,4,"f001","H","visual"
"5","Alien2.bmp",5,"S","",NA,"None",NA,6,4,"f001","H","visual"
"6","Alien3.bmp",6,"S","",NA,"None",NA,6,4,"f001","H","visual"
"7","Alien10.bmp",7,"S","",NA,"None",NA,6,4,"f001","H","visual"
"8","Alien11.bmp",8,"S","",NA,"None",NA,6,4,"f001","H","visual"
"9","Alien12.bmp",9,"S","",NA,"None",NA,6,4,"f001","H","visual"
"10","Alien4.bmp",10,"S","",NA,"None",NA,6,4,"f001","H","visual"
"11","Alien5.bmp",11,"S","",NA,"None",NA,6,4,"f001","H","visual"
"12","Alien6.bmp",12,"S","",NA,"None",NA,6,4,"f001","H","visual"
"13","Alien7.bmp",13,"S","",NA,"None",NA,6,4,"f001","H","visual"
"14","Alien8.bmp",14,"S","",NA,"None",NA,6,4,"f001","H","visual"
"15","Alien9.bmp",15,"S","",NA,"None",NA,6,4,"f001","H","visual"
"16","Alien1.bmp",16,"S","",NA,"None",NA,6,4,"f001","H","visual"
"17","Alien2.bmp",17,"S","",NA,"None",NA,6,4,"f001","H","visual"
"18","Alien3.bmp",18,"S","",NA,"None",NA,6,4,"f001","H","visual"
"19","Alien10.bmp",19,"S","",NA,"None",NA,6,4,"f001","H","visual"
"20","Alien11.bmp",20,"S","",NA,"None",NA,6,4,"f001","H","visual"
"21","Alien12.bmp",21,"S","",NA,"None",NA,6,4,"f001","H","visual"
"22","Alien4.bmp",22,"S","",NA,"None",NA,6,4,"f001","H","visual"
"23","Alien5.bmp",23,"S","",NA,"None",NA,6,4,"f001","H","visual"
"24","Alien6.bmp",24,"S","",NA,"None",NA,6,4,"f001","H","visual"
"25","blank.png",0,"B","",NA,"None",NA,6,4,"f001","H","visual"
"26","blank.png",0,"B","",NA,"None",NA,6,4,"f001","H","visual"
"27","blank.png",0,"B","",NA,"None",NA,6,4,"f001","H","visual"
"28","blank.png",0,"B","",NA,"None",NA,6,4,"f001","H","visual"
"29","blank.png",0,"B","",NA,"None",NA,6,4,"f001","H","visual"
"30","blank.png",0,"B","",NA,"None",NA,6,4,"f001","H","visual"
"31","blank.png",0,"B","",NA,"None",NA,6,4,"f001","H","visual"
"32","blank.png",0,"B","",NA,"None",NA,6,4,"f001","H","visual"
"33","blank.png",0,"B","",NA,"None",NA,6,4,"f001","H","visual"
"34","blank.png",0,"B","",NA,"None",NA,6,4,"f001","H","visual"
"35","blank.png",0,"B","",NA,"None",NA,6,4,"f001","H","visual"
"36","blank.png",0,"B","",NA,"None",NA,6,4,"f001","H","visual"
"37","Alien7.bmp",25,"S","",NA,"None",NA,6,4,"f001","H","visual"
"38","Alien8.bmp",26,"S","",NA,"None",NA,6,4,"f001","H","visual"
"39","Alien9.bmp",27,"S","",NA,"None",NA,6,4,"f001","H","visual"
"40","Alien1.bmp",28,"S","",NA,"None",NA,6,4,"f001","H","visual"
"41","Alien2.bmp",29,"S","",NA,"None",NA,6,4,"f001","H","visual"
"42","Alien3.bmp",30,"S","",NA,"None",NA,6,4,"f001","H","visual"
"43","Alien7.bmp",31,"S","",NA,"None",NA,6,4,"f001","H","visual"
"44","Alien8.bmp",32,"S","",NA,"None",NA,6,4,"f001","H","visual"
"45","Alien9.bmp",33,"S","",NA,"None",NA,6,4,"f001","H","visual"
"46","Alien10.bmp",34,"S","",NA,"None",NA,6,4,"f001","H","visual"
"47","Alien11.bmp",35,"S","",NA,"None",NA,6,4,"f001","H","visual"
"48","Alien12.bmp",36,"S","",NA,"None",NA,6,4,"f001","H","visual"
"49","Alien4.bmp",37,"S","",NA,"None",NA,6,4,"f001","H","visual"
"50","Alien5.bmp",38,"S","",NA,"None",NA,6,4,"f001","H","visual"
"51","Alien6.bmp",39,"S","",NA,"None",NA,6,4,"f001","H","visual"
"52","Alien10.bmp",40,"S","",NA,"None",NA,6,4,"f001","H","visual"
"53","Alien11.bmp",41,"S","",NA,"None",NA,6,4,"f001","H","visual"
"54","Alien12.bmp",42,"S","",NA,"None",NA,6,4,"f001","H","visual"
"55","Alien4.bmp",43,"S","",NA,"None",NA,6,4,"f001","H","visual"
"56","Alien5.bmp",44,"S","",NA,"None",NA,6,4,"f001","H","visual"
"57","Alien6.bmp",45,"S","",NA,"None",NA,6,4,"f001","H","visual"
"58","Alien7.bmp",46,"S","",NA,"None",NA,6,4,"f001","H","visual"
"59","Alien8.bmp",47,"S","",NA,"None",NA,6,4,"f001","H","visual"
"60","Alien9.bmp",48,"S","",NA,"None",NA,6,4,"f001","H","visual"
"61","blank.png",0,"B","",NA,"None",NA,6,4,"f001","H","visual"
"62","blank.png",0,"B","",NA,"None",NA,6,4,"f001","H","visual"
"63","blank.png",0,"B","",NA,"None",NA,6,4,"f001","H","visual"
"64","blank.png",0,"B","",NA,"None",NA,6,4,"f001","H","visual"
"65","blank.png",0,"B","",NA,"None",NA,6,4,"f001","H","visual"
"66","blank.png",0,"B","",NA,"None",NA,6,4,"f001","H","visual"
"67","blank.png",0,"B","",NA,"None",NA,6,4,"f001","H","visual"
"68","blank.png",0,"B","",NA,"None",NA,6,4,"f001","H","visual"
"69","blank.png",0,"B","",NA,"None",NA,6,4,"f001","H","visual"
"70","blank.png",0,"B","",NA,"None",NA,6,4,"f001","H","visual"
"71","blank.png",0,"B","",NA,"None",NA,6,4,"f001","H","visual"
"72","blank.png",0,"B","",NA,"None",NA,6,4,"f001","H","visual"
"73","Alien1.bmp",49,"S","",NA,"None",NA,6,4,"f001","H","visual"
"74","Alien2.bmp",50,"S","",NA,"None",NA,6,4,"f001","H","visual"
"75","Alien3.bmp",51,"S","",NA,"None",NA,6,4,"f001","H","visual"
"76","Alien10.bmp",52,"S","",NA,"None",NA,6,4,"f001","H","visual"
"77","Alien11.bmp",53,"S","",NA,"None",NA,6,4,"f001","H","visual"
"78","Alien12.bmp",54,"S","",NA,"None",NA,6,4,"f001","H","visual"
"79","Alien4.bmp",55,"S","",NA,"None",NA,6,4,"f001","H","visual"
"80","Alien5.bmp",56,"S","",NA,"None",NA,6,4,"f001","H","visual"
"81","Alien6.bmp",57,"S","",NA,"None",NA,6,4,"f001","H","visual"
"82","Alien7.bmp",58,"S","",NA,"None",NA,6,4,"f001","H","visual"
"83","Alien8.bmp",59,"S","",NA,"None",NA,6,4,"f001","H","visual"
"84","Alien9.bmp",60,"S","",NA,"None",NA,6,4,"f001","H","visual"
"85","Alien1.bmp",61,"S","",NA,"None",NA,6,4,"f001","H","visual"
"86","Alien2.bmp",62,"S","",NA,"None",NA,6,4,"f001","H","visual"
"87","Alien3.bmp",63,"S","",NA,"None",NA,6,4,"f001","H","visual"
"88","Alien7.bmp",64,"S","",NA,"None",NA,6,4,"f001","H","visual"
"89","Alien8.bmp",65,"S","",NA,"None",NA,6,4,"f001","H","visual"
"90","Alien9.bmp",66,"S","",NA,"None",NA,6,4,"f001","H","visual"
"91","Alien4.bmp",67,"S","",NA,"None",NA,6,4,"f001","H","visual"
"92","Alien5.bmp",68,"S","",NA,"None",NA,6,4,"f001","H","visual"
"93","Alien6.bmp",69,"S","",NA,"None",NA,6,4,"f001","H","visual"
"94","Alien10.bmp",70,"S","",NA,"None",NA,6,4,"f001","H","visual"
"95","Alien11.bmp",71,"S","",NA,"None",NA,6,4,"f001","H","visual"
"96","Alien12.bmp",72,"S","",NA,"None",NA,6,4,"f001","H","visual"
"97","B.png",1,"R","None",NA,"",NA,6,4,"f001","H","visual"
"98","A.png",2,"R","None",NA,"",NA,6,4,"f001","H","visual"
"99","K.png",3,"R","None",NA,"",NA,6,4,"f001","H","visual"
"100","D.png",4,"R","None",NA,"",NA,6,4,"f001","H","visual"
"101","C.png",5,"R","None",NA,"",NA,6,4,"f001","H","visual"
"102","M.png",6,"R","None",NA,"",NA,6,4,"f001","H","visual"
"103","E.png",7,"R","None",NA,"",NA,6,4,"f001","H","visual"
"104","C.png",8,"R","None",NA,"",NA,6,4,"f001","H","visual"
"105","J.png",9,"R","None",NA,"",NA,6,4,"f001","H","visual"
"106","F.png",10,"R","None",NA,"",NA,6,4,"f001","H","visual"
"107","J.png",11,"R","None",NA,"",NA,6,4,"f001","H","visual"
"108","L.png",12,"R","None",NA,"",NA,6,4,"f001","H","visual"
"109","G.png",13,"R","None",NA,"",NA,6,4,"f001","H","visual"
"110","G.png",14,"R","None",NA,"",NA,6,4,"f001","H","visual"
"111","A.png",15,"R","None",NA,"",NA,6,4,"f001","H","visual"
"112","H.png",16,"R","None",NA,"",NA,6,4,"f001","H","visual"
"113","K.png",17,"R","None",NA,"",NA,6,4,"f001","H","visual"
"114","M.png",18,"R","None",NA,"",NA,6,4,"f001","H","visual"
"115","F.png",19,"R","None",NA,"",NA,6,4,"f001","H","visual"
"116","K.png",20,"R","None",NA,"",NA,6,4,"f001","H","visual"
"117","B.png",21,"R","None",NA,"",NA,6,4,"f001","H","visual"
"118","M.png",22,"R","None",NA,"",NA,6,4,"f001","H","visual"
"119","D.png",23,"R","None",NA,"",NA,6,4,"f001","H","visual"
"120","B.png",24,"R","None",NA,"",NA,6,4,"f001","H","visual"
"121","K.png",25,"R","None",NA,"",NA,6,4,"f001","H","visual"
"122","L.png",26,"R","None",NA,"",NA,6,4,"f001","H","visual"
"123","B.png",27,"R","None",NA,"",NA,6,4,"f001","H","visual"
"124","G.png",28,"R","None",NA,"",NA,6,4,"f001","H","visual"
"125","D.png",29,"R","None",NA,"",NA,6,4,"f001","H","visual"
"126","J.png",30,"R","None",NA,"",NA,6,4,"f001","H","visual"
"127","H.png",31,"R","3",0.325538801495,"",NA,6,4,"f001","H","visual"
"128","B.png",32,"R","None",NA,"",NA,6,4,"f001","H","visual"
"129","C.png",33,"R","None",NA,"",NA,6,4,"f001","H","visual"
"130","M.png",34,"R","None",NA,"",NA,6,4,"f001","H","visual"
"131","K.png",35,"R","None",NA,"",NA,6,4,"f001","H","visual"
"132","L.png",36,"R","None",NA,"",NA,6,4,"f001","H","visual"
"133","E.png",37,"R","None",NA,"",NA,6,4,"f001","H","visual"
"134","F.png",38,"R","None",NA,"",NA,6,4,"f001","H","visual"
"135","A.png",39,"R","None",NA,"",NA,6,4,"f001","H","visual"
"136","L.png",40,"R","None",NA,"",NA,6,4,"f001","H","visual"
"137","E.png",41,"R","None",NA,"",NA,6,4,"f001","H","visual"
"138","H.png",42,"R","None",NA,"",NA,6,4,"f001","H","visual"
"139","C.png",43,"R","3",0.217024161015,"",NA,6,4,"f001","H","visual"
"140","G.png",44,"R","None",NA,"",NA,6,4,"f001","H","visual"
"141","M.png",45,"R","None",NA,"",NA,6,4,"f001","H","visual"
"142","H.png",46,"R","3",0.417070980649,"",NA,6,4,"f001","H","visual"
"143","D.png",47,"R","None",NA,"",NA,6,4,"f001","H","visual"
"144","E.png",48,"R","None",NA,"",NA,6,4,"f001","H","visual"
"145","blank.png",0,"B","",NA,"",NA,6,4,"f001","H","visual"
"146","blank.png",0,"B","",NA,"",NA,6,4,"f001","H","visual"
"147","blank.png",0,"B","",NA,"",NA,6,4,"f001","H","visual"
"148","blank.png",0,"B","",NA,"",NA,6,4,"f001","H","visual"
"149","blank.png",0,"B","",NA,"",NA,6,4,"f001","H","visual"
"150","blank.png",0,"B","",NA,"",NA,6,4,"f001","H","visual"
"151","blank.png",0,"B","",NA,"",NA,6,4,"f001","H","visual"
"152","blank.png",0,"B","",NA,"",NA,6,4,"f001","H","visual"
"153","blank.png",0,"B","",NA,"",NA,6,4,"f001","H","visual"
"154","blank.png",0,"B","",NA,"",NA,6,4,"f001","H","visual"
"155","blank.png",0,"B","",NA,"",NA,6,4,"f001","H","visual"
"156","blank.png",0,"B","",NA,"",NA,6,4,"f001","H","visual"
"157","B.png",49,"R","None",NA,"",NA,6,4,"f001","H","visual"
"158","J.png",50,"R","None",NA,"",NA,6,4,"f001","H","visual"
"159","K.png",51,"R","None",NA,"",NA,6,4,"f001","H","visual"
"160","A.png",52,"R","None",NA,"",NA,6,4,"f001","H","visual"
"161","H.png",53,"R","3",0.600549205206,"",NA,6,4,"f001","H","visual"
"162","C.png",54,"R","None",NA,"",NA,6,4,"f001","H","visual"
"163","F.png",55,"R","None",NA,"",NA,6,4,"f001","H","visual"
"164","E.png",56,"R","None",NA,"",NA,6,4,"f001","H","visual"
"165","J.png",57,"R","None",NA,"",NA,6,4,"f001","H","visual"
"166","F.png",58,"R","None",NA,"",NA,6,4,"f001","H","visual"
"167","C.png",59,"R","None",NA,"",NA,6,4,"f001","H","visual"
"168","A.png",60,"R","None",NA,"",NA,6,4,"f001","H","visual"
"169","G.png",61,"R","None",NA,"",NA,6,4,"f001","H","visual"
"170","B.png",62,"R","None",NA,"",NA,6,4,"f001","H","visual"
"171","E.png",63,"R","None",NA,"",NA,6,4,"f001","H","visual"
"172","K.png",64,"R","None",NA,"",NA,6,4,"f001","H","visual"
"173","G.png",65,"R","None",NA,"",NA,6,4,"f001","H","visual"
"174","D.png",66,"R","None",NA,"",NA,6,4,"f001","H","visual"
"175","D.png",67,"R","None",NA,"",NA,6,4,"f001","H","visual"
"176","M.png",68,"R","None",NA,"",NA,6,4,"f001","H","visual"
"177","H.png",69,"R","3",0.575746801216,"",NA,6,4,"f001","H","visual"
"178","M.png",70,"R","None",NA,"",NA,6,4,"f001","H","visual"
"179","L.png",71,"R","None",NA,"",NA,6,4,"f001","H","visual"
"180","L.png",72,"R","None",NA,"",NA,6,4,"f001","H","visual"
"181","Alien1.bmp",73,"S","",NA,"None",NA,6,4,"f001","H","visual"
"182","Alien2.bmp",74,"S","",NA,"None",NA,6,4,"f001","H","visual"
"183","Alien3.bmp",75,"S","",NA,"None",NA,6,4,"f001","H","visual"
"184","Alien4.bmp",76,"S","",NA,"None",NA,6,4,"f001","H","visual"
"185","Alien5.bmp",77,"S","",NA,"None",NA,6,4,"f001","H","visual"
"186","Alien6.bmp",78,"S","",NA,"3",0.500398932956,6,4,"f001","H","visual"
"187","Alien7.bmp",79,"S","",NA,"None",NA,6,4,"f001","H","visual"
"188","Alien8.bmp",80,"S","",NA,"None",NA,6,4,"f001","H","visual"
"189","Alien9.bmp",81,"S","",NA,"None",NA,6,4,"f001","H","visual"
"190","Alien10.bmp",82,"S","",NA,"None",NA,6,4,"f001","H","visual"
"191","Alien11.bmp",83,"S","",NA,"None",NA,6,4,"f001","H","visual"
"192","Alien12.bmp",84,"S","",NA,"None",NA,6,4,"f001","H","visual"
"193","Alien1.bmp",85,"S","",NA,"None",NA,6,4,"f001","H","visual"
"194","Alien2.bmp",86,"S","",NA,"None",NA,6,4,"f001","H","visual"
"195","Alien3.bmp",87,"S","",NA,"None",NA,6,4,"f001","H","visual"
"196","Alien7.bmp",88,"S","",NA,"None",NA,6,4,"f001","H","visual"
"197","Alien8.bmp",89,"S","",NA,"None",NA,6,4,"f001","H","visual"
"198","Alien9.bmp",90,"S","",NA,"3",0.483697502874,6,4,"f001","H","visual"
"199","Alien4.bmp",91,"S","",NA,"None",NA,6,4,"f001","H","visual"
"200","Alien5.bmp",92,"S","",NA,"None",NA,6,4,"f001","H","visual"
"201","Alien6.bmp",93,"S","",NA,"3",0.416965167038,6,4,"f001","H","visual"
"202","Alien10.bmp",94,"S","",NA,"None",NA,6,4,"f001","H","visual"
"203","Alien11.bmp",95,"S","",NA,"None",NA,6,4,"f001","H","visual"
"204","Alien12.bmp",96,"S","",NA,"None",NA,6,4,"f001","H","visual"
"205","blank.png",0,"B","",NA,"None",NA,6,4,"f001","H","visual"
"206","blank.png",0,"B","",NA,"None",NA,6,4,"f001","H","visual"
"207","blank.png",0,"B","",NA,"None",NA,6,4,"f001","H","visual"
"208","blank.png",0,"B","",NA,"None",NA,6,4,"f001","H","visual"
"209","blank.png",0,"B","",NA,"None",NA,6,4,"f001","H","visual"
"210","blank.png",0,"B","",NA,"None",NA,6,4,"f001","H","visual"
"211","blank.png",0,"B","",NA,"None",NA,6,4,"f001","H","visual"
"212","blank.png",0,"B","",NA,"None",NA,6,4,"f001","H","visual"
"213","blank.png",0,"B","",NA,"None",NA,6,4,"f001","H","visual"
"214","blank.png",0,"B","",NA,"None",NA,6,4,"f001","H","visual"
"215","blank.png",0,"B","",NA,"None",NA,6,4,"f001","H","visual"
"216","blank.png",0,"B","",NA,"None",NA,6,4,"f001","H","visual"
"217","Alien4.bmp",97,"S","",NA,"None",NA,6,4,"f001","H","visual"
"218","Alien5.bmp",98,"S","",NA,"None",NA,6,4,"f001","H","visual"
"219","Alien6.bmp",99,"S","",NA,"3",0.516962123569,6,4,"f001","H","visual"
"220","Alien1.bmp",100,"S","",NA,"None",NA,6,4,"f001","H","visual"
"221","Alien2.bmp",101,"S","",NA,"None",NA,6,4,"f001","H","visual"
"222","Alien3.bmp",102,"S","",NA,"None",NA,6,4,"f001","H","visual"
"223","Alien7.bmp",103,"S","",NA,"None",NA,6,4,"f001","H","visual"
"224","Alien8.bmp",104,"S","",NA,"None",NA,6,4,"f001","H","visual"
"225","Alien9.bmp",105,"S","",NA,"None",NA,6,4,"f001","H","visual"
"226","Alien10.bmp",106,"S","",NA,"None",NA,6,4,"f001","H","visual"
"227","Alien11.bmp",107,"S","",NA,"None",NA,6,4,"f001","H","visual"
"228","Alien12.bmp",108,"S","",NA,"None",NA,6,4,"f001","H","visual"
"229","Alien1.bmp",109,"S","",NA,"None",NA,6,4,"f001","H","visual"
"230","Alien2.bmp",110,"S","",NA,"None",NA,6,4,"f001","H","visual"
"231","Alien3.bmp",111,"S","",NA,"None",NA,6,4,"f001","H","visual"
"232","Alien4.bmp",112,"S","",NA,"None",NA,6,4,"f001","H","visual"
"233","Alien5.bmp",113,"S","",NA,"None",NA,6,4,"f001","H","visual"
"234","Alien6.bmp",114,"S","",NA,"3",0.117050813511,6,4,"f001","H","visual"
"235","Alien10.bmp",115,"S","",NA,"None",NA,6,4,"f001","H","visual"
"236","Alien11.bmp",116,"S","",NA,"None",NA,6,4,"f001","H","visual"
"237","Alien12.bmp",117,"S","",NA,"None",NA,6,4,"f001","H","visual"
"238","Alien7.bmp",118,"S","",NA,"None",NA,6,4,"f001","H","visual"
"239","Alien8.bmp",119,"S","",NA,"None",NA,6,4,"f001","H","visual"
"240","Alien9.bmp",120,"S","",NA,"None",NA,6,4,"f001","H","visual"
"241","M.png",73,"R","None",NA,"",NA,6,4,"f001","H","visual"
"242","B.png",74,"R","None",NA,"",NA,6,4,"f001","H","visual"
"243","C.png",75,"R","None",NA,"",NA,6,4,"f001","H","visual"
"244","J.png",76,"R","None",NA,"",NA,6,4,"f001","H","visual"
"245","L.png",77,"R","None",NA,"",NA,6,4,"f001","H","visual"
"246","E.png",78,"R","None",NA,"",NA,6,4,"f001","H","visual"
"247","A.png",79,"R","None",NA,"",NA,6,4,"f001","H","visual"
"248","K.png",80,"R","None",NA,"",NA,6,4,"f001","H","visual"
"249","L.png",81,"R","None",NA,"",NA,6,4,"f001","H","visual"
"250","B.png",82,"R","None",NA,"",NA,6,4,"f001","H","visual"
"251","G.png",83,"R","None",NA,"",NA,6,4,"f001","H","visual"
"252","K.png",84,"R","None",NA,"",NA,6,4,"f001","H","visual"
"253","H.png",85,"R","3",0.55041845981,"",NA,6,4,"f001","H","visual"
"254","H.png",86,"R","3",0.567068406381,"",NA,6,4,"f001","H","visual"
"255","F.png",87,"R","None",NA,"",NA,6,4,"f001","H","visual"
"256","J.png",88,"R","None",NA,"",NA,6,4,"f001","H","visual"
"257","G.png",89,"R","None",NA,"",NA,6,4,"f001","H","visual"
"258","A.png",90,"R","None",NA,"",NA,6,4,"f001","H","visual"
"259","E.png",91,"R","None",NA,"",NA,6,4,"f001","H","visual"
"260","D.png",92,"R","None",NA,"",NA,6,4,"f001","H","visual"
"261","D.png",93,"R","None",NA,"",NA,6,4,"f001","H","visual"
"262","C.png",94,"R","None",NA,"",NA,6,4,"f001","H","visual"
"263","F.png",95,"R","None",NA,"",NA,6,4,"f001","H","visual"
"264","M.png",96,"R","None",NA,"",NA,6,4,"f001","H","visual"
"265","E.png",97,"R","None",NA,"",NA,6,4,"f001","H","visual"
"266","L.png",98,"R","None",NA,"",NA,6,4,"f001","H","visual"
"267","G.png",99,"R","None",NA,"",NA,6,4,"f001","H","visual"
"268","K.png",100,"R","None",NA,"",NA,6,4,"f001","H","visual"
"269","F.png",101,"R","None",NA,"",NA,6,4,"f001","H","visual"
"270","C.png",102,"R","None",NA,"",NA,6,4,"f001","H","visual"
"271","M.png",103,"R","None",NA,"",NA,6,4,"f001","H","visual"
"272","D.png",104,"R","None",NA,"",NA,6,4,"f001","H","visual"
"273","F.png",105,"R","None",NA,"",NA,6,4,"f001","H","visual"
"274","B.png",106,"R","None",NA,"",NA,6,4,"f001","H","visual"
"275","A.png",107,"R","None",NA,"",NA,6,4,"f001","H","visual"
"276","C.png",108,"R","None",NA,"",NA,6,4,"f001","H","visual"
"277","H.png",109,"R","3",0.392085679341,"",NA,6,4,"f001","H","visual"
"278","J.png",110,"R","None",NA,"",NA,6,4,"f001","H","visual"
"279","E.png",111,"R","None",NA,"",NA,6,4,"f001","H","visual"
"280","A.png",112,"R","None",NA,"",NA,6,4,"f001","H","visual"
"281","G.png",113,"R","None",NA,"",NA,6,4,"f001","H","visual"
"282","D.png",114,"R","None",NA,"",NA,6,4,"f001","H","visual"
"283","J.png",115,"R","None",NA,"",NA,6,4,"f001","H","visual"
"284","H.png",116,"R","3",0.375449386425,"",NA,6,4,"f001","H","visual"
"285","B.png",117,"R","None",NA,"",NA,6,4,"f001","H","visual"
"286","L.png",118,"R","None",NA,"",NA,6,4,"f001","H","visual"
"287","K.png",119,"R","None",NA,"",NA,6,4,"f001","H","visual"
"288","M.png",120,"R","None",NA,"",NA,6,4,"f001","H","visual"
"289","blank.png",0,"B","",NA,"",NA,6,4,"f001","H","visual"
"290","blank.png",0,"B","",NA,"",NA,6,4,"f001","H","visual"
"291","blank.png",0,"B","",NA,"",NA,6,4,"f001","H","visual"
"292","blank.png",0,"B","",NA,"",NA,6,4,"f001","H","visual"
"293","blank.png",0,"B","",NA,"",NA,6,4,"f001","H","visual"
"294","blank.png",0,"B","",NA,"",NA,6,4,"f001","H","visual"
"295","blank.png",0,"B","",NA,"",NA,6,4,"f001","H","visual"
"296","blank.png",0,"B","",NA,"",NA,6,4,"f001","H","visual"
"297","blank.png",0,"B","",NA,"",NA,6,4,"f001","H","visual"
"298","blank.png",0,"B","",NA,"",NA,6,4,"f001","H","visual"
"299","blank.png",0,"B","",NA,"",NA,6,4,"f001","H","visual"
"300","blank.png",0,"B","",NA,"",NA,6,4,"f001","H","visual"
"301","Alien1.bmp",121,"S","",NA,"None",NA,6,4,"f001","H","visual"
"302","Alien2.bmp",122,"S","",NA,"None",NA,6,4,"f001","H","visual"
"303","Alien3.bmp",123,"S","",NA,"None",NA,6,4,"f001","H","visual"
"304","Alien4.bmp",124,"S","",NA,"None",NA,6,4,"f001","H","visual"
"305","Alien5.bmp",125,"S","",NA,"3",0.975549738389,6,4,"f001","H","visual"
"306","Alien6.bmp",126,"S","",NA,"None",NA,6,4,"f001","H","visual"
"307","Alien1.bmp",127,"S","",NA,"None",NA,6,4,"f001","H","visual"
"308","Alien2.bmp",128,"S","",NA,"None",NA,6,4,"f001","H","visual"
"309","Alien3.bmp",129,"S","",NA,"None",NA,6,4,"f001","H","visual"
"310","Alien7.bmp",130,"S","",NA,"None",NA,6,4,"f001","H","visual"
"311","Alien8.bmp",131,"S","",NA,"None",NA,6,4,"f001","H","visual"
"312","Alien9.bmp",132,"S","",NA,"None",NA,6,4,"f001","H","visual"
"313","Alien10.bmp",133,"S","",NA,"None",NA,6,4,"f001","H","visual"
"314","Alien11.bmp",134,"S","",NA,"None",NA,6,4,"f001","H","visual"
"315","Alien12.bmp",135,"S","",NA,"None",NA,6,4,"f001","H","visual"
"316","Alien7.bmp",136,"S","",NA,"None",NA,6,4,"f001","H","visual"
"317","Alien8.bmp",137,"S","",NA,"None",NA,6,4,"f001","H","visual"
"318","Alien9.bmp",138,"S","",NA,"None",NA,6,4,"f001","H","visual"
"319","Alien10.bmp",139,"S","",NA,"None",NA,6,4,"f001","H","visual"
"320","Alien11.bmp",140,"S","",NA,"None",NA,6,4,"f001","H","visual"
"321","Alien12.bmp",141,"S","",NA,"None",NA,6,4,"f001","H","visual"
"322","Alien1.bmp",142,"S","",NA,"None",NA,6,4,"f001","H","visual"
"323","Alien2.bmp",143,"S","",NA,"None",NA,6,4,"f001","H","visual"
"324","Alien3.bmp",144,"S","",NA,"None",NA,6,4,"f001","H","visual"
"325","Alien4.bmp",145,"S","",NA,"None",NA,6,4,"f001","H","visual"
"326","Alien5.bmp",146,"S","",NA,"None",NA,6,4,"f001","H","visual"
"327","Alien6.bmp",147,"S","",NA,"None",NA,6,4,"f001","H","visual"
"328","Alien10.bmp",148,"S","",NA,"None",NA,6,4,"f001","H","visual"
"329","Alien11.bmp",149,"S","",NA,"None",NA,6,4,"f001","H","visual"
"330","Alien12.bmp",150,"S","",NA,"None",NA,6,4,"f001","H","visual"
"331","Alien4.bmp",151,"S","",NA,"None",NA,6,4,"f001","H","visual"
"332","Alien5.bmp",152,"S","",NA,"3",0.950476828497,6,4,"f001","H","visual"
"333","Alien6.bmp",153,"S","",NA,"None",NA,6,4,"f001","H","visual"
"334","Alien7.bmp",154,"S","",NA,"None",NA,6,4,"f001","H","visual"
"335","Alien8.bmp",155,"S","",NA,"None",NA,6,4,"f001","H","visual"
"336","Alien9.bmp",156,"S","",NA,"None",NA,6,4,"f001","H","visual"
"337","Alien1.bmp",157,"S","",NA,"None",NA,6,4,"f001","H","visual"
"338","Alien2.bmp",158,"S","",NA,"None",NA,6,4,"f001","H","visual"
"339","Alien3.bmp",159,"S","",NA,"None",NA,6,4,"f001","H","visual"
"340","Alien4.bmp",160,"S","",NA,"None",NA,6,4,"f001","H","visual"
"341","Alien5.bmp",161,"S","",NA,"None",NA,6,4,"f001","H","visual"
"342","Alien6.bmp",162,"S","",NA,"3",0.0419908026233,6,4,"f001","H","visual"
"343","Alien7.bmp",163,"S","",NA,"None",NA,6,4,"f001","H","visual"
"344","Alien8.bmp",164,"S","",NA,"None",NA,6,4,"f001","H","visual"
"345","Alien9.bmp",165,"S","",NA,"None",NA,6,4,"f001","H","visual"
"346","Alien1.bmp",166,"S","",NA,"None",NA,6,4,"f001","H","visual"
"347","Alien2.bmp",167,"S","",NA,"None",NA,6,4,"f001","H","visual"
"348","Alien3.bmp",168,"S","",NA,"None",NA,6,4,"f001","H","visual"
"349","blank.png",0,"B","",NA,"None",NA,6,4,"f001","H","visual"
"350","blank.png",0,"B","",NA,"None",NA,6,4,"f001","H","visual"
"351","blank.png",0,"B","",NA,"None",NA,6,4,"f001","H","visual"
"352","blank.png",0,"B","",NA,"None",NA,6,4,"f001","H","visual"
"353","blank.png",0,"B","",NA,"None",NA,6,4,"f001","H","visual"
"354","blank.png",0,"B","",NA,"None",NA,6,4,"f001","H","visual"
"355","blank.png",0,"B","",NA,"None",NA,6,4,"f001","H","visual"
"356","blank.png",0,"B","",NA,"None",NA,6,4,"f001","H","visual"
"357","blank.png",0,"B","",NA,"None",NA,6,4,"f001","H","visual"
"358","blank.png",0,"B","",NA,"None",NA,6,4,"f001","H","visual"
"359","blank.png",0,"B","",NA,"None",NA,6,4,"f001","H","visual"
"360","blank.png",0,"B","",NA,"None",NA,6,4,"f001","H","visual"
"361","Alien10.bmp",169,"S","",NA,"None",NA,6,4,"f001","H","visual"
"362","Alien11.bmp",170,"S","",NA,"None",NA,6,4,"f001","H","visual"
"363","Alien12.bmp",171,"S","",NA,"None",NA,6,4,"f001","H","visual"
"364","Alien1.bmp",172,"S","",NA,"None",NA,6,4,"f001","H","visual"
"365","Alien2.bmp",173,"S","",NA,"None",NA,6,4,"f001","H","visual"
"366","Alien3.bmp",174,"S","",NA,"None",NA,6,4,"f001","H","visual"
"367","Alien4.bmp",175,"S","",NA,"None",NA,6,4,"f001","H","visual"
"368","Alien5.bmp",176,"S","",NA,"3",0.942220832687,6,4,"f001","H","visual"
"369","Alien6.bmp",177,"S","",NA,"None",NA,6,4,"f001","H","visual"
"370","Alien10.bmp",178,"S","",NA,"None",NA,6,4,"f001","H","visual"
"371","Alien11.bmp",179,"S","",NA,"None",NA,6,4,"f001","H","visual"
"372","Alien12.bmp",180,"S","",NA,"None",NA,6,4,"f001","H","visual"
"373","Alien7.bmp",181,"S","",NA,"None",NA,6,4,"f001","H","visual"
"374","Alien8.bmp",182,"S","",NA,"None",NA,6,4,"f001","H","visual"
"375","Alien9.bmp",183,"S","",NA,"None",NA,6,4,"f001","H","visual"
"376","Alien10.bmp",184,"S","",NA,"None",NA,6,4,"f001","H","visual"
"377","Alien11.bmp",185,"S","",NA,"None",NA,6,4,"f001","H","visual"
"378","Alien12.bmp",186,"S","",NA,"None",NA,6,4,"f001","H","visual"
"379","Alien1.bmp",187,"S","",NA,"None",NA,6,4,"f001","H","visual"
"380","Alien2.bmp",188,"S","",NA,"None",NA,6,4,"f001","H","visual"
"381","Alien3.bmp",189,"S","",NA,"None",NA,6,4,"f001","H","visual"
"382","Alien7.bmp",190,"S","",NA,"None",NA,6,4,"f001","H","visual"
"383","Alien8.bmp",191,"S","",NA,"None",NA,6,4,"f001","H","visual"
"384","Alien9.bmp",192,"S","",NA,"None",NA,6,4,"f001","H","visual"
"385","blank.png",0,"B","",NA,"None",NA,6,4,"f001","H","visual"
"386","blank.png",0,"B","",NA,"None",NA,6,4,"f001","H","visual"
"387","blank.png",0,"B","",NA,"None",NA,6,4,"f001","H","visual"
"388","blank.png",0,"B","",NA,"None",NA,6,4,"f001","H","visual"
"389","blank.png",0,"B","",NA,"None",NA,6,4,"f001","H","visual"
"390","blank.png",0,"B","",NA,"None",NA,6,4,"f001","H","visual"
"391","blank.png",0,"B","",NA,"None",NA,6,4,"f001","H","visual"
"392","blank.png",0,"B","",NA,"None",NA,6,4,"f001","H","visual"
"393","blank.png",0,"B","",NA,"None",NA,6,4,"f001","H","visual"
"394","blank.png",0,"B","",NA,"None",NA,6,4,"f001","H","visual"
"395","blank.png",0,"B","",NA,"None",NA,6,4,"f001","H","visual"
"396","blank.png",0,"B","",NA,"None",NA,6,4,"f001","H","visual"
"397","M.png",121,"R","None",NA,"",NA,6,4,"f001","H","visual"
"398","G.png",122,"R","None",NA,"",NA,6,4,"f001","H","visual"
"399","H.png",123,"R","3",0.400440945756,"",NA,6,4,"f001","H","visual"
"400","F.png",124,"R","None",NA,"",NA,6,4,"f001","H","visual"
"401","A.png",125,"R","None",NA,"",NA,6,4,"f001","H","visual"
"402","D.png",126,"R","None",NA,"",NA,6,4,"f001","H","visual"
"403","D.png",127,"R","None",NA,"",NA,6,4,"f001","H","visual"
"404","H.png",128,"R","3",0.325418197084,"",NA,6,4,"f001","H","visual"
"405","F.png",129,"R","None",NA,"",NA,6,4,"f001","H","visual"
"406","L.png",130,"R","None",NA,"",NA,6,4,"f001","H","visual"
"407","A.png",131,"R","None",NA,"",NA,6,4,"f001","H","visual"
"408","A.png",132,"R","None",NA,"",NA,6,4,"f001","H","visual"
"409","J.png",133,"R","None",NA,"",NA,6,4,"f001","H","visual"
"410","E.png",134,"R","None",NA,"",NA,6,4,"f001","H","visual"
"411","C.png",135,"R","None",NA,"",NA,6,4,"f001","H","visual"
"412","B.png",136,"R","None",NA,"",NA,6,4,"f001","H","visual"
"413","J.png",137,"R","None",NA,"",NA,6,4,"f001","H","visual"
"414","E.png",138,"R","None",NA,"",NA,6,4,"f001","H","visual"
"415","L.png",139,"R","None",NA,"",NA,6,4,"f001","H","visual"
"416","C.png",140,"R","None",NA,"",NA,6,4,"f001","H","visual"
"417","F.png",141,"R","None",NA,"",NA,6,4,"f001","H","visual"
"418","K.png",142,"R","None",NA,"",NA,6,4,"f001","H","visual"
"419","J.png",143,"R","None",NA,"",NA,6,4,"f001","H","visual"
"420","G.png",144,"R","None",NA,"",NA,6,4,"f001","H","visual"
"421","blank.png",0,"B","",NA,"",NA,6,4,"f001","H","visual"
"422","blank.png",0,"B","",NA,"",NA,6,4,"f001","H","visual"
"423","blank.png",0,"B","",NA,"",NA,6,4,"f001","H","visual"
"424","blank.png",0,"B","",NA,"",NA,6,4,"f001","H","visual"
"425","blank.png",0,"B","",NA,"",NA,6,4,"f001","H","visual"
"426","blank.png",0,"B","",NA,"",NA,6,4,"f001","H","visual"
"427","blank.png",0,"B","",NA,"",NA,6,4,"f001","H","visual"
"428","blank.png",0,"B","",NA,"",NA,6,4,"f001","H","visual"
"429","blank.png",0,"B","",NA,"",NA,6,4,"f001","H","visual"
"430","blank.png",0,"B","",NA,"",NA,6,4,"f001","H","visual"
"431","blank.png",0,"B","",NA,"",NA,6,4,"f001","H","visual"
"432","blank.png",0,"B","",NA,"",NA,6,4,"f001","H","visual"
"433","L.png",145,"R","None",NA,"",NA,6,4,"f001","H","visual"
"434","B.png",146,"R","None",NA,"",NA,6,4,"f001","H","visual"
"435","J.png",147,"R","None",NA,"",NA,6,4,"f001","H","visual"
"436","B.png",148,"R","None",NA,"",NA,6,4,"f001","H","visual"
"437","L.png",149,"R","None",NA,"",NA,6,4,"f001","H","visual"
"438","A.png",150,"R","None",NA,"",NA,6,4,"f001","H","visual"
"439","H.png",151,"R","3",0.433609993197,"",NA,6,4,"f001","H","visual"
"440","M.png",152,"R","None",NA,"",NA,6,4,"f001","H","visual"
"441","F.png",153,"R","None",NA,"",NA,6,4,"f001","H","visual"
"442","E.png",154,"R","None",NA,"",NA,6,4,"f001","H","visual"
"443","B.png",155,"R","None",NA,"",NA,6,4,"f001","H","visual"
"444","C.png",156,"R","None",NA,"",NA,6,4,"f001","H","visual"
"445","K.png",157,"R","None",NA,"",NA,6,4,"f001","H","visual"
"446","A.png",158,"R","None",NA,"",NA,6,4,"f001","H","visual"
"447","F.png",159,"R","None",NA,"",NA,6,4,"f001","H","visual"
"448","M.png",160,"R","None",NA,"",NA,6,4,"f001","H","visual"
"449","G.png",161,"R","None",NA,"",NA,6,4,"f001","H","visual"
"450","E.png",162,"R","None",NA,"",NA,6,4,"f001","H","visual"
"451","D.png",163,"R","None",NA,"",NA,6,4,"f001","H","visual"
"452","M.png",164,"R","None",NA,"",NA,6,4,"f001","H","visual"
"453","H.png",165,"R","3",0.383673239499,"",NA,6,4,"f001","H","visual"
"454","K.png",166,"R","None",NA,"",NA,6,4,"f001","H","visual"
"455","K.png",167,"R","None",NA,"",NA,6,4,"f001","H","visual"
"456","J.png",168,"R","None",NA,"",NA,6,4,"f001","H","visual"
"457","A.png",169,"R","None",NA,"",NA,6,4,"f001","H","visual"
"458","H.png",170,"R","3",0.575416277163,"",NA,6,4,"f001","H","visual"
"459","G.png",171,"R","None",NA,"",NA,6,4,"f001","H","visual"
"460","C.png",172,"R","None",NA,"",NA,6,4,"f001","H","visual"
"461","F.png",173,"R","None",NA,"",NA,6,4,"f001","H","visual"
"462","K.png",174,"R","None",NA,"",NA,6,4,"f001","H","visual"
"463","D.png",175,"R","None",NA,"",NA,6,4,"f001","H","visual"
"464","C.png",176,"R","None",NA,"",NA,6,4,"f001","H","visual"
"465","H.png",177,"R","3",0.342042827513,"",NA,6,4,"f001","H","visual"
"466","E.png",178,"R","None",NA,"",NA,6,4,"f001","H","visual"
"467","L.png",179,"R","None",NA,"",NA,6,4,"f001","H","visual"
"468","A.png",180,"R","None",NA,"",NA,6,4,"f001","H","visual"
"469","F.png",181,"R","None",NA,"",NA,6,4,"f001","H","visual"
"470","J.png",182,"R","None",NA,"",NA,6,4,"f001","H","visual"
"471","M.png",183,"R","None",NA,"",NA,6,4,"f001","H","visual"
"472","E.png",184,"R","None",NA,"",NA,6,4,"f001","H","visual"
"473","G.png",185,"R","None",NA,"",NA,6,4,"f001","H","visual"
"474","C.png",186,"R","None",NA,"",NA,6,4,"f001","H","visual"
"475","D.png",187,"R","None",NA,"",NA,6,4,"f001","H","visual"
"476","D.png",188,"R","None",NA,"",NA,6,4,"f001","H","visual"
"477","G.png",189,"R","None",NA,"",NA,6,4,"f001","H","visual"
"478","L.png",190,"R","None",NA,"",NA,6,4,"f001","H","visual"
"479","B.png",191,"R","None",NA,"",NA,6,4,"f001","H","visual"
"480","J.png",192,"R","None",NA,"",NA,6,4,"f001","H","visual"
