soundFile,word,location,repetition,trialnum,condition,trials_1.thisRepN,trials_1.thisTrialN,trials_1.thisN,trials_1.thisIndex,fam_trials_loop.thisRepN,fam_trials_loop.thisTrialN,fam_trials_loop.thisN,fam_trials_loop.thisIndex,structured_block_key_resp.keys,structured_block_key_resp.rt,random_block_key_resp.keys,random_block_key_resp.rt,starget,Run,PartID,frameRate,ttarget,expName,date,
3A.wav,1,1,1,1,S,0,0,0,0,,,,,None,,,,da,4,005,123.819070115,1C,auditory,2017_Oct_31_0958,
3B.wav,1,2,1,2,S,0,1,1,1,,,,,None,,,,da,4,005,123.819070115,1C,auditory,2017_Oct_31_0958,
3C.wav,1,3,1,3,S,0,2,2,2,,,,,None,,,,da,4,005,123.819070115,1C,auditory,2017_Oct_31_0958,
1A.wav,2,1,1,4,S,0,3,3,3,,,,,None,,,,da,4,005,123.819070115,1C,auditory,2017_Oct_31_0958,
1B.wav,2,2,1,5,S,0,4,4,4,,,,,None,,,,da,4,005,123.819070115,1C,auditory,2017_Oct_31_0958,
1C.wav,2,3,1,6,S,0,5,5,5,,,,,None,,,,da,4,005,123.819070115,1C,auditory,2017_Oct_31_0958,
4A.wav,3,1,1,7,S,0,6,6,6,,,,,4,0.266880037496,,,da,4,005,123.819070115,1C,auditory,2017_Oct_31_0958,
4B.wav,3,2,1,8,S,0,7,7,7,,,,,None,,,,da,4,005,123.819070115,1C,auditory,2017_Oct_31_0958,
4C.wav,3,3,1,9,S,0,8,8,8,,,,,None,,,,da,4,005,123.819070115,1C,auditory,2017_Oct_31_0958,
3A.wav,1,1,2,10,S,0,9,9,9,,,,,None,,,,da,4,005,123.819070115,1C,auditory,2017_Oct_31_0958,
3B.wav,1,2,2,11,S,0,10,10,10,,,,,4,0.216942501487,,,da,4,005,123.819070115,1C,auditory,2017_Oct_31_0958,
3C.wav,1,3,2,12,S,0,11,11,11,,,,,None,,,,da,4,005,123.819070115,1C,auditory,2017_Oct_31_0958,
2A.wav,4,1,1,13,S,0,12,12,12,,,,,None,,,,da,4,005,123.819070115,1C,auditory,2017_Oct_31_0958,
2B.wav,4,2,1,14,S,0,13,13,13,,,,,None,,,,da,4,005,123.819070115,1C,auditory,2017_Oct_31_0958,
2C.wav,4,3,1,15,S,0,14,14,14,,,,,4,0.300229091197,,,da,4,005,123.819070115,1C,auditory,2017_Oct_31_0958,
1A.wav,2,1,2,16,S,0,15,15,15,,,,,None,,,,da,4,005,123.819070115,1C,auditory,2017_Oct_31_0958,
1B.wav,2,2,2,17,S,0,16,16,16,,,,,None,,,,da,4,005,123.819070115,1C,auditory,2017_Oct_31_0958,
1C.wav,2,3,2,18,S,0,17,17,17,,,,,None,,,,da,4,005,123.819070115,1C,auditory,2017_Oct_31_0958,
4A.wav,3,1,2,19,S,0,18,18,18,,,,,3,0.0918099505361,,,da,4,005,123.819070115,1C,auditory,2017_Oct_31_0958,
4B.wav,3,2,2,20,S,0,19,19,19,,,,,None,,,,da,4,005,123.819070115,1C,auditory,2017_Oct_31_0958,
4C.wav,3,3,2,21,S,0,20,20,20,,,,,None,,,,da,4,005,123.819070115,1C,auditory,2017_Oct_31_0958,
3A.wav,1,1,3,22,S,0,21,21,21,,,,,None,,,,da,4,005,123.819070115,1C,auditory,2017_Oct_31_0958,
3B.wav,1,2,3,23,S,0,22,22,22,,,,,3,0.191903759958,,,da,4,005,123.819070115,1C,auditory,2017_Oct_31_0958,
3C.wav,1,3,3,24,S,0,23,23,23,,,,,None,,,,da,4,005,123.819070115,1C,auditory,2017_Oct_31_0958,
silence.wav,0,0,0,0,B,0,24,24,24,,,,,3,0.391958259512,,,da,4,005,123.819070115,1C,auditory,2017_Oct_31_0958,
silence.wav,0,0,0,0,B,0,25,25,25,,,,,None,,,,da,4,005,123.819070115,1C,auditory,2017_Oct_31_0958,
silence.wav,0,0,0,0,B,0,26,26,26,,,,,None,,,,da,4,005,123.819070115,1C,auditory,2017_Oct_31_0958,
silence.wav,0,0,0,0,B,0,27,27,27,,,,,None,,,,da,4,005,123.819070115,1C,auditory,2017_Oct_31_0958,
silence.wav,0,0,0,0,B,0,28,28,28,,,,,None,,,,da,4,005,123.819070115,1C,auditory,2017_Oct_31_0958,
silence.wav,0,0,0,0,B,0,29,29,29,,,,,None,,,,da,4,005,123.819070115,1C,auditory,2017_Oct_31_0958,
silence.wav,0,0,0,0,B,0,30,30,30,,,,,None,,,,da,4,005,123.819070115,1C,auditory,2017_Oct_31_0958,
silence.wav,0,0,0,0,B,0,31,31,31,,,,,None,,,,da,4,005,123.819070115,1C,auditory,2017_Oct_31_0958,
silence.wav,0,0,0,0,B,0,32,32,32,,,,,None,,,,da,4,005,123.819070115,1C,auditory,2017_Oct_31_0958,
silence.wav,0,0,0,0,B,0,33,33,33,,,,,None,,,,da,4,005,123.819070115,1C,auditory,2017_Oct_31_0958,
silence.wav,0,0,0,0,B,0,34,34,34,,,,,None,,,,da,4,005,123.819070115,1C,auditory,2017_Oct_31_0958,
silence.wav,0,0,0,0,B,0,35,35,35,,,,,4,0.141936926404,,,da,4,005,123.819070115,1C,auditory,2017_Oct_31_0958,
bi.wav,0,1,1,1,R,,,,,0,0,0,0,,,None,,da,4,005,123.819070115,1C,auditory,2017_Oct_31_0958,
da.wav,0,2,1,2,R,,,,,0,1,1,1,,,None,,da,4,005,123.819070115,1C,auditory,2017_Oct_31_0958,
pi.wav,0,3,1,3,R,,,,,0,2,2,2,,,4,0.191863938002,da,4,005,123.819070115,1C,auditory,2017_Oct_31_0958,
du.wav,0,1,1,4,R,,,,,0,3,3,3,,,4,0.316942444537,da,4,005,123.819070115,1C,auditory,2017_Oct_31_0958,
ba.wav,0,2,1,5,R,,,,,0,4,4,4,,,None,,da,4,005,123.819070115,1C,auditory,2017_Oct_31_0958,
ta.wav,0,3,1,6,R,,,,,0,5,5,5,,,None,,da,4,005,123.819070115,1C,auditory,2017_Oct_31_0958,
ti.wav,0,1,1,7,R,,,,,0,6,6,6,,,None,,da,4,005,123.819070115,1C,auditory,2017_Oct_31_0958,
pi.wav,0,2,1,8,R,,,,,0,7,7,7,,,None,,da,4,005,123.819070115,1C,auditory,2017_Oct_31_0958,
bu.wav,0,3,1,9,R,,,,,0,8,8,8,,,None,,da,4,005,123.819070115,1C,auditory,2017_Oct_31_0958,
ta.wav,0,1,1,10,R,,,,,0,9,9,9,,,None,,da,4,005,123.819070115,1C,auditory,2017_Oct_31_0958,
di.wav,0,2,1,11,R,,,,,0,10,10,10,,,None,,da,4,005,123.819070115,1C,auditory,2017_Oct_31_0958,
pi.wav,0,3,1,12,R,,,,,0,11,11,11,,,None,,da,4,005,123.819070115,1C,auditory,2017_Oct_31_0958,
du.wav,0,1,1,13,R,,,,,0,12,12,12,,,None,,da,4,005,123.819070115,1C,auditory,2017_Oct_31_0958,
tu.wav,0,2,1,14,R,,,,,0,13,13,13,,,None,,da,4,005,123.819070115,1C,auditory,2017_Oct_31_0958,
ti.wav,0,3,1,15,R,,,,,0,14,14,14,,,None,,da,4,005,123.819070115,1C,auditory,2017_Oct_31_0958,
tu.wav,0,1,1,16,R,,,,,0,15,15,15,,,None,,da,4,005,123.819070115,1C,auditory,2017_Oct_31_0958,
bi.wav,0,2,1,17,R,,,,,0,16,16,16,,,None,,da,4,005,123.819070115,1C,auditory,2017_Oct_31_0958,
pu.wav,0,3,1,18,R,,,,,0,17,17,17,,,None,,da,4,005,123.819070115,1C,auditory,2017_Oct_31_0958,
tu.wav,0,1,1,19,R,,,,,0,18,18,18,,,None,,da,4,005,123.819070115,1C,auditory,2017_Oct_31_0958,
ba.wav,0,2,1,20,R,,,,,0,19,19,19,,,None,,da,4,005,123.819070115,1C,auditory,2017_Oct_31_0958,
di.wav,0,3,1,21,R,,,,,0,20,20,20,,,None,,da,4,005,123.819070115,1C,auditory,2017_Oct_31_0958,
pa.wav,0,1,1,22,R,,,,,0,21,21,21,,,None,,da,4,005,123.819070115,1C,auditory,2017_Oct_31_0958,
pu.wav,0,2,1,23,R,,,,,0,22,22,22,,,None,,da,4,005,123.819070115,1C,auditory,2017_Oct_31_0958,
bi.wav,0,3,1,24,R,,,,,0,23,23,23,,,None,,da,4,005,123.819070115,1C,auditory,2017_Oct_31_0958,
2A.wav,4,1,2,25,S,0,0,0,0,,,,,None,,,,da,4,005,123.819070115,1C,auditory,2017_Oct_31_0958,
2B.wav,4,2,2,26,S,0,1,1,1,,,,,None,,,,da,4,005,123.819070115,1C,auditory,2017_Oct_31_0958,
2C.wav,4,3,2,27,S,0,2,2,2,,,,,4,0.300271473359,,,da,4,005,123.819070115,1C,auditory,2017_Oct_31_0958,
1A.wav,2,1,3,28,S,0,3,3,3,,,,,None,,,,da,4,005,123.819070115,1C,auditory,2017_Oct_31_0958,
1B.wav,2,2,3,29,S,0,4,4,4,,,,,None,,,,da,4,005,123.819070115,1C,auditory,2017_Oct_31_0958,
1C.wav,2,3,3,30,S,0,5,5,5,,,,,None,,,,da,4,005,123.819070115,1C,auditory,2017_Oct_31_0958,
2A.wav,4,1,3,31,S,0,6,6,6,,,,,4,0.116894771578,,,da,4,005,123.819070115,1C,auditory,2017_Oct_31_0958,
2B.wav,4,2,3,32,S,0,7,7,7,,,,,None,,,,da,4,005,123.819070115,1C,auditory,2017_Oct_31_0958,
2C.wav,4,3,3,33,S,0,8,8,8,,,,,4,0.333577006822,,,da,4,005,123.819070115,1C,auditory,2017_Oct_31_0958,
4A.wav,3,1,3,34,S,0,9,9,9,,,,,None,,,,da,4,005,123.819070115,1C,auditory,2017_Oct_31_0958,
4B.wav,3,2,3,35,S,0,10,10,10,,,,,None,,,,da,4,005,123.819070115,1C,auditory,2017_Oct_31_0958,
4C.wav,3,3,3,36,S,0,11,11,11,,,,,None,,,,da,4,005,123.819070115,1C,auditory,2017_Oct_31_0958,
3A.wav,1,1,4,37,S,0,12,12,12,,,,,None,,,,da,4,005,123.819070115,1C,auditory,2017_Oct_31_0958,
3B.wav,1,2,4,38,S,0,13,13,13,,,,,4,0.133574845036,,,da,4,005,123.819070115,1C,auditory,2017_Oct_31_0958,
3C.wav,1,3,4,39,S,0,14,14,14,,,,,None,,,,da,4,005,123.819070115,1C,auditory,2017_Oct_31_0958,
4A.wav,3,1,4,40,S,0,15,15,15,,,,,None,,,,da,4,005,123.819070115,1C,auditory,2017_Oct_31_0958,
4B.wav,3,2,4,41,S,0,16,16,16,,,,,None,,,,da,4,005,123.819070115,1C,auditory,2017_Oct_31_0958,
4C.wav,3,3,4,42,S,0,17,17,17,,,,,None,,,,da,4,005,123.819070115,1C,auditory,2017_Oct_31_0958,
3A.wav,1,1,5,43,S,0,18,18,18,,,,,None,,,,da,4,005,123.819070115,1C,auditory,2017_Oct_31_0958,
3B.wav,1,2,5,44,S,0,19,19,19,,,,,4,0.116877136054,,,da,4,005,123.819070115,1C,auditory,2017_Oct_31_0958,
3C.wav,1,3,5,45,S,0,20,20,20,,,,,4,0.00842209882103,,,da,4,005,123.819070115,1C,auditory,2017_Oct_31_0958,
2A.wav,4,1,4,46,S,0,21,21,21,,,,,None,,,,da,4,005,123.819070115,1C,auditory,2017_Oct_31_0958,
2B.wav,4,2,4,47,S,0,22,22,22,,,,,None,,,,da,4,005,123.819070115,1C,auditory,2017_Oct_31_0958,
2C.wav,4,3,4,48,S,0,23,23,23,,,,,None,,,,da,4,005,123.819070115,1C,auditory,2017_Oct_31_0958,
silence.wav,0,0,0,0,B,0,24,24,24,,,,,None,,,,da,4,005,123.819070115,1C,auditory,2017_Oct_31_0958,
silence.wav,0,0,0,0,B,0,25,25,25,,,,,None,,,,da,4,005,123.819070115,1C,auditory,2017_Oct_31_0958,
silence.wav,0,0,0,0,B,0,26,26,26,,,,,None,,,,da,4,005,123.819070115,1C,auditory,2017_Oct_31_0958,
silence.wav,0,0,0,0,B,0,27,27,27,,,,,None,,,,da,4,005,123.819070115,1C,auditory,2017_Oct_31_0958,
silence.wav,0,0,0,0,B,0,28,28,28,,,,,None,,,,da,4,005,123.819070115,1C,auditory,2017_Oct_31_0958,
silence.wav,0,0,0,0,B,0,29,29,29,,,,,None,,,,da,4,005,123.819070115,1C,auditory,2017_Oct_31_0958,
silence.wav,0,0,0,0,B,0,30,30,30,,,,,None,,,,da,4,005,123.819070115,1C,auditory,2017_Oct_31_0958,
silence.wav,0,0,0,0,B,0,31,31,31,,,,,None,,,,da,4,005,123.819070115,1C,auditory,2017_Oct_31_0958,
silence.wav,0,0,0,0,B,0,32,32,32,,,,,None,,,,da,4,005,123.819070115,1C,auditory,2017_Oct_31_0958,
silence.wav,0,0,0,0,B,0,33,33,33,,,,,4,0.000236372696236,,,da,4,005,123.819070115,1C,auditory,2017_Oct_31_0958,
silence.wav,0,0,0,0,B,0,34,34,34,,,,,None,,,,da,4,005,123.819070115,1C,auditory,2017_Oct_31_0958,
silence.wav,0,0,0,0,B,0,35,35,35,,,,,None,,,,da,4,005,123.819070115,1C,auditory,2017_Oct_31_0958,
1A.wav,2,1,4,49,S,0,36,36,36,,,,,None,,,,da,4,005,123.819070115,1C,auditory,2017_Oct_31_0958,
1B.wav,2,2,4,50,S,0,37,37,37,,,,,None,,,,da,4,005,123.819070115,1C,auditory,2017_Oct_31_0958,
1C.wav,2,3,4,51,S,0,38,38,38,,,,,None,,,,da,4,005,123.819070115,1C,auditory,2017_Oct_31_0958,
4A.wav,3,1,5,52,S,0,39,39,39,,,,,None,,,,da,4,005,123.819070115,1C,auditory,2017_Oct_31_0958,
4B.wav,3,2,5,53,S,0,40,40,40,,,,,None,,,,da,4,005,123.819070115,1C,auditory,2017_Oct_31_0958,
4C.wav,3,3,5,54,S,0,41,41,41,,,,,4,0.0168564287014,,,da,4,005,123.819070115,1C,auditory,2017_Oct_31_0958,
3A.wav,1,1,6,55,S,0,42,42,42,,,,,None,,,,da,4,005,123.819070115,1C,auditory,2017_Oct_31_0958,
3B.wav,1,2,6,56,S,0,43,43,43,,,,,4,0.150186083047,,,da,4,005,123.819070115,1C,auditory,2017_Oct_31_0958,
3C.wav,1,3,6,57,S,0,44,44,44,,,,,None,,,,da,4,005,123.819070115,1C,auditory,2017_Oct_31_0958,
2A.wav,4,1,5,58,S,0,45,45,45,,,,,None,,,,da,4,005,123.819070115,1C,auditory,2017_Oct_31_0958,
2B.wav,4,2,5,59,S,0,46,46,46,,,,,4,0.0502231179271,,,da,4,005,123.819070115,1C,auditory,2017_Oct_31_0958,
2C.wav,4,3,5,60,S,0,47,47,47,,,,,None,,,,da,4,005,123.819070115,1C,auditory,2017_Oct_31_0958,
1A.wav,2,1,5,61,S,0,48,48,48,,,,,None,,,,da,4,005,123.819070115,1C,auditory,2017_Oct_31_0958,
1B.wav,2,2,5,62,S,0,49,49,49,,,,,None,,,,da,4,005,123.819070115,1C,auditory,2017_Oct_31_0958,
1C.wav,2,3,5,63,S,0,50,50,50,,,,,None,,,,da,4,005,123.819070115,1C,auditory,2017_Oct_31_0958,
2A.wav,4,1,6,64,S,0,51,51,51,,,,,4,0.125258275075,,,da,4,005,123.819070115,1C,auditory,2017_Oct_31_0958,
2B.wav,4,2,6,65,S,0,52,52,52,,,,,None,,,,da,4,005,123.819070115,1C,auditory,2017_Oct_31_0958,
2C.wav,4,3,6,66,S,0,53,53,53,,,,,None,,,,da,4,005,123.819070115,1C,auditory,2017_Oct_31_0958,
3A.wav,1,1,7,67,S,0,54,54,54,,,,,None,,,,da,4,005,123.819070115,1C,auditory,2017_Oct_31_0958,
3B.wav,1,2,7,68,S,0,55,55,55,,,,,4,0.175237339921,,,da,4,005,123.819070115,1C,auditory,2017_Oct_31_0958,
3C.wav,1,3,7,69,S,0,56,56,56,,,,,None,,,,da,4,005,123.819070115,1C,auditory,2017_Oct_31_0958,
4A.wav,3,1,6,70,S,0,57,57,57,,,,,None,,,,da,4,005,123.819070115,1C,auditory,2017_Oct_31_0958,
4B.wav,3,2,6,71,S,0,58,58,58,,,,,None,,,,da,4,005,123.819070115,1C,auditory,2017_Oct_31_0958,
4C.wav,3,3,6,72,S,0,59,59,59,,,,,None,,,,da,4,005,123.819070115,1C,auditory,2017_Oct_31_0958,
bi.wav,0,1,1,25,R,,,,,0,0,0,0,,,4,0.0218390319496,da,4,005,123.819070115,1C,auditory,2017_Oct_31_0958,
bu.wav,0,2,1,26,R,,,,,0,1,1,1,,,None,,da,4,005,123.819070115,1C,auditory,2017_Oct_31_0958,
pu.wav,0,3,1,27,R,,,,,0,2,2,2,,,None,,da,4,005,123.819070115,1C,auditory,2017_Oct_31_0958,
pi.wav,0,1,1,28,R,,,,,0,3,3,3,,,None,,da,4,005,123.819070115,1C,auditory,2017_Oct_31_0958,
ti.wav,0,2,1,29,R,,,,,0,4,4,4,,,None,,da,4,005,123.819070115,1C,auditory,2017_Oct_31_0958,
ta.wav,0,3,1,30,R,,,,,0,5,5,5,,,None,,da,4,005,123.819070115,1C,auditory,2017_Oct_31_0958,
tu.wav,0,1,1,31,R,,,,,0,6,6,6,,,None,,da,4,005,123.819070115,1C,auditory,2017_Oct_31_0958,
pi.wav,0,2,1,32,R,,,,,0,7,7,7,,,None,,da,4,005,123.819070115,1C,auditory,2017_Oct_31_0958,
ta.wav,0,3,1,33,R,,,,,0,8,8,8,,,None,,da,4,005,123.819070115,1C,auditory,2017_Oct_31_0958,
du.wav,0,1,1,34,R,,,,,0,9,9,9,,,None,,da,4,005,123.819070115,1C,auditory,2017_Oct_31_0958,
tu.wav,0,2,1,35,R,,,,,0,10,10,10,,,None,,da,4,005,123.819070115,1C,auditory,2017_Oct_31_0958,
bu.wav,0,3,1,36,R,,,,,0,11,11,11,,,None,,da,4,005,123.819070115,1C,auditory,2017_Oct_31_0958,
di.wav,0,1,1,37,R,,,,,0,12,12,12,,,None,,da,4,005,123.819070115,1C,auditory,2017_Oct_31_0958,
da.wav,0,2,1,38,R,,,,,0,13,13,13,,,None,,da,4,005,123.819070115,1C,auditory,2017_Oct_31_0958,
pa.wav,0,3,1,39,R,,,,,0,14,14,14,,,4,0.200211512391,da,4,005,123.819070115,1C,auditory,2017_Oct_31_0958,
pa.wav,0,1,1,40,R,,,,,0,15,15,15,,,None,,da,4,005,123.819070115,1C,auditory,2017_Oct_31_0958,
da.wav,0,2,1,41,R,,,,,0,16,16,16,,,None,,da,4,005,123.819070115,1C,auditory,2017_Oct_31_0958,
ba.wav,0,3,1,42,R,,,,,0,17,17,17,,,4,0.30019808677,da,4,005,123.819070115,1C,auditory,2017_Oct_31_0958,
pa.wav,0,1,1,43,R,,,,,0,18,18,18,,,None,,da,4,005,123.819070115,1C,auditory,2017_Oct_31_0958,
ti.wav,0,2,1,44,R,,,,,0,19,19,19,,,None,,da,4,005,123.819070115,1C,auditory,2017_Oct_31_0958,
bu.wav,0,3,1,45,R,,,,,0,20,20,20,,,None,,da,4,005,123.819070115,1C,auditory,2017_Oct_31_0958,
bi.wav,0,1,1,46,R,,,,,0,21,21,21,,,None,,da,4,005,123.819070115,1C,auditory,2017_Oct_31_0958,
du.wav,0,2,1,47,R,,,,,0,22,22,22,,,None,,da,4,005,123.819070115,1C,auditory,2017_Oct_31_0958,
da.wav,0,3,1,48,R,,,,,0,23,23,23,,,None,,da,4,005,123.819070115,1C,auditory,2017_Oct_31_0958,
silence.wav,0,0,0,0,B,,,,,0,24,24,24,,,4,0.158646013122,da,4,005,123.819070115,1C,auditory,2017_Oct_31_0958,
silence.wav,0,0,0,0,B,,,,,0,25,25,25,,,None,,da,4,005,123.819070115,1C,auditory,2017_Oct_31_0958,
silence.wav,0,0,0,0,B,,,,,0,26,26,26,,,None,,da,4,005,123.819070115,1C,auditory,2017_Oct_31_0958,
silence.wav,0,0,0,0,B,,,,,0,27,27,27,,,None,,da,4,005,123.819070115,1C,auditory,2017_Oct_31_0958,
silence.wav,0,0,0,0,B,,,,,0,28,28,28,,,None,,da,4,005,123.819070115,1C,auditory,2017_Oct_31_0958,
silence.wav,0,0,0,0,B,,,,,0,29,29,29,,,None,,da,4,005,123.819070115,1C,auditory,2017_Oct_31_0958,
silence.wav,0,0,0,0,B,,,,,0,30,30,30,,,None,,da,4,005,123.819070115,1C,auditory,2017_Oct_31_0958,
silence.wav,0,0,0,0,B,,,,,0,31,31,31,,,None,,da,4,005,123.819070115,1C,auditory,2017_Oct_31_0958,
silence.wav,0,0,0,0,B,,,,,0,32,32,32,,,None,,da,4,005,123.819070115,1C,auditory,2017_Oct_31_0958,
silence.wav,0,0,0,0,B,,,,,0,33,33,33,,,None,,da,4,005,123.819070115,1C,auditory,2017_Oct_31_0958,
silence.wav,0,0,0,0,B,,,,,0,34,34,34,,,None,,da,4,005,123.819070115,1C,auditory,2017_Oct_31_0958,
silence.wav,0,0,0,0,B,,,,,0,35,35,35,,,None,,da,4,005,123.819070115,1C,auditory,2017_Oct_31_0958,
pu.wav,0,1,1,49,R,,,,,0,36,36,36,,,None,,da,4,005,123.819070115,1C,auditory,2017_Oct_31_0958,
ba.wav,0,2,1,50,R,,,,,0,37,37,37,,,None,,da,4,005,123.819070115,1C,auditory,2017_Oct_31_0958,
du.wav,0,3,1,51,R,,,,,0,38,38,38,,,None,,da,4,005,123.819070115,1C,auditory,2017_Oct_31_0958,
ta.wav,0,1,1,52,R,,,,,0,39,39,39,,,None,,da,4,005,123.819070115,1C,auditory,2017_Oct_31_0958,
ba.wav,0,2,1,53,R,,,,,0,40,40,40,,,None,,da,4,005,123.819070115,1C,auditory,2017_Oct_31_0958,
ta.wav,0,3,1,54,R,,,,,0,41,41,41,,,None,,da,4,005,123.819070115,1C,auditory,2017_Oct_31_0958,
bu.wav,0,1,1,55,R,,,,,0,42,42,42,,,None,,da,4,005,123.819070115,1C,auditory,2017_Oct_31_0958,
da.wav,0,2,1,56,R,,,,,0,43,43,43,,,None,,da,4,005,123.819070115,1C,auditory,2017_Oct_31_0958,
pa.wav,0,3,1,57,R,,,,,0,44,44,44,,,4,0.258579964982,da,4,005,123.819070115,1C,auditory,2017_Oct_31_0958,
bi.wav,0,1,1,58,R,,,,,0,45,45,45,,,None,,da,4,005,123.819070115,1C,auditory,2017_Oct_31_0958,
ti.wav,0,2,1,59,R,,,,,0,46,46,46,,,None,,da,4,005,123.819070115,1C,auditory,2017_Oct_31_0958,
pa.wav,0,3,1,60,R,,,,,0,47,47,47,,,None,,da,4,005,123.819070115,1C,auditory,2017_Oct_31_0958,
du.wav,0,1,1,61,R,,,,,0,48,48,48,,,None,,da,4,005,123.819070115,1C,auditory,2017_Oct_31_0958,
tu.wav,0,2,1,62,R,,,,,0,49,49,49,,,None,,da,4,005,123.819070115,1C,auditory,2017_Oct_31_0958,
di.wav,0,3,1,63,R,,,,,0,50,50,50,,,None,,da,4,005,123.819070115,1C,auditory,2017_Oct_31_0958,
bu.wav,0,1,1,64,R,,,,,0,51,51,51,,,None,,da,4,005,123.819070115,1C,auditory,2017_Oct_31_0958,
bi.wav,0,2,1,65,R,,,,,0,52,52,52,,,None,,da,4,005,123.819070115,1C,auditory,2017_Oct_31_0958,
tu.wav,0,3,1,66,R,,,,,0,53,53,53,,,None,,da,4,005,123.819070115,1C,auditory,2017_Oct_31_0958,
pu.wav,0,1,1,67,R,,,,,0,54,54,54,,,None,,da,4,005,123.819070115,1C,auditory,2017_Oct_31_0958,
ti.wav,0,2,1,68,R,,,,,0,55,55,55,,,None,,da,4,005,123.819070115,1C,auditory,2017_Oct_31_0958,
pi.wav,0,3,1,69,R,,,,,0,56,56,56,,,None,,da,4,005,123.819070115,1C,auditory,2017_Oct_31_0958,
di.wav,0,1,1,70,R,,,,,0,57,57,57,,,None,,da,4,005,123.819070115,1C,auditory,2017_Oct_31_0958,
da.wav,0,2,1,71,R,,,,,0,58,58,58,,,None,,da,4,005,123.819070115,1C,auditory,2017_Oct_31_0958,
pi.wav,0,3,1,72,R,,,,,0,59,59,59,,,4,0.225247978,da,4,005,123.819070115,1C,auditory,2017_Oct_31_0958,
1A.wav,2,1,6,73,S,0,0,0,0,,,,,None,,,,da,4,005,123.819070115,1C,auditory,2017_Oct_31_0958,
1B.wav,2,2,6,74,S,0,1,1,1,,,,,None,,,,da,4,005,123.819070115,1C,auditory,2017_Oct_31_0958,
1C.wav,2,3,6,75,S,0,2,2,2,,,,,None,,,,da,4,005,123.819070115,1C,auditory,2017_Oct_31_0958,
3A.wav,1,1,8,76,S,0,3,3,3,,,,,4,0.308586336672,,,da,4,005,123.819070115,1C,auditory,2017_Oct_31_0958,
3B.wav,1,2,8,77,S,0,4,4,4,,,,,None,,,,da,4,005,123.819070115,1C,auditory,2017_Oct_31_0958,
3C.wav,1,3,8,78,S,0,5,5,5,,,,,None,,,,da,4,005,123.819070115,1C,auditory,2017_Oct_31_0958,
2A.wav,4,1,7,79,S,0,6,6,6,,,,,4,0.341984030092,,,da,4,005,123.819070115,1C,auditory,2017_Oct_31_0958,
2B.wav,4,2,7,80,S,0,7,7,7,,,,,None,,,,da,4,005,123.819070115,1C,auditory,2017_Oct_31_0958,
2C.wav,4,3,7,81,S,0,8,8,8,,,,,None,,,,da,4,005,123.819070115,1C,auditory,2017_Oct_31_0958,
4A.wav,3,1,7,82,S,0,9,9,9,,,,,None,,,,da,4,005,123.819070115,1C,auditory,2017_Oct_31_0958,
4B.wav,3,2,7,83,S,0,10,10,10,,,,,None,,,,da,4,005,123.819070115,1C,auditory,2017_Oct_31_0958,
4C.wav,3,3,7,84,S,0,11,11,11,,,,,4,0.358474095119,,,da,4,005,123.819070115,1C,auditory,2017_Oct_31_0958,
1A.wav,2,1,7,85,S,0,12,12,12,,,,,None,,,,da,4,005,123.819070115,1C,auditory,2017_Oct_31_0958,
1B.wav,2,2,7,86,S,0,13,13,13,,,,,None,,,,da,4,005,123.819070115,1C,auditory,2017_Oct_31_0958,
1C.wav,2,3,7,87,S,0,14,14,14,,,,,None,,,,da,4,005,123.819070115,1C,auditory,2017_Oct_31_0958,
2A.wav,4,1,8,88,S,0,15,15,15,,,,,4,0.325286321342,,,da,4,005,123.819070115,1C,auditory,2017_Oct_31_0958,
2B.wav,4,2,8,89,S,0,16,16,16,,,,,None,,,,da,4,005,123.819070115,1C,auditory,2017_Oct_31_0958,
2C.wav,4,3,8,90,S,0,17,17,17,,,,,None,,,,da,4,005,123.819070115,1C,auditory,2017_Oct_31_0958,
3A.wav,1,1,9,91,S,0,18,18,18,,,,,None,,,,da,4,005,123.819070115,1C,auditory,2017_Oct_31_0958,
3B.wav,1,2,9,92,S,0,19,19,19,,,,,None,,,,da,4,005,123.819070115,1C,auditory,2017_Oct_31_0958,
3C.wav,1,3,9,93,S,0,20,20,20,,,,,None,,,,da,4,005,123.819070115,1C,auditory,2017_Oct_31_0958,
4A.wav,3,1,8,94,S,0,21,21,21,,,,,None,,,,da,4,005,123.819070115,1C,auditory,2017_Oct_31_0958,
4B.wav,3,2,8,95,S,0,22,22,22,,,,,None,,,,da,4,005,123.819070115,1C,auditory,2017_Oct_31_0958,
4C.wav,3,3,8,96,S,0,23,23,23,,,,,None,,,,da,4,005,123.819070115,1C,auditory,2017_Oct_31_0958,
silence.wav,0,0,0,0,B,0,24,24,24,,,,,None,,,,da,4,005,123.819070115,1C,auditory,2017_Oct_31_0958,
silence.wav,0,0,0,0,B,0,25,25,25,,,,,None,,,,da,4,005,123.819070115,1C,auditory,2017_Oct_31_0958,
silence.wav,0,0,0,0,B,0,26,26,26,,,,,None,,,,da,4,005,123.819070115,1C,auditory,2017_Oct_31_0958,
silence.wav,0,0,0,0,B,0,27,27,27,,,,,None,,,,da,4,005,123.819070115,1C,auditory,2017_Oct_31_0958,
silence.wav,0,0,0,0,B,0,28,28,28,,,,,None,,,,da,4,005,123.819070115,1C,auditory,2017_Oct_31_0958,
silence.wav,0,0,0,0,B,0,29,29,29,,,,,None,,,,da,4,005,123.819070115,1C,auditory,2017_Oct_31_0958,
silence.wav,0,0,0,0,B,0,30,30,30,,,,,None,,,,da,4,005,123.819070115,1C,auditory,2017_Oct_31_0958,
silence.wav,0,0,0,0,B,0,31,31,31,,,,,None,,,,da,4,005,123.819070115,1C,auditory,2017_Oct_31_0958,
silence.wav,0,0,0,0,B,0,32,32,32,,,,,None,,,,da,4,005,123.819070115,1C,auditory,2017_Oct_31_0958,
silence.wav,0,0,0,0,B,0,33,33,33,,,,,None,,,,da,4,005,123.819070115,1C,auditory,2017_Oct_31_0958,
silence.wav,0,0,0,0,B,0,34,34,34,,,,,None,,,,da,4,005,123.819070115,1C,auditory,2017_Oct_31_0958,
silence.wav,0,0,0,0,B,0,35,35,35,,,,,None,,,,da,4,005,123.819070115,1C,auditory,2017_Oct_31_0958,
bu.wav,0,1,1,73,R,,,,,0,0,0,0,,,None,,da,4,005,123.819070115,1C,auditory,2017_Oct_31_0958,
pi.wav,0,2,1,74,R,,,,,0,1,1,1,,,None,,da,4,005,123.819070115,1C,auditory,2017_Oct_31_0958,
ba.wav,0,3,1,75,R,,,,,0,2,2,2,,,None,,da,4,005,123.819070115,1C,auditory,2017_Oct_31_0958,
ti.wav,0,1,1,76,R,,,,,0,3,3,3,,,None,,da,4,005,123.819070115,1C,auditory,2017_Oct_31_0958,
ba.wav,0,2,1,77,R,,,,,0,4,4,4,,,None,,da,4,005,123.819070115,1C,auditory,2017_Oct_31_0958,
di.wav,0,3,1,78,R,,,,,0,5,5,5,,,None,,da,4,005,123.819070115,1C,auditory,2017_Oct_31_0958,
tu.wav,0,1,1,79,R,,,,,0,6,6,6,,,None,,da,4,005,123.819070115,1C,auditory,2017_Oct_31_0958,
ta.wav,0,2,1,80,R,,,,,0,7,7,7,,,None,,da,4,005,123.819070115,1C,auditory,2017_Oct_31_0958,
bu.wav,0,3,1,81,R,,,,,0,8,8,8,,,None,,da,4,005,123.819070115,1C,auditory,2017_Oct_31_0958,
du.wav,0,1,1,82,R,,,,,0,9,9,9,,,None,,da,4,005,123.819070115,1C,auditory,2017_Oct_31_0958,
bi.wav,0,2,1,83,R,,,,,0,10,10,10,,,None,,da,4,005,123.819070115,1C,auditory,2017_Oct_31_0958,
pi.wav,0,3,1,84,R,,,,,0,11,11,11,,,None,,da,4,005,123.819070115,1C,auditory,2017_Oct_31_0958,
du.wav,0,1,1,85,R,,,,,0,12,12,12,,,None,,da,4,005,123.819070115,1C,auditory,2017_Oct_31_0958,
pu.wav,0,2,1,86,R,,,,,0,13,13,13,,,None,,da,4,005,123.819070115,1C,auditory,2017_Oct_31_0958,
ta.wav,0,3,1,87,R,,,,,0,14,14,14,,,None,,da,4,005,123.819070115,1C,auditory,2017_Oct_31_0958,
da.wav,0,1,1,88,R,,,,,0,15,15,15,,,None,,da,4,005,123.819070115,1C,auditory,2017_Oct_31_0958,
pu.wav,0,2,1,89,R,,,,,0,16,16,16,,,4,0.225319942459,da,4,005,123.819070115,1C,auditory,2017_Oct_31_0958,
ti.wav,0,3,1,90,R,,,,,0,17,17,17,,,None,,da,4,005,123.819070115,1C,auditory,2017_Oct_31_0958,
pa.wav,0,1,1,91,R,,,,,0,18,18,18,,,None,,da,4,005,123.819070115,1C,auditory,2017_Oct_31_0958,
pa.wav,0,2,1,92,R,,,,,0,19,19,19,,,None,,da,4,005,123.819070115,1C,auditory,2017_Oct_31_0958,
bi.wav,0,3,1,93,R,,,,,0,20,20,20,,,None,,da,4,005,123.819070115,1C,auditory,2017_Oct_31_0958,
tu.wav,0,1,1,94,R,,,,,0,21,21,21,,,None,,da,4,005,123.819070115,1C,auditory,2017_Oct_31_0958,
di.wav,0,2,1,95,R,,,,,0,22,22,22,,,None,,da,4,005,123.819070115,1C,auditory,2017_Oct_31_0958,
da.wav,0,3,1,96,R,,,,,0,23,23,23,,,None,,da,4,005,123.819070115,1C,auditory,2017_Oct_31_0958,
3A.wav,1,1,10,97,S,0,0,0,0,,,,,None,,,,da,4,005,123.819070115,1C,auditory,2017_Oct_31_0958,
3B.wav,1,2,10,98,S,0,1,1,1,,,,,None,,,,da,4,005,123.819070115,1C,auditory,2017_Oct_31_0958,
3C.wav,1,3,10,99,S,0,2,2,2,,,,,None,,,,da,4,005,123.819070115,1C,auditory,2017_Oct_31_0958,
1A.wav,2,1,8,100,S,0,3,3,3,,,,,4,0.42526777531,,,da,4,005,123.819070115,1C,auditory,2017_Oct_31_0958,
1B.wav,2,2,8,101,S,0,4,4,4,,,,,None,,,,da,4,005,123.819070115,1C,auditory,2017_Oct_31_0958,
1C.wav,2,3,8,102,S,0,5,5,5,,,,,None,,,,da,4,005,123.819070115,1C,auditory,2017_Oct_31_0958,
2A.wav,4,1,9,103,S,0,6,6,6,,,,,None,,,,da,4,005,123.819070115,1C,auditory,2017_Oct_31_0958,
2B.wav,4,2,9,104,S,0,7,7,7,,,,,None,,,,da,4,005,123.819070115,1C,auditory,2017_Oct_31_0958,
2C.wav,4,3,9,105,S,0,8,8,8,,,,,None,,,,da,4,005,123.819070115,1C,auditory,2017_Oct_31_0958,
4A.wav,3,1,9,106,S,0,9,9,9,,,,,4,0.0918611504603,,,da,4,005,123.819070115,1C,auditory,2017_Oct_31_0958,
4B.wav,3,2,9,107,S,0,10,10,10,,,,,None,,,,da,4,005,123.819070115,1C,auditory,2017_Oct_31_0958,
4C.wav,3,3,9,108,S,0,11,11,11,,,,,None,,,,da,4,005,123.819070115,1C,auditory,2017_Oct_31_0958,
1A.wav,2,1,9,109,S,0,12,12,12,,,,,None,,,,da,4,005,123.819070115,1C,auditory,2017_Oct_31_0958,
1B.wav,2,2,9,110,S,0,13,13,13,,,,,None,,,,da,4,005,123.819070115,1C,auditory,2017_Oct_31_0958,
1C.wav,2,3,9,111,S,0,14,14,14,,,,,None,,,,da,4,005,123.819070115,1C,auditory,2017_Oct_31_0958,
3A.wav,1,1,11,112,S,0,15,15,15,,,,,None,,,,da,4,005,123.819070115,1C,auditory,2017_Oct_31_0958,
3B.wav,1,2,11,113,S,0,16,16,16,,,,,None,,,,da,4,005,123.819070115,1C,auditory,2017_Oct_31_0958,
3C.wav,1,3,11,114,S,0,17,17,17,,,,,4,0.418543806532,,,da,4,005,123.819070115,1C,auditory,2017_Oct_31_0958,
4A.wav,3,1,10,115,S,0,18,18,18,,,,,None,,,,da,4,005,123.819070115,1C,auditory,2017_Oct_31_0958,
4B.wav,3,2,10,116,S,0,19,19,19,,,,,None,,,,da,4,005,123.819070115,1C,auditory,2017_Oct_31_0958,
4C.wav,3,3,10,117,S,0,20,20,20,,,,,None,,,,da,4,005,123.819070115,1C,auditory,2017_Oct_31_0958,
2A.wav,4,1,10,118,S,0,21,21,21,,,,,None,,,,da,4,005,123.819070115,1C,auditory,2017_Oct_31_0958,
2B.wav,4,2,10,119,S,0,22,22,22,,,,,None,,,,da,4,005,123.819070115,1C,auditory,2017_Oct_31_0958,
2C.wav,4,3,10,120,S,0,23,23,23,,,,,None,,,,da,4,005,123.819070115,1C,auditory,2017_Oct_31_0958,
ba.wav,0,1,1,97,R,,,,,0,0,0,0,,,None,,da,4,005,123.819070115,1C,auditory,2017_Oct_31_0958,
bu.wav,0,2,1,98,R,,,,,0,1,1,1,,,None,,da,4,005,123.819070115,1C,auditory,2017_Oct_31_0958,
tu.wav,0,3,1,99,R,,,,,0,2,2,2,,,None,,da,4,005,123.819070115,1C,auditory,2017_Oct_31_0958,
du.wav,0,1,1,100,R,,,,,0,3,3,3,,,None,,da,4,005,123.819070115,1C,auditory,2017_Oct_31_0958,
bu.wav,0,2,1,101,R,,,,,0,4,4,4,,,None,,da,4,005,123.819070115,1C,auditory,2017_Oct_31_0958,
di.wav,0,3,1,102,R,,,,,0,5,5,5,,,None,,da,4,005,123.819070115,1C,auditory,2017_Oct_31_0958,
ti.wav,0,1,1,103,R,,,,,0,6,6,6,,,None,,da,4,005,123.819070115,1C,auditory,2017_Oct_31_0958,
di.wav,0,2,1,104,R,,,,,0,7,7,7,,,None,,da,4,005,123.819070115,1C,auditory,2017_Oct_31_0958,
da.wav,0,3,1,105,R,,,,,0,8,8,8,,,None,,da,4,005,123.819070115,1C,auditory,2017_Oct_31_0958,
da.wav,0,1,1,106,R,,,,,0,9,9,9,,,4,0.241929189302,da,4,005,123.819070115,1C,auditory,2017_Oct_31_0958,
pi.wav,0,2,1,107,R,,,,,0,10,10,10,,,4,0.391946028452,da,4,005,123.819070115,1C,auditory,2017_Oct_31_0958,
tu.wav,0,3,1,108,R,,,,,0,11,11,11,,,None,,da,4,005,123.819070115,1C,auditory,2017_Oct_31_0958,
pa.wav,0,1,1,109,R,,,,,0,12,12,12,,,None,,da,4,005,123.819070115,1C,auditory,2017_Oct_31_0958,
ta.wav,0,2,1,110,R,,,,,0,13,13,13,,,None,,da,4,005,123.819070115,1C,auditory,2017_Oct_31_0958,
ba.wav,0,3,1,111,R,,,,,0,14,14,14,,,None,,da,4,005,123.819070115,1C,auditory,2017_Oct_31_0958,
pu.wav,0,1,1,112,R,,,,,0,15,15,15,,,None,,da,4,005,123.819070115,1C,auditory,2017_Oct_31_0958,
bi.wav,0,2,1,113,R,,,,,0,16,16,16,,,None,,da,4,005,123.819070115,1C,auditory,2017_Oct_31_0958,
ti.wav,0,3,1,114,R,,,,,0,17,17,17,,,None,,da,4,005,123.819070115,1C,auditory,2017_Oct_31_0958,
pi.wav,0,1,1,115,R,,,,,0,18,18,18,,,None,,da,4,005,123.819070115,1C,auditory,2017_Oct_31_0958,
du.wav,0,2,1,116,R,,,,,0,19,19,19,,,None,,da,4,005,123.819070115,1C,auditory,2017_Oct_31_0958,
ta.wav,0,3,1,117,R,,,,,0,20,20,20,,,None,,da,4,005,123.819070115,1C,auditory,2017_Oct_31_0958,
pa.wav,0,1,1,118,R,,,,,0,21,21,21,,,None,,da,4,005,123.819070115,1C,auditory,2017_Oct_31_0958,
pu.wav,0,2,1,119,R,,,,,0,22,22,22,,,None,,da,4,005,123.819070115,1C,auditory,2017_Oct_31_0958,
bi.wav,0,3,1,120,R,,,,,0,23,23,23,,,None,,da,4,005,123.819070115,1C,auditory,2017_Oct_31_0958,
silence.wav,0,0,0,0,B,,,,,0,24,24,24,,,None,,da,4,005,123.819070115,1C,auditory,2017_Oct_31_0958,
silence.wav,0,0,0,0,B,,,,,0,25,25,25,,,None,,da,4,005,123.819070115,1C,auditory,2017_Oct_31_0958,
silence.wav,0,0,0,0,B,,,,,0,26,26,26,,,None,,da,4,005,123.819070115,1C,auditory,2017_Oct_31_0958,
silence.wav,0,0,0,0,B,,,,,0,27,27,27,,,None,,da,4,005,123.819070115,1C,auditory,2017_Oct_31_0958,
silence.wav,0,0,0,0,B,,,,,0,28,28,28,,,None,,da,4,005,123.819070115,1C,auditory,2017_Oct_31_0958,
silence.wav,0,0,0,0,B,,,,,0,29,29,29,,,None,,da,4,005,123.819070115,1C,auditory,2017_Oct_31_0958,
silence.wav,0,0,0,0,B,,,,,0,30,30,30,,,None,,da,4,005,123.819070115,1C,auditory,2017_Oct_31_0958,
silence.wav,0,0,0,0,B,,,,,0,31,31,31,,,None,,da,4,005,123.819070115,1C,auditory,2017_Oct_31_0958,
silence.wav,0,0,0,0,B,,,,,0,32,32,32,,,None,,da,4,005,123.819070115,1C,auditory,2017_Oct_31_0958,
silence.wav,0,0,0,0,B,,,,,0,33,33,33,,,None,,da,4,005,123.819070115,1C,auditory,2017_Oct_31_0958,
silence.wav,0,0,0,0,B,,,,,0,34,34,34,,,None,,da,4,005,123.819070115,1C,auditory,2017_Oct_31_0958,
silence.wav,0,0,0,0,B,,,,,0,35,35,35,,,None,,da,4,005,123.819070115,1C,auditory,2017_Oct_31_0958,
1A.wav,2,1,10,121,S,0,0,0,0,,,,,None,,,,da,4,005,123.819070115,1C,auditory,2017_Oct_31_0958,
1B.wav,2,2,10,122,S,0,1,1,1,,,,,None,,,,da,4,005,123.819070115,1C,auditory,2017_Oct_31_0958,
1C.wav,2,3,10,123,S,0,2,2,2,,,,,None,,,,da,4,005,123.819070115,1C,auditory,2017_Oct_31_0958,
3A.wav,1,1,12,124,S,0,3,3,3,,,,,4,0.216924012639,,,da,4,005,123.819070115,1C,auditory,2017_Oct_31_0958,
3B.wav,1,2,12,125,S,0,4,4,4,,,,,None,,,,da,4,005,123.819070115,1C,auditory,2017_Oct_31_0958,
3C.wav,1,3,12,126,S,0,5,5,5,,,,,None,,,,da,4,005,123.819070115,1C,auditory,2017_Oct_31_0958,
1A.wav,2,1,11,127,S,0,6,6,6,,,,,None,,,,da,4,005,123.819070115,1C,auditory,2017_Oct_31_0958,
1B.wav,2,2,11,128,S,0,7,7,7,,,,,None,,,,da,4,005,123.819070115,1C,auditory,2017_Oct_31_0958,
1C.wav,2,3,11,129,S,0,8,8,8,,,,,None,,,,da,4,005,123.819070115,1C,auditory,2017_Oct_31_0958,
2A.wav,4,1,11,130,S,0,9,9,9,,,,,4,0.275251789717,,,da,4,005,123.819070115,1C,auditory,2017_Oct_31_0958,
2B.wav,4,2,11,131,S,0,10,10,10,,,,,None,,,,da,4,005,123.819070115,1C,auditory,2017_Oct_31_0958,
2C.wav,4,3,11,132,S,0,11,11,11,,,,,None,,,,da,4,005,123.819070115,1C,auditory,2017_Oct_31_0958,
4A.wav,3,1,11,133,S,0,12,12,12,,,,,None,,,,da,4,005,123.819070115,1C,auditory,2017_Oct_31_0958,
4B.wav,3,2,11,134,S,0,13,13,13,,,,,None,,,,da,4,005,123.819070115,1C,auditory,2017_Oct_31_0958,
4C.wav,3,3,11,135,S,0,14,14,14,,,,,None,,,,da,4,005,123.819070115,1C,auditory,2017_Oct_31_0958,
2A.wav,4,1,12,136,S,0,15,15,15,,,,,None,,,,da,4,005,123.819070115,1C,auditory,2017_Oct_31_0958,
2B.wav,4,2,12,137,S,0,16,16,16,,,,,None,,,,da,4,005,123.819070115,1C,auditory,2017_Oct_31_0958,
2C.wav,4,3,12,138,S,0,17,17,17,,,,,4,0.250261688372,,,da,4,005,123.819070115,1C,auditory,2017_Oct_31_0958,
4A.wav,3,1,12,139,S,0,18,18,18,,,,,None,,,,da,4,005,123.819070115,1C,auditory,2017_Oct_31_0958,
4B.wav,3,2,12,140,S,0,19,19,19,,,,,None,,,,da,4,005,123.819070115,1C,auditory,2017_Oct_31_0958,
4C.wav,3,3,12,141,S,0,20,20,20,,,,,None,,,,da,4,005,123.819070115,1C,auditory,2017_Oct_31_0958,
1A.wav,2,1,12,142,S,0,21,21,21,,,,,None,,,,da,4,005,123.819070115,1C,auditory,2017_Oct_31_0958,
1B.wav,2,2,12,143,S,0,22,22,22,,,,,None,,,,da,4,005,123.819070115,1C,auditory,2017_Oct_31_0958,
1C.wav,2,3,12,144,S,0,23,23,23,,,,,None,,,,da,4,005,123.819070115,1C,auditory,2017_Oct_31_0958,
pu.wav,0,1,1,121,R,,,,,0,0,0,0,,,None,,da,4,005,123.819070115,1C,auditory,2017_Oct_31_0958,
ti.wav,0,2,1,122,R,,,,,0,1,1,1,,,None,,da,4,005,123.819070115,1C,auditory,2017_Oct_31_0958,
tu.wav,0,3,1,123,R,,,,,0,2,2,2,,,None,,da,4,005,123.819070115,1C,auditory,2017_Oct_31_0958,
ba.wav,0,1,1,124,R,,,,,0,3,3,3,,,None,,da,4,005,123.819070115,1C,auditory,2017_Oct_31_0958,
ta.wav,0,2,1,125,R,,,,,0,4,4,4,,,None,,da,4,005,123.819070115,1C,auditory,2017_Oct_31_0958,
da.wav,0,3,1,126,R,,,,,0,5,5,5,,,None,,da,4,005,123.819070115,1C,auditory,2017_Oct_31_0958,
di.wav,0,1,1,127,R,,,,,0,6,6,6,,,4,0.250277332729,da,4,005,123.819070115,1C,auditory,2017_Oct_31_0958,
ti.wav,0,2,1,128,R,,,,,0,7,7,7,,,None,,da,4,005,123.819070115,1C,auditory,2017_Oct_31_0958,
du.wav,0,3,1,129,R,,,,,0,8,8,8,,,None,,da,4,005,123.819070115,1C,auditory,2017_Oct_31_0958,
da.wav,0,1,1,130,R,,,,,0,9,9,9,,,None,,da,4,005,123.819070115,1C,auditory,2017_Oct_31_0958,
ba.wav,0,2,1,131,R,,,,,0,10,10,10,,,None,,da,4,005,123.819070115,1C,auditory,2017_Oct_31_0958,
bu.wav,0,3,1,132,R,,,,,0,11,11,11,,,None,,da,4,005,123.819070115,1C,auditory,2017_Oct_31_0958,
du.wav,0,1,1,133,R,,,,,0,12,12,12,,,None,,da,4,005,123.819070115,1C,auditory,2017_Oct_31_0958,
di.wav,0,2,1,134,R,,,,,0,13,13,13,,,None,,da,4,005,123.819070115,1C,auditory,2017_Oct_31_0958,
di.wav,0,3,1,135,R,,,,,0,14,14,14,,,None,,da,4,005,123.819070115,1C,auditory,2017_Oct_31_0958,
pu.wav,0,1,1,136,R,,,,,0,15,15,15,,,None,,da,4,005,123.819070115,1C,auditory,2017_Oct_31_0958,
pi.wav,0,2,1,137,R,,,,,0,16,16,16,,,None,,da,4,005,123.819070115,1C,auditory,2017_Oct_31_0958,
pa.wav,0,3,1,138,R,,,,,0,17,17,17,,,None,,da,4,005,123.819070115,1C,auditory,2017_Oct_31_0958,
pa.wav,0,1,1,139,R,,,,,0,18,18,18,,,None,,da,4,005,123.819070115,1C,auditory,2017_Oct_31_0958,
bi.wav,0,2,1,140,R,,,,,0,19,19,19,,,None,,da,4,005,123.819070115,1C,auditory,2017_Oct_31_0958,
ba.wav,0,3,1,141,R,,,,,0,20,20,20,,,None,,da,4,005,123.819070115,1C,auditory,2017_Oct_31_0958,
pu.wav,0,1,1,142,R,,,,,0,21,21,21,,,None,,da,4,005,123.819070115,1C,auditory,2017_Oct_31_0958,
ta.wav,0,2,1,143,R,,,,,0,22,22,22,,,None,,da,4,005,123.819070115,1C,auditory,2017_Oct_31_0958,
bu.wav,0,3,1,144,R,,,,,0,23,23,23,,,None,,da,4,005,123.819070115,1C,auditory,2017_Oct_31_0958,
silence.wav,0,0,0,0,B,,,,,0,24,24,24,,,None,,da,4,005,123.819070115,1C,auditory,2017_Oct_31_0958,
silence.wav,0,0,0,0,B,,,,,0,25,25,25,,,None,,da,4,005,123.819070115,1C,auditory,2017_Oct_31_0958,
silence.wav,0,0,0,0,B,,,,,0,26,26,26,,,None,,da,4,005,123.819070115,1C,auditory,2017_Oct_31_0958,
silence.wav,0,0,0,0,B,,,,,0,27,27,27,,,None,,da,4,005,123.819070115,1C,auditory,2017_Oct_31_0958,
silence.wav,0,0,0,0,B,,,,,0,28,28,28,,,None,,da,4,005,123.819070115,1C,auditory,2017_Oct_31_0958,
silence.wav,0,0,0,0,B,,,,,0,29,29,29,,,None,,da,4,005,123.819070115,1C,auditory,2017_Oct_31_0958,
silence.wav,0,0,0,0,B,,,,,0,30,30,30,,,None,,da,4,005,123.819070115,1C,auditory,2017_Oct_31_0958,
silence.wav,0,0,0,0,B,,,,,0,31,31,31,,,None,,da,4,005,123.819070115,1C,auditory,2017_Oct_31_0958,
silence.wav,0,0,0,0,B,,,,,0,32,32,32,,,None,,da,4,005,123.819070115,1C,auditory,2017_Oct_31_0958,
silence.wav,0,0,0,0,B,,,,,0,33,33,33,,,None,,da,4,005,123.819070115,1C,auditory,2017_Oct_31_0958,
silence.wav,0,0,0,0,B,,,,,0,34,34,34,,,None,,da,4,005,123.819070115,1C,auditory,2017_Oct_31_0958,
silence.wav,0,0,0,0,B,,,,,0,35,35,35,,,None,,da,4,005,123.819070115,1C,auditory,2017_Oct_31_0958,
di.wav,0,1,1,145,R,,,,,0,36,36,36,,,None,,da,4,005,123.819070115,1C,auditory,2017_Oct_31_0958,
bu.wav,0,2,1,146,R,,,,,0,37,37,37,,,None,,da,4,005,123.819070115,1C,auditory,2017_Oct_31_0958,
bi.wav,0,3,1,147,R,,,,,0,38,38,38,,,None,,da,4,005,123.819070115,1C,auditory,2017_Oct_31_0958,
bi.wav,0,1,1,148,R,,,,,0,39,39,39,,,None,,da,4,005,123.819070115,1C,auditory,2017_Oct_31_0958,
ba.wav,0,2,1,149,R,,,,,0,40,40,40,,,None,,da,4,005,123.819070115,1C,auditory,2017_Oct_31_0958,
tu.wav,0,3,1,150,R,,,,,0,41,41,41,,,None,,da,4,005,123.819070115,1C,auditory,2017_Oct_31_0958,
tu.wav,0,1,1,151,R,,,,,0,42,42,42,,,None,,da,4,005,123.819070115,1C,auditory,2017_Oct_31_0958,
pu.wav,0,2,1,152,R,,,,,0,43,43,43,,,None,,da,4,005,123.819070115,1C,auditory,2017_Oct_31_0958,
du.wav,0,3,1,153,R,,,,,0,44,44,44,,,None,,da,4,005,123.819070115,1C,auditory,2017_Oct_31_0958,
ba.wav,0,1,1,154,R,,,,,0,45,45,45,,,None,,da,4,005,123.819070115,1C,auditory,2017_Oct_31_0958,
tu.wav,0,2,1,155,R,,,,,0,46,46,46,,,None,,da,4,005,123.819070115,1C,auditory,2017_Oct_31_0958,
ti.wav,0,3,1,156,R,,,,,0,47,47,47,,,None,,da,4,005,123.819070115,1C,auditory,2017_Oct_31_0958,
ta.wav,0,1,1,157,R,,,,,0,48,48,48,,,None,,da,4,005,123.819070115,1C,auditory,2017_Oct_31_0958,
pa.wav,0,2,1,158,R,,,,,0,49,49,49,,,None,,da,4,005,123.819070115,1C,auditory,2017_Oct_31_0958,
da.wav,0,3,1,159,R,,,,,0,50,50,50,,,None,,da,4,005,123.819070115,1C,auditory,2017_Oct_31_0958,
di.wav,0,1,1,160,R,,,,,0,51,51,51,,,4,0.300335473148,da,4,005,123.819070115,1C,auditory,2017_Oct_31_0958,
pi.wav,0,2,1,161,R,,,,,0,52,52,52,,,None,,da,4,005,123.819070115,1C,auditory,2017_Oct_31_0958,
pu.wav,0,3,1,162,R,,,,,0,53,53,53,,,None,,da,4,005,123.819070115,1C,auditory,2017_Oct_31_0958,
pi.wav,0,1,1,163,R,,,,,0,54,54,54,,,None,,da,4,005,123.819070115,1C,auditory,2017_Oct_31_0958,
bi.wav,0,2,1,164,R,,,,,0,55,55,55,,,None,,da,4,005,123.819070115,1C,auditory,2017_Oct_31_0958,
pa.wav,0,3,1,165,R,,,,,0,56,56,56,,,None,,da,4,005,123.819070115,1C,auditory,2017_Oct_31_0958,
da.wav,0,1,1,166,R,,,,,0,57,57,57,,,None,,da,4,005,123.819070115,1C,auditory,2017_Oct_31_0958,
bu.wav,0,2,1,167,R,,,,,0,58,58,58,,,4,0.275360162836,da,4,005,123.819070115,1C,auditory,2017_Oct_31_0958,
pi.wav,0,3,1,168,R,,,,,0,59,59,59,,,None,,da,4,005,123.819070115,1C,auditory,2017_Oct_31_0958,
3A.wav,1,1,13,145,S,0,0,0,0,,,,,None,,,,da,4,005,123.819070115,1C,auditory,2017_Oct_31_0958,
3B.wav,1,2,13,146,S,0,1,1,1,,,,,None,,,,da,4,005,123.819070115,1C,auditory,2017_Oct_31_0958,
3C.wav,1,3,13,147,S,0,2,2,2,,,,,None,,,,da,4,005,123.819070115,1C,auditory,2017_Oct_31_0958,
4A.wav,3,1,13,148,S,0,3,3,3,,,,,4,0.166906263214,,,da,4,005,123.819070115,1C,auditory,2017_Oct_31_0958,
4B.wav,3,2,13,149,S,0,4,4,4,,,,,None,,,,da,4,005,123.819070115,1C,auditory,2017_Oct_31_0958,
4C.wav,3,3,13,150,S,0,5,5,5,,,,,None,,,,da,4,005,123.819070115,1C,auditory,2017_Oct_31_0958,
3A.wav,1,1,14,151,S,0,6,6,6,,,,,None,,,,da,4,005,123.819070115,1C,auditory,2017_Oct_31_0958,
3B.wav,1,2,14,152,S,0,7,7,7,,,,,4,0.291936414316,,,da,4,005,123.819070115,1C,auditory,2017_Oct_31_0958,
3C.wav,1,3,14,153,S,0,8,8,8,,,,,None,,,,da,4,005,123.819070115,1C,auditory,2017_Oct_31_0958,
2A.wav,4,1,13,154,S,0,9,9,9,,,,,None,,,,da,4,005,123.819070115,1C,auditory,2017_Oct_31_0958,
2B.wav,4,2,13,155,S,0,10,10,10,,,,,None,,,,da,4,005,123.819070115,1C,auditory,2017_Oct_31_0958,
2C.wav,4,3,13,156,S,0,11,11,11,,,,,4,0.266892837593,,,da,4,005,123.819070115,1C,auditory,2017_Oct_31_0958,
1A.wav,2,1,13,157,S,0,12,12,12,,,,,None,,,,da,4,005,123.819070115,1C,auditory,2017_Oct_31_0958,
1B.wav,2,2,13,158,S,0,13,13,13,,,,,None,,,,da,4,005,123.819070115,1C,auditory,2017_Oct_31_0958,
1C.wav,2,3,13,159,S,0,14,14,14,,,,,None,,,,da,4,005,123.819070115,1C,auditory,2017_Oct_31_0958,
3A.wav,1,1,15,160,S,0,15,15,15,,,,,None,,,,da,4,005,123.819070115,1C,auditory,2017_Oct_31_0958,
3B.wav,1,2,15,161,S,0,16,16,16,,,,,None,,,,da,4,005,123.819070115,1C,auditory,2017_Oct_31_0958,
3C.wav,1,3,15,162,S,0,17,17,17,,,,,None,,,,da,4,005,123.819070115,1C,auditory,2017_Oct_31_0958,
2A.wav,4,1,14,163,S,0,18,18,18,,,,,None,,,,da,4,005,123.819070115,1C,auditory,2017_Oct_31_0958,
2B.wav,4,2,14,164,S,0,19,19,19,,,,,4,0.166901712073,,,da,4,005,123.819070115,1C,auditory,2017_Oct_31_0958,
2C.wav,4,3,14,165,S,0,20,20,20,,,,,None,,,,da,4,005,123.819070115,1C,auditory,2017_Oct_31_0958,
1A.wav,2,1,14,166,S,0,21,21,21,,,,,None,,,,da,4,005,123.819070115,1C,auditory,2017_Oct_31_0958,
1B.wav,2,2,14,167,S,0,22,22,22,,,,,None,,,,da,4,005,123.819070115,1C,auditory,2017_Oct_31_0958,
1C.wav,2,3,14,168,S,0,23,23,23,,,,,None,,,,da,4,005,123.819070115,1C,auditory,2017_Oct_31_0958,
silence.wav,0,0,0,0,B,0,24,24,24,,,,,None,,,,da,4,005,123.819070115,1C,auditory,2017_Oct_31_0958,
silence.wav,0,0,0,0,B,0,25,25,25,,,,,4,0.366656123195,,,da,4,005,123.819070115,1C,auditory,2017_Oct_31_0958,
silence.wav,0,0,0,0,B,0,26,26,26,,,,,None,,,,da,4,005,123.819070115,1C,auditory,2017_Oct_31_0958,
silence.wav,0,0,0,0,B,0,27,27,27,,,,,None,,,,da,4,005,123.819070115,1C,auditory,2017_Oct_31_0958,
silence.wav,0,0,0,0,B,0,28,28,28,,,,,None,,,,da,4,005,123.819070115,1C,auditory,2017_Oct_31_0958,
silence.wav,0,0,0,0,B,0,29,29,29,,,,,None,,,,da,4,005,123.819070115,1C,auditory,2017_Oct_31_0958,
silence.wav,0,0,0,0,B,0,30,30,30,,,,,None,,,,da,4,005,123.819070115,1C,auditory,2017_Oct_31_0958,
silence.wav,0,0,0,0,B,0,31,31,31,,,,,None,,,,da,4,005,123.819070115,1C,auditory,2017_Oct_31_0958,
silence.wav,0,0,0,0,B,0,32,32,32,,,,,None,,,,da,4,005,123.819070115,1C,auditory,2017_Oct_31_0958,
silence.wav,0,0,0,0,B,0,33,33,33,,,,,None,,,,da,4,005,123.819070115,1C,auditory,2017_Oct_31_0958,
silence.wav,0,0,0,0,B,0,34,34,34,,,,,None,,,,da,4,005,123.819070115,1C,auditory,2017_Oct_31_0958,
silence.wav,0,0,0,0,B,0,35,35,35,,,,,None,,,,da,4,005,123.819070115,1C,auditory,2017_Oct_31_0958,
4A.wav,3,1,14,169,S,0,36,36,36,,,,,None,,,,da,4,005,123.819070115,1C,auditory,2017_Oct_31_0958,
4B.wav,3,2,14,170,S,0,37,37,37,,,,,None,,,,da,4,005,123.819070115,1C,auditory,2017_Oct_31_0958,
4C.wav,3,3,14,171,S,0,38,38,38,,,,,None,,,,da,4,005,123.819070115,1C,auditory,2017_Oct_31_0958,
1A.wav,2,1,15,172,S,0,39,39,39,,,,,None,,,,da,4,005,123.819070115,1C,auditory,2017_Oct_31_0958,
1B.wav,2,2,15,173,S,0,40,40,40,,,,,None,,,,da,4,005,123.819070115,1C,auditory,2017_Oct_31_0958,
1C.wav,2,3,15,174,S,0,41,41,41,,,,,4,0.358583321562,,,da,4,005,123.819070115,1C,auditory,2017_Oct_31_0958,
3A.wav,1,1,16,175,S,0,42,42,42,,,,,None,,,,da,4,005,123.819070115,1C,auditory,2017_Oct_31_0958,
3B.wav,1,2,16,176,S,0,43,43,43,,,,,None,,,,da,4,005,123.819070115,1C,auditory,2017_Oct_31_0958,
3C.wav,1,3,16,177,S,0,44,44,44,,,,,None,,,,da,4,005,123.819070115,1C,auditory,2017_Oct_31_0958,
4A.wav,3,1,15,178,S,0,45,45,45,,,,,None,,,,da,4,005,123.819070115,1C,auditory,2017_Oct_31_0958,
4B.wav,3,2,15,179,S,0,46,46,46,,,,,4,0.383552089566,,,da,4,005,123.819070115,1C,auditory,2017_Oct_31_0958,
4C.wav,3,3,15,180,S,0,47,47,47,,,,,None,,,,da,4,005,123.819070115,1C,auditory,2017_Oct_31_0958,
2A.wav,4,1,15,181,S,0,48,48,48,,,,,None,,,,da,4,005,123.819070115,1C,auditory,2017_Oct_31_0958,
2B.wav,4,2,15,182,S,0,49,49,49,,,,,None,,,,da,4,005,123.819070115,1C,auditory,2017_Oct_31_0958,
2C.wav,4,3,15,183,S,0,50,50,50,,,,,None,,,,da,4,005,123.819070115,1C,auditory,2017_Oct_31_0958,
4A.wav,3,1,16,184,S,0,51,51,51,,,,,None,,,,da,4,005,123.819070115,1C,auditory,2017_Oct_31_0958,
4B.wav,3,2,16,185,S,0,52,52,52,,,,,None,,,,da,4,005,123.819070115,1C,auditory,2017_Oct_31_0958,
4C.wav,3,3,16,186,S,0,53,53,53,,,,,None,,,,da,4,005,123.819070115,1C,auditory,2017_Oct_31_0958,
1A.wav,2,1,16,187,S,0,54,54,54,,,,,None,,,,da,4,005,123.819070115,1C,auditory,2017_Oct_31_0958,
1B.wav,2,2,16,188,S,0,55,55,55,,,,,None,,,,da,4,005,123.819070115,1C,auditory,2017_Oct_31_0958,
1C.wav,2,3,16,189,S,0,56,56,56,,,,,None,,,,da,4,005,123.819070115,1C,auditory,2017_Oct_31_0958,
2A.wav,4,1,16,190,S,0,57,57,57,,,,,None,,,,da,4,005,123.819070115,1C,auditory,2017_Oct_31_0958,
2B.wav,4,2,16,191,S,0,58,58,58,,,,,None,,,,da,4,005,123.819070115,1C,auditory,2017_Oct_31_0958,
2C.wav,4,3,16,192,S,0,59,59,59,,,,,4,0.233597543789,,,da,4,005,123.819070115,1C,auditory,2017_Oct_31_0958,
silence.wav,0,0,0,0,B,0,60,60,60,,,,,None,,,,da,4,005,123.819070115,1C,auditory,2017_Oct_31_0958,
silence.wav,0,0,0,0,B,0,61,61,61,,,,,None,,,,da,4,005,123.819070115,1C,auditory,2017_Oct_31_0958,
silence.wav,0,0,0,0,B,0,62,62,62,,,,,None,,,,da,4,005,123.819070115,1C,auditory,2017_Oct_31_0958,
silence.wav,0,0,0,0,B,0,63,63,63,,,,,None,,,,da,4,005,123.819070115,1C,auditory,2017_Oct_31_0958,
silence.wav,0,0,0,0,B,0,64,64,64,,,,,None,,,,da,4,005,123.819070115,1C,auditory,2017_Oct_31_0958,
silence.wav,0,0,0,0,B,0,65,65,65,,,,,None,,,,da,4,005,123.819070115,1C,auditory,2017_Oct_31_0958,
silence.wav,0,0,0,0,B,0,66,66,66,,,,,None,,,,da,4,005,123.819070115,1C,auditory,2017_Oct_31_0958,
silence.wav,0,0,0,0,B,0,67,67,67,,,,,None,,,,da,4,005,123.819070115,1C,auditory,2017_Oct_31_0958,
silence.wav,0,0,0,0,B,0,68,68,68,,,,,None,,,,da,4,005,123.819070115,1C,auditory,2017_Oct_31_0958,
silence.wav,0,0,0,0,B,0,69,69,69,,,,,None,,,,da,4,005,123.819070115,1C,auditory,2017_Oct_31_0958,
silence.wav,0,0,0,0,B,0,70,70,70,,,,,None,,,,da,4,005,123.819070115,1C,auditory,2017_Oct_31_0958,
silence.wav,0,0,0,0,B,0,71,71,71,,,,,None,,,,da,4,005,123.819070115,1C,auditory,2017_Oct_31_0958,
pa.wav,0,1,1,169,R,,,,,0,0,0,0,,,None,,da,4,005,123.819070115,1C,auditory,2017_Oct_31_0958,
ba.wav,0,2,1,170,R,,,,,0,1,1,1,,,None,,da,4,005,123.819070115,1C,auditory,2017_Oct_31_0958,
ta.wav,0,3,1,171,R,,,,,0,2,2,2,,,None,,da,4,005,123.819070115,1C,auditory,2017_Oct_31_0958,
pi.wav,0,1,1,172,R,,,,,0,3,3,3,,,None,,da,4,005,123.819070115,1C,auditory,2017_Oct_31_0958,
di.wav,0,2,1,173,R,,,,,0,4,4,4,,,None,,da,4,005,123.819070115,1C,auditory,2017_Oct_31_0958,
pa.wav,0,3,1,174,R,,,,,0,5,5,5,,,None,,da,4,005,123.819070115,1C,auditory,2017_Oct_31_0958,
ti.wav,0,1,1,175,R,,,,,0,6,6,6,,,None,,da,4,005,123.819070115,1C,auditory,2017_Oct_31_0958,
bi.wav,0,2,1,176,R,,,,,0,7,7,7,,,None,,da,4,005,123.819070115,1C,auditory,2017_Oct_31_0958,
ti.wav,0,3,1,177,R,,,,,0,8,8,8,,,None,,da,4,005,123.819070115,1C,auditory,2017_Oct_31_0958,
tu.wav,0,1,1,178,R,,,,,0,9,9,9,,,None,,da,4,005,123.819070115,1C,auditory,2017_Oct_31_0958,
bu.wav,0,2,1,179,R,,,,,0,10,10,10,,,None,,da,4,005,123.819070115,1C,auditory,2017_Oct_31_0958,
du.wav,0,3,1,180,R,,,,,0,11,11,11,,,None,,da,4,005,123.819070115,1C,auditory,2017_Oct_31_0958,
du.wav,0,1,1,181,R,,,,,0,12,12,12,,,None,,da,4,005,123.819070115,1C,auditory,2017_Oct_31_0958,
pu.wav,0,2,1,182,R,,,,,0,13,13,13,,,None,,da,4,005,123.819070115,1C,auditory,2017_Oct_31_0958,
da.wav,0,3,1,183,R,,,,,0,14,14,14,,,None,,da,4,005,123.819070115,1C,auditory,2017_Oct_31_0958,
ba.wav,0,1,1,184,R,,,,,0,15,15,15,,,4,0.283585142111,da,4,005,123.819070115,1C,auditory,2017_Oct_31_0958,
ta.wav,0,2,1,185,R,,,,,0,16,16,16,,,4,0.0835599403363,da,4,005,123.819070115,1C,auditory,2017_Oct_31_0958,
da.wav,0,3,1,186,R,,,,,0,17,17,17,,,None,,da,4,005,123.819070115,1C,auditory,2017_Oct_31_0958,
ti.wav,0,1,1,187,R,,,,,0,18,18,18,,,4,0.450356009882,da,4,005,123.819070115,1C,auditory,2017_Oct_31_0958,
pu.wav,0,2,1,188,R,,,,,0,19,19,19,,,None,,da,4,005,123.819070115,1C,auditory,2017_Oct_31_0958,
ta.wav,0,3,1,189,R,,,,,0,20,20,20,,,None,,da,4,005,123.819070115,1C,auditory,2017_Oct_31_0958,
du.wav,0,1,1,190,R,,,,,0,21,21,21,,,None,,da,4,005,123.819070115,1C,auditory,2017_Oct_31_0958,
bu.wav,0,2,1,191,R,,,,,0,22,22,22,,,None,,da,4,005,123.819070115,1C,auditory,2017_Oct_31_0958,
di.wav,0,3,1,192,R,,,,,0,23,23,23,,,None,,da,4,005,123.819070115,1C,auditory,2017_Oct_31_0958,
