soundFile,word,location,repetition,trialnum,condition,fam_trials_loop.thisRepN,fam_trials_loop.thisTrialN,fam_trials_loop.thisN,fam_trials_loop.thisIndex,trials_1.thisRepN,trials_1.thisTrialN,trials_1.thisN,trials_1.thisIndex,structured_block_key_resp.keys,structured_block_key_resp.rt,random_block_key_resp.keys,random_block_key_resp.rt,starget,Run,PartID,frameRate,ttarget,expName,date,
pi.wav,1,1,1,1,S,0,0,0,0,,,,,None,,,,pu,1,010,119.819331925,2C,auditory,2017_Nov_02_0956,
tu.wav,1,2,1,2,S,0,1,1,1,,,,,None,,,,pu,1,010,119.819331925,2C,auditory,2017_Nov_02_0956,
bi.wav,1,3,1,3,S,0,2,2,2,,,,,None,,,,pu,1,010,119.819331925,2C,auditory,2017_Nov_02_0956,
di.wav,2,1,1,4,S,0,3,3,3,,,,,None,,,,pu,1,010,119.819331925,2C,auditory,2017_Nov_02_0956,
ba.wav,2,2,1,5,S,0,4,4,4,,,,,None,,,,pu,1,010,119.819331925,2C,auditory,2017_Nov_02_0956,
pu.wav,2,3,1,6,S,0,5,5,5,,,,,None,,,,pu,1,010,119.819331925,2C,auditory,2017_Nov_02_0956,
ta.wav,3,1,1,7,S,0,6,6,6,,,,,3,0.116903622693,,,pu,1,010,119.819331925,2C,auditory,2017_Nov_02_0956,
ti.wav,3,2,1,8,S,0,7,7,7,,,,,None,,,,pu,1,010,119.819331925,2C,auditory,2017_Nov_02_0956,
du.wav,3,3,1,9,S,0,8,8,8,,,,,None,,,,pu,1,010,119.819331925,2C,auditory,2017_Nov_02_0956,
pi.wav,1,1,2,10,S,0,9,9,9,,,,,None,,,,pu,1,010,119.819331925,2C,auditory,2017_Nov_02_0956,
tu.wav,1,2,2,11,S,0,10,10,10,,,,,None,,,,pu,1,010,119.819331925,2C,auditory,2017_Nov_02_0956,
bi.wav,1,3,2,12,S,0,11,11,11,,,,,None,,,,pu,1,010,119.819331925,2C,auditory,2017_Nov_02_0956,
bu.wav,4,1,1,13,S,0,12,12,12,,,,,None,,,,pu,1,010,119.819331925,2C,auditory,2017_Nov_02_0956,
pa.wav,4,2,1,14,S,0,13,13,13,,,,,None,,,,pu,1,010,119.819331925,2C,auditory,2017_Nov_02_0956,
da.wav,4,3,1,15,S,0,14,14,14,,,,,3,0.0544565115124,,,pu,1,010,119.819331925,2C,auditory,2017_Nov_02_0956,
di.wav,2,1,2,16,S,0,15,15,15,,,,,None,,,,pu,1,010,119.819331925,2C,auditory,2017_Nov_02_0956,
ba.wav,2,2,2,17,S,0,16,16,16,,,,,None,,,,pu,1,010,119.819331925,2C,auditory,2017_Nov_02_0956,
pu.wav,2,3,2,18,S,0,17,17,17,,,,,None,,,,pu,1,010,119.819331925,2C,auditory,2017_Nov_02_0956,
ta.wav,3,1,2,19,S,0,18,18,18,,,,,3,0.178558557469,,,pu,1,010,119.819331925,2C,auditory,2017_Nov_02_0956,
ti.wav,3,2,2,20,S,0,19,19,19,,,,,None,,,,pu,1,010,119.819331925,2C,auditory,2017_Nov_02_0956,
du.wav,3,3,2,21,S,0,20,20,20,,,,,None,,,,pu,1,010,119.819331925,2C,auditory,2017_Nov_02_0956,
pi.wav,1,1,3,22,S,0,21,21,21,,,,,None,,,,pu,1,010,119.819331925,2C,auditory,2017_Nov_02_0956,
tu.wav,1,2,3,23,S,0,22,22,22,,,,,None,,,,pu,1,010,119.819331925,2C,auditory,2017_Nov_02_0956,
bi.wav,1,3,3,24,S,0,23,23,23,,,,,None,,,,pu,1,010,119.819331925,2C,auditory,2017_Nov_02_0956,
1A.wav,0,1,1,1,R,,,,,0,0,0,0,,,None,,pu,1,010,119.819331925,2C,auditory,2017_Nov_02_0956,
1B.wav,0,2,1,2,R,,,,,0,1,1,1,,,None,,pu,1,010,119.819331925,2C,auditory,2017_Nov_02_0956,
4A.wav,0,3,1,3,R,,,,,0,2,2,2,,,None,,pu,1,010,119.819331925,2C,auditory,2017_Nov_02_0956,
1C.wav,0,1,1,4,R,,,,,0,3,3,3,,,None,,pu,1,010,119.819331925,2C,auditory,2017_Nov_02_0956,
3C.wav,0,2,1,5,R,,,,,0,4,4,4,,,None,,pu,1,010,119.819331925,2C,auditory,2017_Nov_02_0956,
2C.wav,0,3,1,6,R,,,,,0,5,5,5,,,None,,pu,1,010,119.819331925,2C,auditory,2017_Nov_02_0956,
2A.wav,0,1,1,7,R,,,,,0,6,6,6,,,3,0.00857626981451,pu,1,010,119.819331925,2C,auditory,2017_Nov_02_0956,
3B.wav,0,2,1,8,R,,,,,0,7,7,7,,,None,,pu,1,010,119.819331925,2C,auditory,2017_Nov_02_0956,
2B.wav,0,3,1,9,R,,,,,0,8,8,8,,,None,,pu,1,010,119.819331925,2C,auditory,2017_Nov_02_0956,
1C.wav,0,1,1,10,R,,,,,0,9,9,9,,,None,,pu,1,010,119.819331925,2C,auditory,2017_Nov_02_0956,
4C.wav,0,2,1,11,R,,,,,0,10,10,10,,,None,,pu,1,010,119.819331925,2C,auditory,2017_Nov_02_0956,
3B.wav,0,3,1,12,R,,,,,0,11,11,11,,,3,0.258607345313,pu,1,010,119.819331925,2C,auditory,2017_Nov_02_0956,
4B.wav,0,1,1,13,R,,,,,0,12,12,12,,,None,,pu,1,010,119.819331925,2C,auditory,2017_Nov_02_0956,
3A.wav,0,2,1,14,R,,,,,0,13,13,13,,,None,,pu,1,010,119.819331925,2C,auditory,2017_Nov_02_0956,
3C.wav,0,3,1,15,R,,,,,0,14,14,14,,,None,,pu,1,010,119.819331925,2C,auditory,2017_Nov_02_0956,
3B.wav,0,1,1,16,R,,,,,0,15,15,15,,,None,,pu,1,010,119.819331925,2C,auditory,2017_Nov_02_0956,
3A.wav,0,2,1,17,R,,,,,0,16,16,16,,,None,,pu,1,010,119.819331925,2C,auditory,2017_Nov_02_0956,
4A.wav,0,3,1,18,R,,,,,0,17,17,17,,,None,,pu,1,010,119.819331925,2C,auditory,2017_Nov_02_0956,
3A.wav,0,1,1,19,R,,,,,0,18,18,18,,,None,,pu,1,010,119.819331925,2C,auditory,2017_Nov_02_0956,
4C.wav,0,2,1,20,R,,,,,0,19,19,19,,,None,,pu,1,010,119.819331925,2C,auditory,2017_Nov_02_0956,
3C.wav,0,3,1,21,R,,,,,0,20,20,20,,,3,0.216961620812,pu,1,010,119.819331925,2C,auditory,2017_Nov_02_0956,
4B.wav,0,1,1,22,R,,,,,0,21,21,21,,,None,,pu,1,010,119.819331925,2C,auditory,2017_Nov_02_0956,
1A.wav,0,2,1,23,R,,,,,0,22,22,22,,,3,0.350192895683,pu,1,010,119.819331925,2C,auditory,2017_Nov_02_0956,
1B.wav,0,3,1,24,R,,,,,0,23,23,23,,,None,,pu,1,010,119.819331925,2C,auditory,2017_Nov_02_0956,
bu.wav,4,1,2,25,S,0,0,0,0,,,,,3,0.0961986625043,,,pu,1,010,119.819331925,2C,auditory,2017_Nov_02_0956,
pa.wav,4,2,2,26,S,0,1,1,1,,,,,None,,,,pu,1,010,119.819331925,2C,auditory,2017_Nov_02_0956,
da.wav,4,3,2,27,S,0,2,2,2,,,,,None,,,,pu,1,010,119.819331925,2C,auditory,2017_Nov_02_0956,
di.wav,2,1,3,28,S,0,3,3,3,,,,,None,,,,pu,1,010,119.819331925,2C,auditory,2017_Nov_02_0956,
ba.wav,2,2,3,29,S,0,4,4,4,,,,,None,,,,pu,1,010,119.819331925,2C,auditory,2017_Nov_02_0956,
pu.wav,2,3,3,30,S,0,5,5,5,,,,,None,,,,pu,1,010,119.819331925,2C,auditory,2017_Nov_02_0956,
bu.wav,4,1,3,31,S,0,6,6,6,,,,,3,0.200104049582,,,pu,1,010,119.819331925,2C,auditory,2017_Nov_02_0956,
pa.wav,4,2,3,32,S,0,7,7,7,,,,,None,,,,pu,1,010,119.819331925,2C,auditory,2017_Nov_02_0956,
da.wav,4,3,3,33,S,0,8,8,8,,,,,None,,,,pu,1,010,119.819331925,2C,auditory,2017_Nov_02_0956,
ta.wav,3,1,3,34,S,0,9,9,9,,,,,None,,,,pu,1,010,119.819331925,2C,auditory,2017_Nov_02_0956,
ti.wav,3,2,3,35,S,0,10,10,10,,,,,None,,,,pu,1,010,119.819331925,2C,auditory,2017_Nov_02_0956,
du.wav,3,3,3,36,S,0,11,11,11,,,,,None,,,,pu,1,010,119.819331925,2C,auditory,2017_Nov_02_0956,
pi.wav,1,1,4,37,S,0,12,12,12,,,,,None,,,,pu,1,010,119.819331925,2C,auditory,2017_Nov_02_0956,
tu.wav,1,2,4,38,S,0,13,13,13,,,,,None,,,,pu,1,010,119.819331925,2C,auditory,2017_Nov_02_0956,
bi.wav,1,3,4,39,S,0,14,14,14,,,,,None,,,,pu,1,010,119.819331925,2C,auditory,2017_Nov_02_0956,
ta.wav,3,1,4,40,S,0,15,15,15,,,,,None,,,,pu,1,010,119.819331925,2C,auditory,2017_Nov_02_0956,
ti.wav,3,2,4,41,S,0,16,16,16,,,,,None,,,,pu,1,010,119.819331925,2C,auditory,2017_Nov_02_0956,
du.wav,3,3,4,42,S,0,17,17,17,,,,,None,,,,pu,1,010,119.819331925,2C,auditory,2017_Nov_02_0956,
pi.wav,1,1,5,43,S,0,18,18,18,,,,,None,,,,pu,1,010,119.819331925,2C,auditory,2017_Nov_02_0956,
tu.wav,1,2,5,44,S,0,19,19,19,,,,,None,,,,pu,1,010,119.819331925,2C,auditory,2017_Nov_02_0956,
bi.wav,1,3,5,45,S,0,20,20,20,,,,,None,,,,pu,1,010,119.819331925,2C,auditory,2017_Nov_02_0956,
bu.wav,4,1,4,46,S,0,21,21,21,,,,,None,,,,pu,1,010,119.819331925,2C,auditory,2017_Nov_02_0956,
pa.wav,4,2,4,47,S,0,22,22,22,,,,,3,0.175279771967,,,pu,1,010,119.819331925,2C,auditory,2017_Nov_02_0956,
da.wav,4,3,4,48,S,0,23,23,23,,,,,None,,,,pu,1,010,119.819331925,2C,auditory,2017_Nov_02_0956,
silence.wav,0,0,0,0,B,0,24,24,24,,,,,None,,,,pu,1,010,119.819331925,2C,auditory,2017_Nov_02_0956,
silence.wav,0,0,0,0,B,0,25,25,25,,,,,None,,,,pu,1,010,119.819331925,2C,auditory,2017_Nov_02_0956,
silence.wav,0,0,0,0,B,0,26,26,26,,,,,None,,,,pu,1,010,119.819331925,2C,auditory,2017_Nov_02_0956,
silence.wav,0,0,0,0,B,0,27,27,27,,,,,None,,,,pu,1,010,119.819331925,2C,auditory,2017_Nov_02_0956,
silence.wav,0,0,0,0,B,0,28,28,28,,,,,None,,,,pu,1,010,119.819331925,2C,auditory,2017_Nov_02_0956,
silence.wav,0,0,0,0,B,0,29,29,29,,,,,None,,,,pu,1,010,119.819331925,2C,auditory,2017_Nov_02_0956,
silence.wav,0,0,0,0,B,0,30,30,30,,,,,None,,,,pu,1,010,119.819331925,2C,auditory,2017_Nov_02_0956,
silence.wav,0,0,0,0,B,0,31,31,31,,,,,None,,,,pu,1,010,119.819331925,2C,auditory,2017_Nov_02_0956,
silence.wav,0,0,0,0,B,0,32,32,32,,,,,None,,,,pu,1,010,119.819331925,2C,auditory,2017_Nov_02_0956,
silence.wav,0,0,0,0,B,0,33,33,33,,,,,None,,,,pu,1,010,119.819331925,2C,auditory,2017_Nov_02_0956,
silence.wav,0,0,0,0,B,0,34,34,34,,,,,None,,,,pu,1,010,119.819331925,2C,auditory,2017_Nov_02_0956,
silence.wav,0,0,0,0,B,0,35,35,35,,,,,None,,,,pu,1,010,119.819331925,2C,auditory,2017_Nov_02_0956,
di.wav,2,1,4,49,S,0,36,36,36,,,,,None,,,,pu,1,010,119.819331925,2C,auditory,2017_Nov_02_0956,
ba.wav,2,2,4,50,S,0,37,37,37,,,,,None,,,,pu,1,010,119.819331925,2C,auditory,2017_Nov_02_0956,
pu.wav,2,3,4,51,S,0,38,38,38,,,,,None,,,,pu,1,010,119.819331925,2C,auditory,2017_Nov_02_0956,
ta.wav,3,1,5,52,S,0,39,39,39,,,,,3,0.408627355966,,,pu,1,010,119.819331925,2C,auditory,2017_Nov_02_0956,
ti.wav,3,2,5,53,S,0,40,40,40,,,,,None,,,,pu,1,010,119.819331925,2C,auditory,2017_Nov_02_0956,
du.wav,3,3,5,54,S,0,41,41,41,,,,,None,,,,pu,1,010,119.819331925,2C,auditory,2017_Nov_02_0956,
pi.wav,1,1,6,55,S,0,42,42,42,,,,,None,,,,pu,1,010,119.819331925,2C,auditory,2017_Nov_02_0956,
tu.wav,1,2,6,56,S,0,43,43,43,,,,,None,,,,pu,1,010,119.819331925,2C,auditory,2017_Nov_02_0956,
bi.wav,1,3,6,57,S,0,44,44,44,,,,,None,,,,pu,1,010,119.819331925,2C,auditory,2017_Nov_02_0956,
bu.wav,4,1,5,58,S,0,45,45,45,,,,,None,,,,pu,1,010,119.819331925,2C,auditory,2017_Nov_02_0956,
pa.wav,4,2,5,59,S,0,46,46,46,,,,,None,,,,pu,1,010,119.819331925,2C,auditory,2017_Nov_02_0956,
da.wav,4,3,5,60,S,0,47,47,47,,,,,None,,,,pu,1,010,119.819331925,2C,auditory,2017_Nov_02_0956,
di.wav,2,1,5,61,S,0,48,48,48,,,,,None,,,,pu,1,010,119.819331925,2C,auditory,2017_Nov_02_0956,
ba.wav,2,2,5,62,S,0,49,49,49,,,,,None,,,,pu,1,010,119.819331925,2C,auditory,2017_Nov_02_0956,
pu.wav,2,3,5,63,S,0,50,50,50,,,,,None,,,,pu,1,010,119.819331925,2C,auditory,2017_Nov_02_0956,
bu.wav,4,1,6,64,S,0,51,51,51,,,,,3,0.26691822891,,,pu,1,010,119.819331925,2C,auditory,2017_Nov_02_0956,
pa.wav,4,2,6,65,S,0,52,52,52,,,,,None,,,,pu,1,010,119.819331925,2C,auditory,2017_Nov_02_0956,
da.wav,4,3,6,66,S,0,53,53,53,,,,,None,,,,pu,1,010,119.819331925,2C,auditory,2017_Nov_02_0956,
pi.wav,1,1,7,67,S,0,54,54,54,,,,,None,,,,pu,1,010,119.819331925,2C,auditory,2017_Nov_02_0956,
tu.wav,1,2,7,68,S,0,55,55,55,,,,,None,,,,pu,1,010,119.819331925,2C,auditory,2017_Nov_02_0956,
bi.wav,1,3,7,69,S,0,56,56,56,,,,,None,,,,pu,1,010,119.819331925,2C,auditory,2017_Nov_02_0956,
ta.wav,3,1,6,70,S,0,57,57,57,,,,,None,,,,pu,1,010,119.819331925,2C,auditory,2017_Nov_02_0956,
ti.wav,3,2,6,71,S,0,58,58,58,,,,,None,,,,pu,1,010,119.819331925,2C,auditory,2017_Nov_02_0956,
du.wav,3,3,6,72,S,0,59,59,59,,,,,None,,,,pu,1,010,119.819331925,2C,auditory,2017_Nov_02_0956,
3B.wav,0.0,1.0,1.0,25.0,R,,,,,0,0,0,0,,,None,,pu,1,010,119.819331925,2C,auditory,2017_Nov_02_0956,
4C.wav,0.0,2.0,1.0,26.0,R,,,,,0,1,1,1,,,None,,pu,1,010,119.819331925,2C,auditory,2017_Nov_02_0956,
3B.wav,0.0,3.0,1.0,27.0,R,,,,,0,2,2,2,,,None,,pu,1,010,119.819331925,2C,auditory,2017_Nov_02_0956,
2B.wav,0.0,1.0,1.0,28.0,R,,,,,0,3,3,3,,,None,,pu,1,010,119.819331925,2C,auditory,2017_Nov_02_0956,
4A.wav,0.0,2.0,1.0,29.0,R,,,,,0,4,4,4,,,None,,pu,1,010,119.819331925,2C,auditory,2017_Nov_02_0956,
1C.wav,0.0,3.0,1.0,30.0,R,,,,,0,5,5,5,,,None,,pu,1,010,119.819331925,2C,auditory,2017_Nov_02_0956,
1A.wav,0.0,1.0,1.0,31.0,R,,,,,0,6,6,6,,,None,,pu,1,010,119.819331925,2C,auditory,2017_Nov_02_0956,
4B.wav,0.0,2.0,1.0,32.0,R,,,,,0,7,7,7,,,None,,pu,1,010,119.819331925,2C,auditory,2017_Nov_02_0956,
2A.wav,0.0,3.0,1.0,33.0,R,,,,,0,8,8,8,,,3,0.025228188053,pu,1,010,119.819331925,2C,auditory,2017_Nov_02_0956,
2B.wav,0.0,1.0,1.0,34.0,R,,,,,0,9,9,9,,,None,,pu,1,010,119.819331925,2C,auditory,2017_Nov_02_0956,
3C.wav,0.0,2.0,1.0,35.0,R,,,,,0,10,10,10,,,None,,pu,1,010,119.819331925,2C,auditory,2017_Nov_02_0956,
2C.wav,0.0,3.0,1.0,36.0,R,,,,,0,11,11,11,,,None,,pu,1,010,119.819331925,2C,auditory,2017_Nov_02_0956,
2A.wav,0.0,1.0,1.0,37.0,R,,,,,0,12,12,12,,,3,0.231404262857,pu,1,010,119.819331925,2C,auditory,2017_Nov_02_0956,
1B.wav,0.0,2.0,1.0,38.0,R,,,,,0,13,13,13,,,None,,pu,1,010,119.819331925,2C,auditory,2017_Nov_02_0956,
4C.wav,0.0,3.0,1.0,39.0,R,,,,,0,14,14,14,,,None,,pu,1,010,119.819331925,2C,auditory,2017_Nov_02_0956,
3A.wav,0.0,1.0,1.0,40.0,R,,,,,0,15,15,15,,,None,,pu,1,010,119.819331925,2C,auditory,2017_Nov_02_0956,
3C.wav,0.0,2.0,1.0,41.0,R,,,,,0,16,16,16,,,None,,pu,1,010,119.819331925,2C,auditory,2017_Nov_02_0956,
3A.wav,0.0,3.0,1.0,42.0,R,,,,,0,17,17,17,,,None,,pu,1,010,119.819331925,2C,auditory,2017_Nov_02_0956,
4A.wav,0.0,1.0,1.0,43.0,R,,,,,0,18,18,18,,,None,,pu,1,010,119.819331925,2C,auditory,2017_Nov_02_0956,
2C.wav,0.0,2.0,1.0,44.0,R,,,,,0,19,19,19,,,None,,pu,1,010,119.819331925,2C,auditory,2017_Nov_02_0956,
2C.wav,0.0,3.0,1.0,45.0,R,,,,,0,20,20,20,,,3,0.141911651153,pu,1,010,119.819331925,2C,auditory,2017_Nov_02_0956,
2A.wav,0.0,1.0,1.0,46.0,R,,,,,0,21,21,21,,,None,,pu,1,010,119.819331925,2C,auditory,2017_Nov_02_0956,
4B.wav,0.0,2.0,1.0,47.0,R,,,,,0,22,22,22,,,None,,pu,1,010,119.819331925,2C,auditory,2017_Nov_02_0956,
2B.wav,0.0,3.0,1.0,48.0,R,,,,,0,23,23,23,,,None,,pu,1,010,119.819331925,2C,auditory,2017_Nov_02_0956,
silence.wav,0.0,0.0,0.0,0.0,B,,,,,0,24,24,24,,,None,,pu,1,010,119.819331925,2C,auditory,2017_Nov_02_0956,
silence.wav,0.0,0.0,0.0,0.0,B,,,,,0,25,25,25,,,None,,pu,1,010,119.819331925,2C,auditory,2017_Nov_02_0956,
silence.wav,0.0,0.0,0.0,0.0,B,,,,,0,26,26,26,,,None,,pu,1,010,119.819331925,2C,auditory,2017_Nov_02_0956,
silence.wav,0.0,0.0,0.0,0.0,B,,,,,0,27,27,27,,,None,,pu,1,010,119.819331925,2C,auditory,2017_Nov_02_0956,
silence.wav,0.0,0.0,0.0,0.0,B,,,,,0,28,28,28,,,None,,pu,1,010,119.819331925,2C,auditory,2017_Nov_02_0956,
silence.wav,0.0,0.0,0.0,0.0,B,,,,,0,29,29,29,,,None,,pu,1,010,119.819331925,2C,auditory,2017_Nov_02_0956,
silence.wav,0.0,0.0,0.0,0.0,B,,,,,0,30,30,30,,,None,,pu,1,010,119.819331925,2C,auditory,2017_Nov_02_0956,
silence.wav,0.0,0.0,0.0,0.0,B,,,,,0,31,31,31,,,None,,pu,1,010,119.819331925,2C,auditory,2017_Nov_02_0956,
silence.wav,0.0,0.0,0.0,0.0,B,,,,,0,32,32,32,,,None,,pu,1,010,119.819331925,2C,auditory,2017_Nov_02_0956,
silence.wav,0.0,0.0,0.0,0.0,B,,,,,0,33,33,33,,,None,,pu,1,010,119.819331925,2C,auditory,2017_Nov_02_0956,
silence.wav,0.0,0.0,0.0,0.0,B,,,,,0,34,34,34,,,None,,pu,1,010,119.819331925,2C,auditory,2017_Nov_02_0956,
silence.wav,0.0,0.0,0.0,0.0,B,,,,,0,35,35,35,,,None,,pu,1,010,119.819331925,2C,auditory,2017_Nov_02_0956,
3C.wav,0.0,1.0,1.0,49.0,R,,,,,0,36,36,36,,,None,,pu,1,010,119.819331925,2C,auditory,2017_Nov_02_0956,
1B.wav,0.0,2.0,1.0,50.0,R,,,,,0,37,37,37,,,None,,pu,1,010,119.819331925,2C,auditory,2017_Nov_02_0956,
2B.wav,0.0,3.0,1.0,51.0,R,,,,,0,38,38,38,,,None,,pu,1,010,119.819331925,2C,auditory,2017_Nov_02_0956,
2C.wav,0.0,1.0,1.0,52.0,R,,,,,0,39,39,39,,,None,,pu,1,010,119.819331925,2C,auditory,2017_Nov_02_0956,
3B.wav,0.0,2.0,1.0,53.0,R,,,,,0,40,40,40,,,3,0.150228508079,pu,1,010,119.819331925,2C,auditory,2017_Nov_02_0956,
3B.wav,0.0,3.0,1.0,54.0,R,,,,,0,41,41,41,,,None,,pu,1,010,119.819331925,2C,auditory,2017_Nov_02_0956,
3A.wav,0.0,1.0,1.0,55.0,R,,,,,0,42,42,42,,,None,,pu,1,010,119.819331925,2C,auditory,2017_Nov_02_0956,
1C.wav,0.0,2.0,1.0,56.0,R,,,,,0,43,43,43,,,None,,pu,1,010,119.819331925,2C,auditory,2017_Nov_02_0956,
1C.wav,0.0,3.0,1.0,57.0,R,,,,,0,44,44,44,,,None,,pu,1,010,119.819331925,2C,auditory,2017_Nov_02_0956,
4B.wav,0.0,1.0,1.0,58.0,R,,,,,0,45,45,45,,,None,,pu,1,010,119.819331925,2C,auditory,2017_Nov_02_0956,
4C.wav,0.0,2.0,1.0,59.0,R,,,,,0,46,46,46,,,3,0.183568184497,pu,1,010,119.819331925,2C,auditory,2017_Nov_02_0956,
1A.wav,0.0,3.0,1.0,60.0,R,,,,,0,47,47,47,,,None,,pu,1,010,119.819331925,2C,auditory,2017_Nov_02_0956,
4B.wav,0.0,1.0,1.0,61.0,R,,,,,0,48,48,48,,,None,,pu,1,010,119.819331925,2C,auditory,2017_Nov_02_0956,
4A.wav,0.0,2.0,1.0,62.0,R,,,,,0,49,49,49,,,None,,pu,1,010,119.819331925,2C,auditory,2017_Nov_02_0956,
3C.wav,0.0,3.0,1.0,63.0,R,,,,,0,50,50,50,,,None,,pu,1,010,119.819331925,2C,auditory,2017_Nov_02_0956,
2C.wav,0.0,1.0,1.0,64.0,R,,,,,0,51,51,51,,,None,,pu,1,010,119.819331925,2C,auditory,2017_Nov_02_0956,
4A.wav,0.0,2.0,1.0,65.0,R,,,,,0,52,52,52,,,3,0.166925652884,pu,1,010,119.819331925,2C,auditory,2017_Nov_02_0956,
1A.wav,0.0,3.0,1.0,66.0,R,,,,,0,53,53,53,,,None,,pu,1,010,119.819331925,2C,auditory,2017_Nov_02_0956,
2B.wav,0.0,1.0,1.0,67.0,R,,,,,0,54,54,54,,,None,,pu,1,010,119.819331925,2C,auditory,2017_Nov_02_0956,
2A.wav,0.0,2.0,1.0,68.0,R,,,,,0,55,55,55,,,None,,pu,1,010,119.819331925,2C,auditory,2017_Nov_02_0956,
2A.wav,0.0,3.0,1.0,69.0,R,,,,,0,56,56,56,,,3,0.175239380915,pu,1,010,119.819331925,2C,auditory,2017_Nov_02_0956,
4C.wav,0.0,1.0,1.0,70.0,R,,,,,0,57,57,57,,,None,,pu,1,010,119.819331925,2C,auditory,2017_Nov_02_0956,
1B.wav,0.0,2.0,1.0,71.0,R,,,,,0,58,58,58,,,None,,pu,1,010,119.819331925,2C,auditory,2017_Nov_02_0956,
3A.wav,0.0,3.0,1.0,72.0,R,,,,,0,59,59,59,,,None,,pu,1,010,119.819331925,2C,auditory,2017_Nov_02_0956,
