"","image","trialnum","condition","l_block_trial_key_resp.keys","l_block_trial_key_resp.rt","v_block_trial_key_resp.keys","v_block_trial_key_resp.rt","vtarget","Run","PartID","ltarget","expName"
"1","Alien4.bmp",1,"S","",NA,"None",NA,6,4,4,"f","visual"
"2","Alien5.bmp",2,"S","",NA,"None",NA,6,4,4,"f","visual"
"3","Alien6.bmp",3,"S","",NA,"None",NA,6,4,4,"f","visual"
"4","Alien1.bmp",4,"S","",NA,"None",NA,6,4,4,"f","visual"
"5","Alien2.bmp",5,"S","",NA,"None",NA,6,4,4,"f","visual"
"6","Alien3.bmp",6,"S","",NA,"None",NA,6,4,4,"f","visual"
"7","Alien10.bmp",7,"S","",NA,"None",NA,6,4,4,"f","visual"
"8","Alien11.bmp",8,"S","",NA,"None",NA,6,4,4,"f","visual"
"9","Alien12.bmp",9,"S","",NA,"None",NA,6,4,4,"f","visual"
"10","Alien4.bmp",10,"S","",NA,"None",NA,6,4,4,"f","visual"
"11","Alien5.bmp",11,"S","",NA,"None",NA,6,4,4,"f","visual"
"12","Alien6.bmp",12,"S","",NA,"None",NA,6,4,4,"f","visual"
"13","Alien7.bmp",13,"S","",NA,"None",NA,6,4,4,"f","visual"
"14","Alien8.bmp",14,"S","",NA,"None",NA,6,4,4,"f","visual"
"15","Alien9.bmp",15,"S","",NA,"None",NA,6,4,4,"f","visual"
"16","Alien1.bmp",16,"S","",NA,"None",NA,6,4,4,"f","visual"
"17","Alien2.bmp",17,"S","",NA,"None",NA,6,4,4,"f","visual"
"18","Alien3.bmp",18,"S","",NA,"None",NA,6,4,4,"f","visual"
"19","Alien10.bmp",19,"S","",NA,"None",NA,6,4,4,"f","visual"
"20","Alien11.bmp",20,"S","",NA,"None",NA,6,4,4,"f","visual"
"21","Alien12.bmp",21,"S","",NA,"None",NA,6,4,4,"f","visual"
"22","Alien4.bmp",22,"S","",NA,"None",NA,6,4,4,"f","visual"
"23","Alien5.bmp",23,"S","",NA,"None",NA,6,4,4,"f","visual"
"24","Alien6.bmp",24,"S","",NA,"None",NA,6,4,4,"f","visual"
"25","blank.png",0,"B","",NA,"None",NA,6,4,4,"f","visual"
"26","blank.png",0,"B","",NA,"None",NA,6,4,4,"f","visual"
"27","blank.png",0,"B","",NA,"None",NA,6,4,4,"f","visual"
"28","blank.png",0,"B","",NA,"None",NA,6,4,4,"f","visual"
"29","blank.png",0,"B","",NA,"None",NA,6,4,4,"f","visual"
"30","blank.png",0,"B","",NA,"None",NA,6,4,4,"f","visual"
"31","blank.png",0,"B","",NA,"None",NA,6,4,4,"f","visual"
"32","blank.png",0,"B","",NA,"None",NA,6,4,4,"f","visual"
"33","blank.png",0,"B","",NA,"None",NA,6,4,4,"f","visual"
"34","blank.png",0,"B","",NA,"None",NA,6,4,4,"f","visual"
"35","blank.png",0,"B","",NA,"None",NA,6,4,4,"f","visual"
"36","blank.png",0,"B","",NA,"None",NA,6,4,4,"f","visual"
"37","B.png",1,"R","None",NA,"",NA,6,4,4,"f","visual"
"38","A.png",2,"R","None",NA,"",NA,6,4,4,"f","visual"
"39","K.png",3,"R","None",NA,"",NA,6,4,4,"f","visual"
"40","D.png",4,"R","None",NA,"",NA,6,4,4,"f","visual"
"41","C.png",5,"R","None",NA,"",NA,6,4,4,"f","visual"
"42","M.png",6,"R","None",NA,"",NA,6,4,4,"f","visual"
"43","E.png",7,"R","None",NA,"",NA,6,4,4,"f","visual"
"44","C.png",8,"R","None",NA,"",NA,6,4,4,"f","visual"
"45","J.png",9,"R","None",NA,"",NA,6,4,4,"f","visual"
"46","F.png",10,"R","3",0.647518284153,"",NA,6,4,4,"f","visual"
"47","J.png",11,"R","None",NA,"",NA,6,4,4,"f","visual"
"48","L.png",12,"R","None",NA,"",NA,6,4,4,"f","visual"
"49","G.png",13,"R","None",NA,"",NA,6,4,4,"f","visual"
"50","G.png",14,"R","None",NA,"",NA,6,4,4,"f","visual"
"51","A.png",15,"R","None",NA,"",NA,6,4,4,"f","visual"
"52","H.png",16,"R","None",NA,"",NA,6,4,4,"f","visual"
"53","K.png",17,"R","None",NA,"",NA,6,4,4,"f","visual"
"54","M.png",18,"R","None",NA,"",NA,6,4,4,"f","visual"
"55","F.png",19,"R","3",0.664588045795,"",NA,6,4,4,"f","visual"
"56","K.png",20,"R","None",NA,"",NA,6,4,4,"f","visual"
"57","B.png",21,"R","None",NA,"",NA,6,4,4,"f","visual"
"58","M.png",22,"R","None",NA,"",NA,6,4,4,"f","visual"
"59","D.png",23,"R","None",NA,"",NA,6,4,4,"f","visual"
"60","B.png",24,"R","None",NA,"",NA,6,4,4,"f","visual"
"61","Alien7.bmp",25,"S","",NA,"None",NA,6,4,4,"f","visual"
"62","Alien8.bmp",26,"S","",NA,"None",NA,6,4,4,"f","visual"
"63","Alien9.bmp",27,"S","",NA,"None",NA,6,4,4,"f","visual"
"64","Alien1.bmp",28,"S","",NA,"None",NA,6,4,4,"f","visual"
"65","Alien2.bmp",29,"S","",NA,"None",NA,6,4,4,"f","visual"
"66","Alien3.bmp",30,"S","",NA,"None",NA,6,4,4,"f","visual"
"67","Alien7.bmp",31,"S","",NA,"None",NA,6,4,4,"f","visual"
"68","Alien8.bmp",32,"S","",NA,"None",NA,6,4,4,"f","visual"
"69","Alien9.bmp",33,"S","",NA,"None",NA,6,4,4,"f","visual"
"70","Alien10.bmp",34,"S","",NA,"None",NA,6,4,4,"f","visual"
"71","Alien11.bmp",35,"S","",NA,"None",NA,6,4,4,"f","visual"
"72","Alien12.bmp",36,"S","",NA,"None",NA,6,4,4,"f","visual"
"73","Alien4.bmp",37,"S","",NA,"None",NA,6,4,4,"f","visual"
"74","Alien5.bmp",38,"S","",NA,"None",NA,6,4,4,"f","visual"
"75","Alien6.bmp",39,"S","",NA,"3",0.583570464747,6,4,4,"f","visual"
"76","Alien10.bmp",40,"S","",NA,"None",NA,6,4,4,"f","visual"
"77","Alien11.bmp",41,"S","",NA,"None",NA,6,4,4,"f","visual"
"78","Alien12.bmp",42,"S","",NA,"None",NA,6,4,4,"f","visual"
"79","Alien4.bmp",43,"S","",NA,"None",NA,6,4,4,"f","visual"
"80","Alien5.bmp",44,"S","",NA,"None",NA,6,4,4,"f","visual"
"81","Alien6.bmp",45,"S","",NA,"3",0.650277958717,6,4,4,"f","visual"
"82","Alien7.bmp",46,"S","",NA,"None",NA,6,4,4,"f","visual"
"83","Alien8.bmp",47,"S","",NA,"None",NA,6,4,4,"f","visual"
"84","Alien9.bmp",48,"S","",NA,"None",NA,6,4,4,"f","visual"
"85","blank.png",0,"B","",NA,"None",NA,6,4,4,"f","visual"
"86","blank.png",0,"B","",NA,"None",NA,6,4,4,"f","visual"
"87","blank.png",0,"B","",NA,"None",NA,6,4,4,"f","visual"
"88","blank.png",0,"B","",NA,"None",NA,6,4,4,"f","visual"
"89","blank.png",0,"B","",NA,"None",NA,6,4,4,"f","visual"
"90","blank.png",0,"B","",NA,"None",NA,6,4,4,"f","visual"
"91","blank.png",0,"B","",NA,"None",NA,6,4,4,"f","visual"
"92","blank.png",0,"B","",NA,"None",NA,6,4,4,"f","visual"
"93","blank.png",0,"B","",NA,"None",NA,6,4,4,"f","visual"
"94","blank.png",0,"B","",NA,"None",NA,6,4,4,"f","visual"
"95","blank.png",0,"B","",NA,"None",NA,6,4,4,"f","visual"
"96","blank.png",0,"B","",NA,"None",NA,6,4,4,"f","visual"
"97","Alien1.bmp",49,"S","",NA,"None",NA,6,4,4,"f","visual"
"98","Alien2.bmp",50,"S","",NA,"None",NA,6,4,4,"f","visual"
"99","Alien3.bmp",51,"S","",NA,"None",NA,6,4,4,"f","visual"
"100","Alien10.bmp",52,"S","",NA,"None",NA,6,4,4,"f","visual"
"101","Alien11.bmp",53,"S","",NA,"None",NA,6,4,4,"f","visual"
"102","Alien12.bmp",54,"S","",NA,"None",NA,6,4,4,"f","visual"
"103","Alien4.bmp",55,"S","",NA,"None",NA,6,4,4,"f","visual"
"104","Alien5.bmp",56,"S","",NA,"None",NA,6,4,4,"f","visual"
"105","Alien6.bmp",57,"S","",NA,"3",0.525283078663,6,4,4,"f","visual"
"106","Alien7.bmp",58,"S","",NA,"None",NA,6,4,4,"f","visual"
"107","Alien8.bmp",59,"S","",NA,"None",NA,6,4,4,"f","visual"
"108","Alien9.bmp",60,"S","",NA,"None",NA,6,4,4,"f","visual"
"109","Alien1.bmp",61,"S","",NA,"None",NA,6,4,4,"f","visual"
"110","Alien2.bmp",62,"S","",NA,"None",NA,6,4,4,"f","visual"
"111","Alien3.bmp",63,"S","",NA,"None",NA,6,4,4,"f","visual"
"112","Alien7.bmp",64,"S","",NA,"None",NA,6,4,4,"f","visual"
"113","Alien8.bmp",65,"S","",NA,"None",NA,6,4,4,"f","visual"
"114","Alien9.bmp",66,"S","",NA,"None",NA,6,4,4,"f","visual"
"115","Alien4.bmp",67,"S","",NA,"None",NA,6,4,4,"f","visual"
"116","Alien5.bmp",68,"S","",NA,"None",NA,6,4,4,"f","visual"
"117","Alien6.bmp",69,"S","",NA,"3",0.541899436619,6,4,4,"f","visual"
"118","Alien10.bmp",70,"S","",NA,"None",NA,6,4,4,"f","visual"
"119","Alien11.bmp",71,"S","",NA,"None",NA,6,4,4,"f","visual"
"120","Alien12.bmp",72,"S","",NA,"None",NA,6,4,4,"f","visual"
"121","K.png",25,"R","None",NA,"",NA,6,4,4,"f","visual"
"122","L.png",26,"R","None",NA,"",NA,6,4,4,"f","visual"
"123","B.png",27,"R","None",NA,"",NA,6,4,4,"f","visual"
"124","G.png",28,"R","None",NA,"",NA,6,4,4,"f","visual"
"125","D.png",29,"R","None",NA,"",NA,6,4,4,"f","visual"
"126","J.png",30,"R","None",NA,"",NA,6,4,4,"f","visual"
"127","H.png",31,"R","None",NA,"",NA,6,4,4,"f","visual"
"128","B.png",32,"R","None",NA,"",NA,6,4,4,"f","visual"
"129","C.png",33,"R","None",NA,"",NA,6,4,4,"f","visual"
"130","M.png",34,"R","None",NA,"",NA,6,4,4,"f","visual"
"131","K.png",35,"R","None",NA,"",NA,6,4,4,"f","visual"
"132","L.png",36,"R","None",NA,"",NA,6,4,4,"f","visual"
"133","E.png",37,"R","None",NA,"",NA,6,4,4,"f","visual"
"134","F.png",38,"R","3",0.647894603433,"",NA,6,4,4,"f","visual"
"135","A.png",39,"R","None",NA,"",NA,6,4,4,"f","visual"
"136","L.png",40,"R","None",NA,"",NA,6,4,4,"f","visual"
"137","E.png",41,"R","None",NA,"",NA,6,4,4,"f","visual"
"138","H.png",42,"R","None",NA,"",NA,6,4,4,"f","visual"
"139","C.png",43,"R","None",NA,"",NA,6,4,4,"f","visual"
"140","G.png",44,"R","None",NA,"",NA,6,4,4,"f","visual"
"141","M.png",45,"R","None",NA,"",NA,6,4,4,"f","visual"
"142","H.png",46,"R","None",NA,"",NA,6,4,4,"f","visual"
"143","D.png",47,"R","None",NA,"",NA,6,4,4,"f","visual"
"144","E.png",48,"R","None",NA,"",NA,6,4,4,"f","visual"
"145","blank.png",0,"B","",NA,"",NA,6,4,4,"f","visual"
"146","blank.png",0,"B","",NA,"",NA,6,4,4,"f","visual"
"147","blank.png",0,"B","",NA,"",NA,6,4,4,"f","visual"
"148","blank.png",0,"B","",NA,"",NA,6,4,4,"f","visual"
"149","blank.png",0,"B","",NA,"",NA,6,4,4,"f","visual"
"150","blank.png",0,"B","",NA,"",NA,6,4,4,"f","visual"
"151","blank.png",0,"B","",NA,"",NA,6,4,4,"f","visual"
"152","blank.png",0,"B","",NA,"",NA,6,4,4,"f","visual"
"153","blank.png",0,"B","",NA,"",NA,6,4,4,"f","visual"
"154","blank.png",0,"B","",NA,"",NA,6,4,4,"f","visual"
"155","blank.png",0,"B","",NA,"",NA,6,4,4,"f","visual"
"156","blank.png",0,"B","",NA,"",NA,6,4,4,"f","visual"
"157","B.png",49,"R","None",NA,"",NA,6,4,4,"f","visual"
"158","J.png",50,"R","None",NA,"",NA,6,4,4,"f","visual"
"159","K.png",51,"R","None",NA,"",NA,6,4,4,"f","visual"
"160","A.png",52,"R","None",NA,"",NA,6,4,4,"f","visual"
"161","H.png",53,"R","None",NA,"",NA,6,4,4,"f","visual"
"162","C.png",54,"R","None",NA,"",NA,6,4,4,"f","visual"
"163","F.png",55,"R","3",0.556359994458,"",NA,6,4,4,"f","visual"
"164","E.png",56,"R","None",NA,"",NA,6,4,4,"f","visual"
"165","J.png",57,"R","None",NA,"",NA,6,4,4,"f","visual"
"166","F.png",58,"R","3",0.55635345215,"",NA,6,4,4,"f","visual"
"167","C.png",59,"R","None",NA,"",NA,6,4,4,"f","visual"
"168","A.png",60,"R","None",NA,"",NA,6,4,4,"f","visual"
"169","G.png",61,"R","None",NA,"",NA,6,4,4,"f","visual"
"170","B.png",62,"R","None",NA,"",NA,6,4,4,"f","visual"
"171","E.png",63,"R","None",NA,"",NA,6,4,4,"f","visual"
"172","K.png",64,"R","None",NA,"",NA,6,4,4,"f","visual"
"173","G.png",65,"R","None",NA,"",NA,6,4,4,"f","visual"
"174","D.png",66,"R","None",NA,"",NA,6,4,4,"f","visual"
"175","D.png",67,"R","None",NA,"",NA,6,4,4,"f","visual"
"176","M.png",68,"R","None",NA,"",NA,6,4,4,"f","visual"
"177","H.png",69,"R","None",NA,"",NA,6,4,4,"f","visual"
"178","M.png",70,"R","None",NA,"",NA,6,4,4,"f","visual"
"179","L.png",71,"R","None",NA,"",NA,6,4,4,"f","visual"
"180","L.png",72,"R","None",NA,"",NA,6,4,4,"f","visual"
"181","Alien1.bmp",73,"S","",NA,"None",NA,6,4,4,"f","visual"
"182","Alien2.bmp",74,"S","",NA,"None",NA,6,4,4,"f","visual"
"183","Alien3.bmp",75,"S","",NA,"None",NA,6,4,4,"f","visual"
"184","Alien4.bmp",76,"S","",NA,"None",NA,6,4,4,"f","visual"
"185","Alien5.bmp",77,"S","",NA,"None",NA,6,4,4,"f","visual"
"186","Alien6.bmp",78,"S","",NA,"3",0.525342527311,6,4,4,"f","visual"
"187","Alien7.bmp",79,"S","",NA,"None",NA,6,4,4,"f","visual"
"188","Alien8.bmp",80,"S","",NA,"None",NA,6,4,4,"f","visual"
"189","Alien9.bmp",81,"S","",NA,"None",NA,6,4,4,"f","visual"
"190","Alien10.bmp",82,"S","",NA,"None",NA,6,4,4,"f","visual"
"191","Alien11.bmp",83,"S","",NA,"None",NA,6,4,4,"f","visual"
"192","Alien12.bmp",84,"S","",NA,"None",NA,6,4,4,"f","visual"
"193","Alien1.bmp",85,"S","",NA,"None",NA,6,4,4,"f","visual"
"194","Alien2.bmp",86,"S","",NA,"None",NA,6,4,4,"f","visual"
"195","Alien3.bmp",87,"S","",NA,"None",NA,6,4,4,"f","visual"
"196","Alien7.bmp",88,"S","",NA,"None",NA,6,4,4,"f","visual"
"197","Alien8.bmp",89,"S","",NA,"None",NA,6,4,4,"f","visual"
"198","Alien9.bmp",90,"S","",NA,"None",NA,6,4,4,"f","visual"
"199","Alien4.bmp",91,"S","",NA,"None",NA,6,4,4,"f","visual"
"200","Alien5.bmp",92,"S","",NA,"None",NA,6,4,4,"f","visual"
"201","Alien6.bmp",93,"S","",NA,"3",0.57526811678,6,4,4,"f","visual"
"202","Alien10.bmp",94,"S","",NA,"None",NA,6,4,4,"f","visual"
"203","Alien11.bmp",95,"S","",NA,"None",NA,6,4,4,"f","visual"
"204","Alien12.bmp",96,"S","",NA,"None",NA,6,4,4,"f","visual"
"205","blank.png",0,"B","",NA,"None",NA,6,4,4,"f","visual"
"206","blank.png",0,"B","",NA,"None",NA,6,4,4,"f","visual"
"207","blank.png",0,"B","",NA,"None",NA,6,4,4,"f","visual"
"208","blank.png",0,"B","",NA,"None",NA,6,4,4,"f","visual"
"209","blank.png",0,"B","",NA,"None",NA,6,4,4,"f","visual"
"210","blank.png",0,"B","",NA,"None",NA,6,4,4,"f","visual"
"211","blank.png",0,"B","",NA,"None",NA,6,4,4,"f","visual"
"212","blank.png",0,"B","",NA,"None",NA,6,4,4,"f","visual"
"213","blank.png",0,"B","",NA,"None",NA,6,4,4,"f","visual"
"214","blank.png",0,"B","",NA,"None",NA,6,4,4,"f","visual"
"215","blank.png",0,"B","",NA,"None",NA,6,4,4,"f","visual"
"216","blank.png",0,"B","",NA,"None",NA,6,4,4,"f","visual"
"217","M.png",73,"R","None",NA,"",NA,6,4,4,"f","visual"
"218","B.png",74,"R","None",NA,"",NA,6,4,4,"f","visual"
"219","C.png",75,"R","None",NA,"",NA,6,4,4,"f","visual"
"220","J.png",76,"R","None",NA,"",NA,6,4,4,"f","visual"
"221","L.png",77,"R","None",NA,"",NA,6,4,4,"f","visual"
"222","E.png",78,"R","None",NA,"",NA,6,4,4,"f","visual"
"223","A.png",79,"R","None",NA,"",NA,6,4,4,"f","visual"
"224","K.png",80,"R","None",NA,"",NA,6,4,4,"f","visual"
"225","L.png",81,"R","None",NA,"",NA,6,4,4,"f","visual"
"226","B.png",82,"R","None",NA,"",NA,6,4,4,"f","visual"
"227","G.png",83,"R","None",NA,"",NA,6,4,4,"f","visual"
"228","K.png",84,"R","None",NA,"",NA,6,4,4,"f","visual"
"229","H.png",85,"R","None",NA,"",NA,6,4,4,"f","visual"
"230","H.png",86,"R","None",NA,"",NA,6,4,4,"f","visual"
"231","F.png",87,"R","3",0.431290874491,"",NA,6,4,4,"f","visual"
"232","J.png",88,"R","None",NA,"",NA,6,4,4,"f","visual"
"233","G.png",89,"R","None",NA,"",NA,6,4,4,"f","visual"
"234","A.png",90,"R","None",NA,"",NA,6,4,4,"f","visual"
"235","E.png",91,"R","None",NA,"",NA,6,4,4,"f","visual"
"236","D.png",92,"R","None",NA,"",NA,6,4,4,"f","visual"
"237","D.png",93,"R","None",NA,"",NA,6,4,4,"f","visual"
"238","C.png",94,"R","None",NA,"",NA,6,4,4,"f","visual"
"239","F.png",95,"R","None",NA,"",NA,6,4,4,"f","visual"
"240","M.png",96,"R","None",NA,"",NA,6,4,4,"f","visual"
"241","Alien4.bmp",97,"S","",NA,"None",NA,6,4,4,"f","visual"
"242","Alien5.bmp",98,"S","",NA,"None",NA,6,4,4,"f","visual"
"243","Alien6.bmp",99,"S","",NA,"3",0.642059237231,6,4,4,"f","visual"
"244","Alien1.bmp",100,"S","",NA,"None",NA,6,4,4,"f","visual"
"245","Alien2.bmp",101,"S","",NA,"None",NA,6,4,4,"f","visual"
"246","Alien3.bmp",102,"S","",NA,"None",NA,6,4,4,"f","visual"
"247","Alien7.bmp",103,"S","",NA,"None",NA,6,4,4,"f","visual"
"248","Alien8.bmp",104,"S","",NA,"None",NA,6,4,4,"f","visual"
"249","Alien9.bmp",105,"S","",NA,"None",NA,6,4,4,"f","visual"
"250","Alien10.bmp",106,"S","",NA,"None",NA,6,4,4,"f","visual"
"251","Alien11.bmp",107,"S","",NA,"None",NA,6,4,4,"f","visual"
"252","Alien12.bmp",108,"S","",NA,"None",NA,6,4,4,"f","visual"
"253","Alien1.bmp",109,"S","",NA,"None",NA,6,4,4,"f","visual"
"254","Alien2.bmp",110,"S","",NA,"None",NA,6,4,4,"f","visual"
"255","Alien3.bmp",111,"S","",NA,"None",NA,6,4,4,"f","visual"
"256","Alien4.bmp",112,"S","",NA,"None",NA,6,4,4,"f","visual"
"257","Alien5.bmp",113,"S","",NA,"None",NA,6,4,4,"f","visual"
"258","Alien6.bmp",114,"S","",NA,"3",0.466914057033,6,4,4,"f","visual"
"259","Alien10.bmp",115,"S","",NA,"None",NA,6,4,4,"f","visual"
"260","Alien11.bmp",116,"S","",NA,"None",NA,6,4,4,"f","visual"
"261","Alien12.bmp",117,"S","",NA,"None",NA,6,4,4,"f","visual"
"262","Alien7.bmp",118,"S","",NA,"None",NA,6,4,4,"f","visual"
"263","Alien8.bmp",119,"S","",NA,"None",NA,6,4,4,"f","visual"
"264","Alien9.bmp",120,"S","",NA,"None",NA,6,4,4,"f","visual"
"265","E.png",97,"R","None",NA,"",NA,6,4,4,"f","visual"
"266","L.png",98,"R","None",NA,"",NA,6,4,4,"f","visual"
"267","G.png",99,"R","None",NA,"",NA,6,4,4,"f","visual"
"268","K.png",100,"R","None",NA,"",NA,6,4,4,"f","visual"
"269","F.png",101,"R","3",0.547924811253,"",NA,6,4,4,"f","visual"
"270","C.png",102,"R","None",NA,"",NA,6,4,4,"f","visual"
"271","M.png",103,"R","None",NA,"",NA,6,4,4,"f","visual"
"272","D.png",104,"R","None",NA,"",NA,6,4,4,"f","visual"
"273","F.png",105,"R","3",0.472397281555,"",NA,6,4,4,"f","visual"
"274","B.png",106,"R","None",NA,"",NA,6,4,4,"f","visual"
"275","A.png",107,"R","None",NA,"",NA,6,4,4,"f","visual"
"276","C.png",108,"R","None",NA,"",NA,6,4,4,"f","visual"
"277","H.png",109,"R","None",NA,"",NA,6,4,4,"f","visual"
"278","J.png",110,"R","None",NA,"",NA,6,4,4,"f","visual"
"279","E.png",111,"R","None",NA,"",NA,6,4,4,"f","visual"
"280","A.png",112,"R","None",NA,"",NA,6,4,4,"f","visual"
"281","G.png",113,"R","None",NA,"",NA,6,4,4,"f","visual"
"282","D.png",114,"R","None",NA,"",NA,6,4,4,"f","visual"
"283","J.png",115,"R","None",NA,"",NA,6,4,4,"f","visual"
"284","H.png",116,"R","None",NA,"",NA,6,4,4,"f","visual"
"285","B.png",117,"R","None",NA,"",NA,6,4,4,"f","visual"
"286","L.png",118,"R","None",NA,"",NA,6,4,4,"f","visual"
"287","K.png",119,"R","None",NA,"",NA,6,4,4,"f","visual"
"288","M.png",120,"R","None",NA,"",NA,6,4,4,"f","visual"
"289","blank.png",0,"B","",NA,"",NA,6,4,4,"f","visual"
"290","blank.png",0,"B","",NA,"",NA,6,4,4,"f","visual"
"291","blank.png",0,"B","",NA,"",NA,6,4,4,"f","visual"
"292","blank.png",0,"B","",NA,"",NA,6,4,4,"f","visual"
"293","blank.png",0,"B","",NA,"",NA,6,4,4,"f","visual"
"294","blank.png",0,"B","",NA,"",NA,6,4,4,"f","visual"
"295","blank.png",0,"B","",NA,"",NA,6,4,4,"f","visual"
"296","blank.png",0,"B","",NA,"",NA,6,4,4,"f","visual"
"297","blank.png",0,"B","",NA,"",NA,6,4,4,"f","visual"
"298","blank.png",0,"B","",NA,"",NA,6,4,4,"f","visual"
"299","blank.png",0,"B","",NA,"",NA,6,4,4,"f","visual"
"300","blank.png",0,"B","",NA,"",NA,6,4,4,"f","visual"
"301","Alien1.bmp",121,"S","",NA,"None",NA,6,4,4,"f","visual"
"302","Alien2.bmp",122,"S","",NA,"None",NA,6,4,4,"f","visual"
"303","Alien3.bmp",123,"S","",NA,"None",NA,6,4,4,"f","visual"
"304","Alien4.bmp",124,"S","",NA,"None",NA,6,4,4,"f","visual"
"305","Alien5.bmp",125,"S","",NA,"None",NA,6,4,4,"f","visual"
"306","Alien6.bmp",126,"S","",NA,"3",0.466958714649,6,4,4,"f","visual"
"307","Alien1.bmp",127,"S","",NA,"None",NA,6,4,4,"f","visual"
"308","Alien2.bmp",128,"S","",NA,"None",NA,6,4,4,"f","visual"
"309","Alien3.bmp",129,"S","",NA,"None",NA,6,4,4,"f","visual"
"310","Alien7.bmp",130,"S","",NA,"None",NA,6,4,4,"f","visual"
"311","Alien8.bmp",131,"S","",NA,"None",NA,6,4,4,"f","visual"
"312","Alien9.bmp",132,"S","",NA,"None",NA,6,4,4,"f","visual"
"313","Alien10.bmp",133,"S","",NA,"None",NA,6,4,4,"f","visual"
"314","Alien11.bmp",134,"S","",NA,"None",NA,6,4,4,"f","visual"
"315","Alien12.bmp",135,"S","",NA,"None",NA,6,4,4,"f","visual"
"316","Alien7.bmp",136,"S","",NA,"None",NA,6,4,4,"f","visual"
"317","Alien8.bmp",137,"S","",NA,"None",NA,6,4,4,"f","visual"
"318","Alien9.bmp",138,"S","",NA,"None",NA,6,4,4,"f","visual"
"319","Alien10.bmp",139,"S","",NA,"None",NA,6,4,4,"f","visual"
"320","Alien11.bmp",140,"S","",NA,"None",NA,6,4,4,"f","visual"
"321","Alien12.bmp",141,"S","",NA,"None",NA,6,4,4,"f","visual"
"322","Alien1.bmp",142,"S","",NA,"None",NA,6,4,4,"f","visual"
"323","Alien2.bmp",143,"S","",NA,"None",NA,6,4,4,"f","visual"
"324","Alien3.bmp",144,"S","",NA,"None",NA,6,4,4,"f","visual"
"325","M.png",121,"R","None",NA,"",NA,6,4,4,"f","visual"
"326","G.png",122,"R","None",NA,"",NA,6,4,4,"f","visual"
"327","H.png",123,"R","None",NA,"",NA,6,4,4,"f","visual"
"328","F.png",124,"R","3",0.464670079295,"",NA,6,4,4,"f","visual"
"329","A.png",125,"R","None",NA,"",NA,6,4,4,"f","visual"
"330","D.png",126,"R","None",NA,"",NA,6,4,4,"f","visual"
"331","D.png",127,"R","None",NA,"",NA,6,4,4,"f","visual"
"332","H.png",128,"R","None",NA,"",NA,6,4,4,"f","visual"
"333","F.png",129,"R","3",0.464664959116,"",NA,6,4,4,"f","visual"
"334","L.png",130,"R","None",NA,"",NA,6,4,4,"f","visual"
"335","A.png",131,"R","None",NA,"",NA,6,4,4,"f","visual"
"336","A.png",132,"R","None",NA,"",NA,6,4,4,"f","visual"
"337","J.png",133,"R","None",NA,"",NA,6,4,4,"f","visual"
"338","E.png",134,"R","None",NA,"",NA,6,4,4,"f","visual"
"339","C.png",135,"R","None",NA,"",NA,6,4,4,"f","visual"
"340","B.png",136,"R","None",NA,"",NA,6,4,4,"f","visual"
"341","J.png",137,"R","None",NA,"",NA,6,4,4,"f","visual"
"342","E.png",138,"R","None",NA,"",NA,6,4,4,"f","visual"
"343","L.png",139,"R","None",NA,"",NA,6,4,4,"f","visual"
"344","C.png",140,"R","None",NA,"",NA,6,4,4,"f","visual"
"345","F.png",141,"R","3",0.530713396613,"",NA,6,4,4,"f","visual"
"346","K.png",142,"R","None",NA,"",NA,6,4,4,"f","visual"
"347","J.png",143,"R","None",NA,"",NA,6,4,4,"f","visual"
"348","G.png",144,"R","None",NA,"",NA,6,4,4,"f","visual"
"349","blank.png",0,"B","",NA,"",NA,6,4,4,"f","visual"
"350","blank.png",0,"B","",NA,"",NA,6,4,4,"f","visual"
"351","blank.png",0,"B","",NA,"",NA,6,4,4,"f","visual"
"352","blank.png",0,"B","",NA,"",NA,6,4,4,"f","visual"
"353","blank.png",0,"B","",NA,"",NA,6,4,4,"f","visual"
"354","blank.png",0,"B","",NA,"",NA,6,4,4,"f","visual"
"355","blank.png",0,"B","",NA,"",NA,6,4,4,"f","visual"
"356","blank.png",0,"B","",NA,"",NA,6,4,4,"f","visual"
"357","blank.png",0,"B","",NA,"",NA,6,4,4,"f","visual"
"358","blank.png",0,"B","",NA,"",NA,6,4,4,"f","visual"
"359","blank.png",0,"B","",NA,"",NA,6,4,4,"f","visual"
"360","blank.png",0,"B","",NA,"",NA,6,4,4,"f","visual"
"361","L.png",145,"R","None",NA,"",NA,6,4,4,"f","visual"
"362","B.png",146,"R","None",NA,"",NA,6,4,4,"f","visual"
"363","J.png",147,"R","None",NA,"",NA,6,4,4,"f","visual"
"364","B.png",148,"R","None",NA,"",NA,6,4,4,"f","visual"
"365","L.png",149,"R","None",NA,"",NA,6,4,4,"f","visual"
"366","A.png",150,"R","None",NA,"",NA,6,4,4,"f","visual"
"367","H.png",151,"R","None",NA,"",NA,6,4,4,"f","visual"
"368","M.png",152,"R","None",NA,"",NA,6,4,4,"f","visual"
"369","F.png",153,"R","3",0.497908199672,"",NA,6,4,4,"f","visual"
"370","E.png",154,"R","None",NA,"",NA,6,4,4,"f","visual"
"371","B.png",155,"R","None",NA,"",NA,6,4,4,"f","visual"
"372","C.png",156,"R","None",NA,"",NA,6,4,4,"f","visual"
"373","K.png",157,"R","None",NA,"",NA,6,4,4,"f","visual"
"374","A.png",158,"R","None",NA,"",NA,6,4,4,"f","visual"
"375","F.png",159,"R","None",NA,"",NA,6,4,4,"f","visual"
"376","M.png",160,"R","3",0.0648682797328,"",NA,6,4,4,"f","visual"
"377","G.png",161,"R","None",NA,"",NA,6,4,4,"f","visual"
"378","E.png",162,"R","None",NA,"",NA,6,4,4,"f","visual"
"379","D.png",163,"R","None",NA,"",NA,6,4,4,"f","visual"
"380","M.png",164,"R","None",NA,"",NA,6,4,4,"f","visual"
"381","H.png",165,"R","None",NA,"",NA,6,4,4,"f","visual"
"382","K.png",166,"R","None",NA,"",NA,6,4,4,"f","visual"
"383","K.png",167,"R","None",NA,"",NA,6,4,4,"f","visual"
"384","J.png",168,"R","None",NA,"",NA,6,4,4,"f","visual"
"385","Alien4.bmp",145,"S","",NA,"None",NA,6,4,4,"f","visual"
"386","Alien5.bmp",146,"S","",NA,"None",NA,6,4,4,"f","visual"
"387","Alien6.bmp",147,"S","",NA,"3",0.467036652379,6,4,4,"f","visual"
"388","Alien10.bmp",148,"S","",NA,"None",NA,6,4,4,"f","visual"
"389","Alien11.bmp",149,"S","",NA,"None",NA,6,4,4,"f","visual"
"390","Alien12.bmp",150,"S","",NA,"None",NA,6,4,4,"f","visual"
"391","Alien4.bmp",151,"S","",NA,"None",NA,6,4,4,"f","visual"
"392","Alien5.bmp",152,"S","",NA,"None",NA,6,4,4,"f","visual"
"393","Alien6.bmp",153,"S","",NA,"3",0.45025929925,6,4,4,"f","visual"
"394","Alien7.bmp",154,"S","",NA,"None",NA,6,4,4,"f","visual"
"395","Alien8.bmp",155,"S","",NA,"None",NA,6,4,4,"f","visual"
"396","Alien9.bmp",156,"S","",NA,"None",NA,6,4,4,"f","visual"
"397","Alien1.bmp",157,"S","",NA,"None",NA,6,4,4,"f","visual"
"398","Alien2.bmp",158,"S","",NA,"None",NA,6,4,4,"f","visual"
"399","Alien3.bmp",159,"S","",NA,"None",NA,6,4,4,"f","visual"
"400","Alien4.bmp",160,"S","",NA,"None",NA,6,4,4,"f","visual"
"401","Alien5.bmp",161,"S","",NA,"None",NA,6,4,4,"f","visual"
"402","Alien6.bmp",162,"S","",NA,"3",0.416913943365,6,4,4,"f","visual"
"403","Alien7.bmp",163,"S","",NA,"None",NA,6,4,4,"f","visual"
"404","Alien8.bmp",164,"S","",NA,"None",NA,6,4,4,"f","visual"
"405","Alien9.bmp",165,"S","",NA,"None",NA,6,4,4,"f","visual"
"406","Alien1.bmp",166,"S","",NA,"None",NA,6,4,4,"f","visual"
"407","Alien2.bmp",167,"S","",NA,"None",NA,6,4,4,"f","visual"
"408","Alien3.bmp",168,"S","",NA,"None",NA,6,4,4,"f","visual"
"409","blank.png",0,"B","",NA,"None",NA,6,4,4,"f","visual"
"410","blank.png",0,"B","",NA,"None",NA,6,4,4,"f","visual"
"411","blank.png",0,"B","",NA,"None",NA,6,4,4,"f","visual"
"412","blank.png",0,"B","",NA,"None",NA,6,4,4,"f","visual"
"413","blank.png",0,"B","",NA,"None",NA,6,4,4,"f","visual"
"414","blank.png",0,"B","",NA,"None",NA,6,4,4,"f","visual"
"415","blank.png",0,"B","",NA,"None",NA,6,4,4,"f","visual"
"416","blank.png",0,"B","",NA,"None",NA,6,4,4,"f","visual"
"417","blank.png",0,"B","",NA,"None",NA,6,4,4,"f","visual"
"418","blank.png",0,"B","",NA,"None",NA,6,4,4,"f","visual"
"419","blank.png",0,"B","",NA,"None",NA,6,4,4,"f","visual"
"420","blank.png",0,"B","",NA,"None",NA,6,4,4,"f","visual"
"421","Alien10.bmp",169,"S","",NA,"None",NA,6,4,4,"f","visual"
"422","Alien11.bmp",170,"S","",NA,"None",NA,6,4,4,"f","visual"
"423","Alien12.bmp",171,"S","",NA,"None",NA,6,4,4,"f","visual"
"424","Alien1.bmp",172,"S","",NA,"None",NA,6,4,4,"f","visual"
"425","Alien2.bmp",173,"S","",NA,"None",NA,6,4,4,"f","visual"
"426","Alien3.bmp",174,"S","",NA,"None",NA,6,4,4,"f","visual"
"427","Alien4.bmp",175,"S","",NA,"None",NA,6,4,4,"f","visual"
"428","Alien5.bmp",176,"S","",NA,"None",NA,6,4,4,"f","visual"
"429","Alien6.bmp",177,"S","",NA,"3",0.583627068903,6,4,4,"f","visual"
"430","Alien10.bmp",178,"S","",NA,"None",NA,6,4,4,"f","visual"
"431","Alien11.bmp",179,"S","",NA,"None",NA,6,4,4,"f","visual"
"432","Alien12.bmp",180,"S","",NA,"None",NA,6,4,4,"f","visual"
"433","Alien7.bmp",181,"S","",NA,"None",NA,6,4,4,"f","visual"
"434","Alien8.bmp",182,"S","",NA,"None",NA,6,4,4,"f","visual"
"435","Alien9.bmp",183,"S","",NA,"None",NA,6,4,4,"f","visual"
"436","Alien10.bmp",184,"S","",NA,"None",NA,6,4,4,"f","visual"
"437","Alien11.bmp",185,"S","",NA,"None",NA,6,4,4,"f","visual"
"438","Alien12.bmp",186,"S","",NA,"None",NA,6,4,4,"f","visual"
"439","Alien1.bmp",187,"S","",NA,"None",NA,6,4,4,"f","visual"
"440","Alien2.bmp",188,"S","",NA,"None",NA,6,4,4,"f","visual"
"441","Alien3.bmp",189,"S","",NA,"None",NA,6,4,4,"f","visual"
"442","Alien7.bmp",190,"S","",NA,"None",NA,6,4,4,"f","visual"
"443","Alien8.bmp",191,"S","",NA,"None",NA,6,4,4,"f","visual"
"444","Alien9.bmp",192,"S","",NA,"None",NA,6,4,4,"f","visual"
"445","blank.png",0,"B","",NA,"None",NA,6,4,4,"f","visual"
"446","blank.png",0,"B","",NA,"None",NA,6,4,4,"f","visual"
"447","blank.png",0,"B","",NA,"None",NA,6,4,4,"f","visual"
"448","blank.png",0,"B","",NA,"None",NA,6,4,4,"f","visual"
"449","blank.png",0,"B","",NA,"None",NA,6,4,4,"f","visual"
"450","blank.png",0,"B","",NA,"None",NA,6,4,4,"f","visual"
"451","blank.png",0,"B","",NA,"None",NA,6,4,4,"f","visual"
"452","blank.png",0,"B","",NA,"None",NA,6,4,4,"f","visual"
"453","blank.png",0,"B","",NA,"None",NA,6,4,4,"f","visual"
"454","blank.png",0,"B","",NA,"None",NA,6,4,4,"f","visual"
"455","blank.png",0,"B","",NA,"None",NA,6,4,4,"f","visual"
"456","blank.png",0,"B","",NA,"None",NA,6,4,4,"f","visual"
"457","A.png",169,"R","None",NA,"",NA,6,4,4,"f","visual"
"458","H.png",170,"R","None",NA,"",NA,6,4,4,"f","visual"
"459","G.png",171,"R","None",NA,"",NA,6,4,4,"f","visual"
"460","C.png",172,"R","None",NA,"",NA,6,4,4,"f","visual"
"461","F.png",173,"R","3",0.714565972798,"",NA,6,4,4,"f","visual"
"462","K.png",174,"R","None",NA,"",NA,6,4,4,"f","visual"
"463","D.png",175,"R","None",NA,"",NA,6,4,4,"f","visual"
"464","C.png",176,"R","None",NA,"",NA,6,4,4,"f","visual"
"465","H.png",177,"R","None",NA,"",NA,6,4,4,"f","visual"
"466","E.png",178,"R","None",NA,"",NA,6,4,4,"f","visual"
"467","L.png",179,"R","None",NA,"",NA,6,4,4,"f","visual"
"468","A.png",180,"R","None",NA,"",NA,6,4,4,"f","visual"
"469","F.png",181,"R","3",0.689002432628,"",NA,6,4,4,"f","visual"
"470","J.png",182,"R","None",NA,"",NA,6,4,4,"f","visual"
"471","M.png",183,"R","None",NA,"",NA,6,4,4,"f","visual"
"472","E.png",184,"R","None",NA,"",NA,6,4,4,"f","visual"
"473","G.png",185,"R","None",NA,"",NA,6,4,4,"f","visual"
"474","C.png",186,"R","None",NA,"",NA,6,4,4,"f","visual"
"475","D.png",187,"R","None",NA,"",NA,6,4,4,"f","visual"
"476","D.png",188,"R","None",NA,"",NA,6,4,4,"f","visual"
"477","G.png",189,"R","None",NA,"",NA,6,4,4,"f","visual"
"478","L.png",190,"R","None",NA,"",NA,6,4,4,"f","visual"
"479","B.png",191,"R","None",NA,"",NA,6,4,4,"f","visual"
"480","J.png",192,"R","None",NA,"",NA,6,4,4,"f","visual"
