"","image","trialnum","condition","l_block_trial_key_resp.keys","l_block_trial_key_resp.rt","v_block_trial_key_resp.keys","v_block_trial_key_resp.rt","vtarget","Run","PartID","ltarget","expName"
"1","Alien4.bmp",379,"S","",NA,"None",NA,12,6,16,"c","visual"
"2","Alien5.bmp",380,"S","",NA,"None",NA,12,6,16,"c","visual"
"3","Alien6.bmp",381,"S","",NA,"None",NA,12,6,16,"c","visual"
"4","Alien4.bmp",385,"S","",NA,"None",NA,12,6,16,"c","visual"
"5","Alien5.bmp",386,"S","",NA,"None",NA,12,6,16,"c","visual"
"6","Alien6.bmp",387,"S","",NA,"None",NA,12,6,16,"c","visual"
"7","Alien7.bmp",391,"S","",NA,"None",NA,12,6,16,"c","visual"
"8","Alien8.bmp",392,"S","",NA,"None",NA,12,6,16,"c","visual"
"9","Alien9.bmp",393,"S","",NA,"None",NA,12,6,16,"c","visual"
"10","Alien10.bmp",394,"S","",NA,"None",NA,12,6,16,"c","visual"
"11","Alien11.bmp",395,"S","",NA,"None",NA,12,6,16,"c","visual"
"12","Alien12.bmp",396,"S","",NA,"3",0.366983546934,12,6,16,"c","visual"
"13","Alien1.bmp",397,"S","",NA,"None",NA,12,6,16,"c","visual"
"14","Alien2.bmp",398,"S","",NA,"None",NA,12,6,16,"c","visual"
"15","Alien3.bmp",399,"S","",NA,"None",NA,12,6,16,"c","visual"
"16","Alien4.bmp",400,"S","",NA,"None",NA,12,6,16,"c","visual"
"17","Alien5.bmp",401,"S","",NA,"None",NA,12,6,16,"c","visual"
"18","Alien6.bmp",402,"S","",NA,"None",NA,12,6,16,"c","visual"
"19","Alien10.bmp",403,"S","",NA,"None",NA,12,6,16,"c","visual"
"20","Alien11.bmp",404,"S","",NA,"None",NA,12,6,16,"c","visual"
"21","Alien12.bmp",405,"S","",NA,"3",0.466979024233,12,6,16,"c","visual"
"22","Alien7.bmp",406,"S","",NA,"None",NA,12,6,16,"c","visual"
"23","Alien8.bmp",407,"S","",NA,"None",NA,12,6,16,"c","visual"
"24","Alien9.bmp",408,"S","",NA,"None",NA,12,6,16,"c","visual"
"25","K.png",385,"R","None",NA,"",NA,12,6,16,"c","visual"
"26","E.png",386,"R","None",NA,"",NA,12,6,16,"c","visual"
"27","B.png",387,"R","None",NA,"",NA,12,6,16,"c","visual"
"28","B.png",388,"R","None",NA,"",NA,12,6,16,"c","visual"
"29","D.png",389,"R","None",NA,"",NA,12,6,16,"c","visual"
"30","B.png",390,"R","None",NA,"",NA,12,6,16,"c","visual"
"31","G.png",391,"R","None",NA,"",NA,12,6,16,"c","visual"
"32","K.png",392,"R","None",NA,"",NA,12,6,16,"c","visual"
"33","D.png",393,"R","None",NA,"",NA,12,6,16,"c","visual"
"34","L.png",394,"R","None",NA,"",NA,12,6,16,"c","visual"
"35","L.png",395,"R","None",NA,"",NA,12,6,16,"c","visual"
"36","G.png",396,"R","None",NA,"",NA,12,6,16,"c","visual"
"37","E.png",397,"R","None",NA,"",NA,12,6,16,"c","visual"
"38","M.png",398,"R","None",NA,"",NA,12,6,16,"c","visual"
"39","K.png",399,"R","None",NA,"",NA,12,6,16,"c","visual"
"40","C.png",400,"R","3",0.521365024557,"",NA,12,6,16,"c","visual"
"41","A.png",401,"R","None",NA,"",NA,12,6,16,"c","visual"
"42","F.png",402,"R","None",NA,"",NA,12,6,16,"c","visual"
"43","J.png",403,"R","None",NA,"",NA,12,6,16,"c","visual"
"44","M.png",404,"R","None",NA,"",NA,12,6,16,"c","visual"
"45","C.png",405,"R","3",0.446454105375,"",NA,12,6,16,"c","visual"
"46","H.png",406,"R","None",NA,"",NA,12,6,16,"c","visual"
"47","M.png",407,"R","None",NA,"",NA,12,6,16,"c","visual"
"48","H.png",408,"R","None",NA,"",NA,12,6,16,"c","visual"
"49","blank.png",0,"B","",NA,"",NA,12,6,16,"c","visual"
"50","blank.png",0,"B","",NA,"",NA,12,6,16,"c","visual"
"51","blank.png",0,"B","",NA,"",NA,12,6,16,"c","visual"
"52","blank.png",0,"B","",NA,"",NA,12,6,16,"c","visual"
"53","blank.png",0,"B","",NA,"",NA,12,6,16,"c","visual"
"54","blank.png",0,"B","",NA,"",NA,12,6,16,"c","visual"
"55","blank.png",0,"B","",NA,"",NA,12,6,16,"c","visual"
"56","blank.png",0,"B","",NA,"",NA,12,6,16,"c","visual"
"57","blank.png",0,"B","",NA,"",NA,12,6,16,"c","visual"
"58","blank.png",0,"B","",NA,"",NA,12,6,16,"c","visual"
"59","blank.png",0,"B","",NA,"",NA,12,6,16,"c","visual"
"60","blank.png",0,"B","",NA,"",NA,12,6,16,"c","visual"
"61","A.png",433,"R","None",NA,"",NA,12,6,16,"c","visual"
"62","E.png",434,"R","None",NA,"",NA,12,6,16,"c","visual"
"63","E.png",435,"R","None",NA,"",NA,12,6,16,"c","visual"
"64","B.png",436,"R","None",NA,"",NA,12,6,16,"c","visual"
"65","C.png",437,"R","3",0.37310364662,"",NA,12,6,16,"c","visual"
"66","J.png",438,"R","None",NA,"",NA,12,6,16,"c","visual"
"67","M.png",439,"R","None",NA,"",NA,12,6,16,"c","visual"
"68","G.png",440,"R","None",NA,"",NA,12,6,16,"c","visual"
"69","A.png",441,"R","None",NA,"",NA,12,6,16,"c","visual"
"70","M.png",442,"R","None",NA,"",NA,12,6,16,"c","visual"
"71","M.png",443,"R","None",NA,"",NA,12,6,16,"c","visual"
"72","H.png",444,"R","None",NA,"",NA,12,6,16,"c","visual"
"73","K.png",445,"R","None",NA,"",NA,12,6,16,"c","visual"
"74","B.png",446,"R","None",NA,"",NA,12,6,16,"c","visual"
"75","J.png",447,"R","None",NA,"",NA,12,6,16,"c","visual"
"76","F.png",448,"R","None",NA,"",NA,12,6,16,"c","visual"
"77","F.png",449,"R","None",NA,"",NA,12,6,16,"c","visual"
"78","H.png",450,"R","None",NA,"",NA,12,6,16,"c","visual"
"79","L.png",451,"R","None",NA,"",NA,12,6,16,"c","visual"
"80","K.png",452,"R","None",NA,"",NA,12,6,16,"c","visual"
"81","L.png",453,"R","None",NA,"",NA,12,6,16,"c","visual"
"82","D.png",454,"R","None",NA,"",NA,12,6,16,"c","visual"
"83","K.png",455,"R","None",NA,"",NA,12,6,16,"c","visual"
"84","B.png",456,"R","None",NA,"",NA,12,6,16,"c","visual"
"85","Alien1.bmp",409,"S","",NA,"None",NA,12,6,16,"c","visual"
"86","Alien2.bmp",410,"S","",NA,"None",NA,12,6,16,"c","visual"
"87","Alien3.bmp",411,"S","",NA,"None",NA,12,6,16,"c","visual"
"88","Alien4.bmp",412,"S","",NA,"None",NA,12,6,16,"c","visual"
"89","Alien5.bmp",413,"S","",NA,"None",NA,12,6,16,"c","visual"
"90","Alien6.bmp",414,"S","",NA,"None",NA,12,6,16,"c","visual"
"91","Alien1.bmp",415,"S","",NA,"None",NA,12,6,16,"c","visual"
"92","Alien2.bmp",416,"S","",NA,"None",NA,12,6,16,"c","visual"
"93","Alien3.bmp",417,"S","",NA,"None",NA,12,6,16,"c","visual"
"94","Alien7.bmp",418,"S","",NA,"None",NA,12,6,16,"c","visual"
"95","Alien8.bmp",419,"S","",NA,"None",NA,12,6,16,"c","visual"
"96","Alien9.bmp",420,"S","",NA,"None",NA,12,6,16,"c","visual"
"97","Alien10.bmp",421,"S","",NA,"None",NA,12,6,16,"c","visual"
"98","Alien11.bmp",422,"S","",NA,"None",NA,12,6,16,"c","visual"
"99","Alien12.bmp",423,"S","",NA,"3",0.391861598589,12,6,16,"c","visual"
"100","Alien7.bmp",424,"S","",NA,"None",NA,12,6,16,"c","visual"
"101","Alien8.bmp",425,"S","",NA,"None",NA,12,6,16,"c","visual"
"102","Alien9.bmp",426,"S","",NA,"None",NA,12,6,16,"c","visual"
"103","Alien10.bmp",427,"S","",NA,"None",NA,12,6,16,"c","visual"
"104","Alien11.bmp",428,"S","",NA,"None",NA,12,6,16,"c","visual"
"105","Alien12.bmp",429,"S","",NA,"3",0.416896378971,12,6,16,"c","visual"
"106","Alien1.bmp",430,"S","",NA,"None",NA,12,6,16,"c","visual"
"107","Alien2.bmp",431,"S","",NA,"None",NA,12,6,16,"c","visual"
"108","Alien3.bmp",432,"S","",NA,"None",NA,12,6,16,"c","visual"
"109","blank.png",0,"B","",NA,"None",NA,12,6,16,"c","visual"
"110","blank.png",0,"B","",NA,"None",NA,12,6,16,"c","visual"
"111","blank.png",0,"B","",NA,"None",NA,12,6,16,"c","visual"
"112","blank.png",0,"B","",NA,"None",NA,12,6,16,"c","visual"
"113","blank.png",0,"B","",NA,"None",NA,12,6,16,"c","visual"
"114","blank.png",0,"B","",NA,"None",NA,12,6,16,"c","visual"
"115","blank.png",0,"B","",NA,"None",NA,12,6,16,"c","visual"
"116","blank.png",0,"B","",NA,"None",NA,12,6,16,"c","visual"
"117","blank.png",0,"B","",NA,"None",NA,12,6,16,"c","visual"
"118","blank.png",0,"B","",NA,"None",NA,12,6,16,"c","visual"
"119","blank.png",0,"B","",NA,"None",NA,12,6,16,"c","visual"
"120","blank.png",0,"B","",NA,"None",NA,12,6,16,"c","visual"
"121","C.png",409,"R","None",NA,"",NA,12,6,16,"c","visual"
"122","L.png",410,"R","None",NA,"",NA,12,6,16,"c","visual"
"123","A.png",411,"R","None",NA,"",NA,12,6,16,"c","visual"
"124","G.png",412,"R","None",NA,"",NA,12,6,16,"c","visual"
"125","H.png",413,"R","None",NA,"",NA,12,6,16,"c","visual"
"126","A.png",414,"R","None",NA,"",NA,12,6,16,"c","visual"
"127","F.png",415,"R","None",NA,"",NA,12,6,16,"c","visual"
"128","K.png",416,"R","None",NA,"",NA,12,6,16,"c","visual"
"129","E.png",417,"R","None",NA,"",NA,12,6,16,"c","visual"
"130","J.png",418,"R","None",NA,"",NA,12,6,16,"c","visual"
"131","C.png",419,"R","3",0.431441713532,"",NA,12,6,16,"c","visual"
"132","D.png",420,"R","None",NA,"",NA,12,6,16,"c","visual"
"133","B.png",421,"R","None",NA,"",NA,12,6,16,"c","visual"
"134","H.png",422,"R","None",NA,"",NA,12,6,16,"c","visual"
"135","L.png",423,"R","None",NA,"",NA,12,6,16,"c","visual"
"136","G.png",424,"R","None",NA,"",NA,12,6,16,"c","visual"
"137","F.png",425,"R","None",NA,"",NA,12,6,16,"c","visual"
"138","J.png",426,"R","None",NA,"",NA,12,6,16,"c","visual"
"139","A.png",427,"R","None",NA,"",NA,12,6,16,"c","visual"
"140","F.png",428,"R","None",NA,"",NA,12,6,16,"c","visual"
"141","M.png",429,"R","None",NA,"",NA,12,6,16,"c","visual"
"142","D.png",430,"R","None",NA,"",NA,12,6,16,"c","visual"
"143","E.png",431,"R","None",NA,"",NA,12,6,16,"c","visual"
"144","J.png",432,"R","None",NA,"",NA,12,6,16,"c","visual"
"145","blank.png",0,"B","",NA,"",NA,12,6,16,"c","visual"
"146","blank.png",0,"B","",NA,"",NA,12,6,16,"c","visual"
"147","blank.png",0,"B","",NA,"",NA,12,6,16,"c","visual"
"148","blank.png",0,"B","",NA,"",NA,12,6,16,"c","visual"
"149","blank.png",0,"B","",NA,"",NA,12,6,16,"c","visual"
"150","blank.png",0,"B","",NA,"",NA,12,6,16,"c","visual"
"151","blank.png",0,"B","",NA,"",NA,12,6,16,"c","visual"
"152","blank.png",0,"B","",NA,"",NA,12,6,16,"c","visual"
"153","blank.png",0,"B","",NA,"",NA,12,6,16,"c","visual"
"154","blank.png",0,"B","",NA,"",NA,12,6,16,"c","visual"
"155","blank.png",0,"B","",NA,"",NA,12,6,16,"c","visual"
"156","blank.png",0,"B","",NA,"",NA,12,6,16,"c","visual"
"157","A.png",433,"R","None",NA,"",NA,12,6,16,"c","visual"
"158","E.png",434,"R","None",NA,"",NA,12,6,16,"c","visual"
"159","E.png",435,"R","None",NA,"",NA,12,6,16,"c","visual"
"160","B.png",436,"R","None",NA,"",NA,12,6,16,"c","visual"
"161","C.png",437,"R","3",0.398113680363,"",NA,12,6,16,"c","visual"
"162","J.png",438,"R","None",NA,"",NA,12,6,16,"c","visual"
"163","M.png",439,"R","None",NA,"",NA,12,6,16,"c","visual"
"164","G.png",440,"R","None",NA,"",NA,12,6,16,"c","visual"
"165","A.png",441,"R","None",NA,"",NA,12,6,16,"c","visual"
"166","M.png",442,"R","None",NA,"",NA,12,6,16,"c","visual"
"167","M.png",443,"R","None",NA,"",NA,12,6,16,"c","visual"
"168","H.png",444,"R","None",NA,"",NA,12,6,16,"c","visual"
"169","K.png",445,"R","None",NA,"",NA,12,6,16,"c","visual"
"170","B.png",446,"R","None",NA,"",NA,12,6,16,"c","visual"
"171","J.png",447,"R","None",NA,"",NA,12,6,16,"c","visual"
"172","F.png",448,"R","None",NA,"",NA,12,6,16,"c","visual"
"173","F.png",449,"R","None",NA,"",NA,12,6,16,"c","visual"
"174","H.png",450,"R","None",NA,"",NA,12,6,16,"c","visual"
"175","L.png",451,"R","None",NA,"",NA,12,6,16,"c","visual"
"176","K.png",452,"R","None",NA,"",NA,12,6,16,"c","visual"
"177","L.png",453,"R","None",NA,"",NA,12,6,16,"c","visual"
"178","D.png",454,"R","None",NA,"",NA,12,6,16,"c","visual"
"179","K.png",455,"R","None",NA,"",NA,12,6,16,"c","visual"
"180","B.png",456,"R","None",NA,"",NA,12,6,16,"c","visual"
"181","blank.png",0,"B","",NA,"",NA,12,6,16,"c","visual"
"182","blank.png",0,"B","",NA,"",NA,12,6,16,"c","visual"
"183","blank.png",0,"B","",NA,"",NA,12,6,16,"c","visual"
"184","blank.png",0,"B","",NA,"",NA,12,6,16,"c","visual"
"185","blank.png",0,"B","",NA,"",NA,12,6,16,"c","visual"
"186","blank.png",0,"B","",NA,"",NA,12,6,16,"c","visual"
"187","blank.png",0,"B","",NA,"",NA,12,6,16,"c","visual"
"188","blank.png",0,"B","",NA,"",NA,12,6,16,"c","visual"
"189","blank.png",0,"B","",NA,"",NA,12,6,16,"c","visual"
"190","blank.png",0,"B","",NA,"",NA,12,6,16,"c","visual"
"191","blank.png",0,"B","",NA,"",NA,12,6,16,"c","visual"
"192","blank.png",0,"B","",NA,"",NA,12,6,16,"c","visual"
"193","Alien4.bmp",433,"S","",NA,"None",NA,12,6,16,"c","visual"
"194","Alien5.bmp",434,"S","",NA,"None",NA,12,6,16,"c","visual"
"195","Alien6.bmp",435,"S","",NA,"None",NA,12,6,16,"c","visual"
"196","Alien10.bmp",436,"S","",NA,"None",NA,12,6,16,"c","visual"
"197","Alien11.bmp",437,"S","",NA,"None",NA,12,6,16,"c","visual"
"198","Alien12.bmp",438,"S","",NA,"3",0.425247942796,12,6,16,"c","visual"
"199","Alien4.bmp",439,"S","",NA,"None",NA,12,6,16,"c","visual"
"200","Alien5.bmp",440,"S","",NA,"None",NA,12,6,16,"c","visual"
"201","Alien6.bmp",441,"S","",NA,"None",NA,12,6,16,"c","visual"
"202","Alien7.bmp",442,"S","",NA,"None",NA,12,6,16,"c","visual"
"203","Alien8.bmp",443,"S","",NA,"None",NA,12,6,16,"c","visual"
"204","Alien9.bmp",444,"S","",NA,"None",NA,12,6,16,"c","visual"
"205","Alien1.bmp",445,"S","",NA,"None",NA,12,6,16,"c","visual"
"206","Alien2.bmp",446,"S","",NA,"None",NA,12,6,16,"c","visual"
"207","Alien3.bmp",447,"S","",NA,"None",NA,12,6,16,"c","visual"
"208","Alien4.bmp",448,"S","",NA,"None",NA,12,6,16,"c","visual"
"209","Alien5.bmp",449,"S","",NA,"None",NA,12,6,16,"c","visual"
"210","Alien6.bmp",450,"S","",NA,"None",NA,12,6,16,"c","visual"
"211","Alien7.bmp",451,"S","",NA,"None",NA,12,6,16,"c","visual"
"212","Alien8.bmp",452,"S","",NA,"None",NA,12,6,16,"c","visual"
"213","Alien9.bmp",453,"S","",NA,"None",NA,12,6,16,"c","visual"
"214","Alien1.bmp",454,"S","",NA,"None",NA,12,6,16,"c","visual"
"215","Alien2.bmp",455,"S","",NA,"None",NA,12,6,16,"c","visual"
"216","Alien3.bmp",456,"S","",NA,"None",NA,12,6,16,"c","visual"
"217","blank.png",0,"B","",NA,"None",NA,12,6,16,"c","visual"
"218","blank.png",0,"B","",NA,"None",NA,12,6,16,"c","visual"
"219","blank.png",0,"B","",NA,"None",NA,12,6,16,"c","visual"
"220","blank.png",0,"B","",NA,"None",NA,12,6,16,"c","visual"
"221","blank.png",0,"B","",NA,"None",NA,12,6,16,"c","visual"
"222","blank.png",0,"B","",NA,"None",NA,12,6,16,"c","visual"
"223","blank.png",0,"B","",NA,"None",NA,12,6,16,"c","visual"
"224","blank.png",0,"B","",NA,"None",NA,12,6,16,"c","visual"
"225","blank.png",0,"B","",NA,"None",NA,12,6,16,"c","visual"
"226","blank.png",0,"B","",NA,"None",NA,12,6,16,"c","visual"
"227","blank.png",0,"B","",NA,"None",NA,12,6,16,"c","visual"
"228","blank.png",0,"B","",NA,"None",NA,12,6,16,"c","visual"
"229","Alien10.bmp",457,"S","",NA,"None",NA,12,6,16,"c","visual"
"230","Alien11.bmp",458,"S","",NA,"None",NA,12,6,16,"c","visual"
"231","Alien12.bmp",459,"S","",NA,"3",0.458656473726,12,6,16,"c","visual"
"232","Alien1.bmp",460,"S","",NA,"None",NA,12,6,16,"c","visual"
"233","Alien2.bmp",461,"S","",NA,"None",NA,12,6,16,"c","visual"
"234","Alien3.bmp",462,"S","",NA,"None",NA,12,6,16,"c","visual"
"235","Alien4.bmp",463,"S","",NA,"None",NA,12,6,16,"c","visual"
"236","Alien5.bmp",464,"S","",NA,"None",NA,12,6,16,"c","visual"
"237","Alien6.bmp",465,"S","",NA,"None",NA,12,6,16,"c","visual"
"238","Alien10.bmp",466,"S","",NA,"None",NA,12,6,16,"c","visual"
"239","Alien11.bmp",467,"S","",NA,"None",NA,12,6,16,"c","visual"
"240","Alien12.bmp",468,"S","",NA,"3",0.450293532165,12,6,16,"c","visual"
"241","Alien7.bmp",469,"S","",NA,"None",NA,12,6,16,"c","visual"
"242","Alien8.bmp",470,"S","",NA,"None",NA,12,6,16,"c","visual"
"243","Alien9.bmp",471,"S","",NA,"None",NA,12,6,16,"c","visual"
"244","Alien10.bmp",472,"S","",NA,"None",NA,12,6,16,"c","visual"
"245","Alien11.bmp",473,"S","",NA,"None",NA,12,6,16,"c","visual"
"246","Alien12.bmp",474,"S","",NA,"3",0.516873083019,12,6,16,"c","visual"
"247","Alien1.bmp",475,"S","",NA,"None",NA,12,6,16,"c","visual"
"248","Alien2.bmp",476,"S","",NA,"None",NA,12,6,16,"c","visual"
"249","Alien3.bmp",477,"S","",NA,"None",NA,12,6,16,"c","visual"
"250","Alien7.bmp",478,"S","",NA,"None",NA,12,6,16,"c","visual"
"251","Alien8.bmp",479,"S","",NA,"None",NA,12,6,16,"c","visual"
"252","Alien9.bmp",480,"S","",NA,"None",NA,12,6,16,"c","visual"
"253","D.png",457,"R","None",NA,"",NA,12,6,16,"c","visual"
"254","A.png",458,"R","None",NA,"",NA,12,6,16,"c","visual"
"255","F.png",459,"R","None",NA,"",NA,12,6,16,"c","visual"
"256","G.png",460,"R","None",NA,"",NA,12,6,16,"c","visual"
"257","H.png",461,"R","None",NA,"",NA,12,6,16,"c","visual"
"258","B.png",462,"R","None",NA,"",NA,12,6,16,"c","visual"
"259","K.png",463,"R","None",NA,"",NA,12,6,16,"c","visual"
"260","C.png",464,"R","3",0.423032407532,"",NA,12,6,16,"c","visual"
"261","J.png",465,"R","None",NA,"",NA,12,6,16,"c","visual"
"262","C.png",466,"R","3",0.623173264321,"",NA,12,6,16,"c","visual"
"263","A.png",467,"R","None",NA,"",NA,12,6,16,"c","visual"
"264","H.png",468,"R","None",NA,"",NA,12,6,16,"c","visual"
"265","J.png",469,"R","None",NA,"",NA,12,6,16,"c","visual"
"266","G.png",470,"R","None",NA,"",NA,12,6,16,"c","visual"
"267","G.png",471,"R","None",NA,"",NA,12,6,16,"c","visual"
"268","F.png",472,"R","None",NA,"",NA,12,6,16,"c","visual"
"269","C.png",473,"R","3",0.464924199856,"",NA,12,6,16,"c","visual"
"270","L.png",474,"R","None",NA,"",NA,12,6,16,"c","visual"
"271","M.png",475,"R","None",NA,"",NA,12,6,16,"c","visual"
"272","L.png",476,"R","None",NA,"",NA,12,6,16,"c","visual"
"273","D.png",477,"R","None",NA,"",NA,12,6,16,"c","visual"
"274","D.png",478,"R","None",NA,"",NA,12,6,16,"c","visual"
"275","E.png",479,"R","None",NA,"",NA,12,6,16,"c","visual"
"276","E.png",480,"R","None",NA,"",NA,12,6,16,"c","visual"
"277","blank.png",0,"B","",NA,"",NA,12,6,16,"c","visual"
"278","blank.png",0,"B","",NA,"",NA,12,6,16,"c","visual"
"279","blank.png",0,"B","",NA,"",NA,12,6,16,"c","visual"
"280","blank.png",0,"B","",NA,"",NA,12,6,16,"c","visual"
"281","blank.png",0,"B","",NA,"",NA,12,6,16,"c","visual"
"282","blank.png",0,"B","",NA,"",NA,12,6,16,"c","visual"
"283","blank.png",0,"B","",NA,"",NA,12,6,16,"c","visual"
"284","blank.png",0,"B","",NA,"",NA,12,6,16,"c","visual"
"285","blank.png",0,"B","",NA,"",NA,12,6,16,"c","visual"
"286","blank.png",0,"B","",NA,"",NA,12,6,16,"c","visual"
"287","blank.png",0,"B","",NA,"",NA,12,6,16,"c","visual"
"288","blank.png",0,"B","",NA,"",NA,12,6,16,"c","visual"
"289","H.png",481,"R","None",NA,"",NA,12,6,16,"c","visual"
"290","F.png",482,"R","None",NA,"",NA,12,6,16,"c","visual"
"291","D.png",483,"R","None",NA,"",NA,12,6,16,"c","visual"
"292","F.png",484,"R","None",NA,"",NA,12,6,16,"c","visual"
"293","K.png",485,"R","None",NA,"",NA,12,6,16,"c","visual"
"294","A.png",486,"R","None",NA,"",NA,12,6,16,"c","visual"
"295","B.png",487,"R","None",NA,"",NA,12,6,16,"c","visual"
"296","D.png",488,"R","None",NA,"",NA,12,6,16,"c","visual"
"297","E.png",489,"R","None",NA,"",NA,12,6,16,"c","visual"
"298","L.png",490,"R","None",NA,"",NA,12,6,16,"c","visual"
"299","C.png",491,"R","3",0.46458912472,"",NA,12,6,16,"c","visual"
"300","B.png",492,"R","None",NA,"",NA,12,6,16,"c","visual"
"301","K.png",493,"R","None",NA,"",NA,12,6,16,"c","visual"
"302","M.png",494,"R","None",NA,"",NA,12,6,16,"c","visual"
"303","M.png",495,"R","None",NA,"",NA,12,6,16,"c","visual"
"304","L.png",496,"R","None",NA,"",NA,12,6,16,"c","visual"
"305","J.png",497,"R","None",NA,"",NA,12,6,16,"c","visual"
"306","C.png",498,"R","3",0.448131756799,"",NA,12,6,16,"c","visual"
"307","E.png",499,"R","None",NA,"",NA,12,6,16,"c","visual"
"308","G.png",500,"R","None",NA,"",NA,12,6,16,"c","visual"
"309","J.png",501,"R","None",NA,"",NA,12,6,16,"c","visual"
"310","H.png",502,"R","None",NA,"",NA,12,6,16,"c","visual"
"311","G.png",503,"R","None",NA,"",NA,12,6,16,"c","visual"
"312","A.png",504,"R","None",NA,"",NA,12,6,16,"c","visual"
"313","blank.png",0,"B","",NA,"",NA,12,6,16,"c","visual"
"314","blank.png",0,"B","",NA,"",NA,12,6,16,"c","visual"
"315","blank.png",0,"B","",NA,"",NA,12,6,16,"c","visual"
"316","blank.png",0,"B","",NA,"",NA,12,6,16,"c","visual"
"317","blank.png",0,"B","",NA,"",NA,12,6,16,"c","visual"
"318","blank.png",0,"B","",NA,"",NA,12,6,16,"c","visual"
"319","blank.png",0,"B","",NA,"",NA,12,6,16,"c","visual"
"320","blank.png",0,"B","",NA,"",NA,12,6,16,"c","visual"
"321","blank.png",0,"B","",NA,"",NA,12,6,16,"c","visual"
"322","blank.png",0,"B","",NA,"",NA,12,6,16,"c","visual"
"323","blank.png",0,"B","",NA,"",NA,12,6,16,"c","visual"
"324","blank.png",0,"B","",NA,"",NA,12,6,16,"c","visual"
"325","E.png",505,"R","None",NA,"",NA,12,6,16,"c","visual"
"326","J.png",506,"R","None",NA,"",NA,12,6,16,"c","visual"
"327","F.png",507,"R","None",NA,"",NA,12,6,16,"c","visual"
"328","D.png",508,"R","None",NA,"",NA,12,6,16,"c","visual"
"329","H.png",509,"R","None",NA,"",NA,12,6,16,"c","visual"
"330","J.png",510,"R","None",NA,"",NA,12,6,16,"c","visual"
"331","C.png",511,"R","3",0.389664552175,"",NA,12,6,16,"c","visual"
"332","G.png",512,"R","None",NA,"",NA,12,6,16,"c","visual"
"333","M.png",513,"R","None",NA,"",NA,12,6,16,"c","visual"
"334","L.png",514,"R","None",NA,"",NA,12,6,16,"c","visual"
"335","D.png",515,"R","None",NA,"",NA,12,6,16,"c","visual"
"336","K.png",516,"R","None",NA,"",NA,12,6,16,"c","visual"
"337","C.png",517,"R","3",0.339798368979,"",NA,12,6,16,"c","visual"
"338","E.png",518,"R","None",NA,"",NA,12,6,16,"c","visual"
"339","A.png",519,"R","None",NA,"",NA,12,6,16,"c","visual"
"340","L.png",520,"R","None",NA,"",NA,12,6,16,"c","visual"
"341","G.png",521,"R","None",NA,"",NA,12,6,16,"c","visual"
"342","M.png",522,"R","None",NA,"",NA,12,6,16,"c","visual"
"343","H.png",523,"R","None",NA,"",NA,12,6,16,"c","visual"
"344","F.png",524,"R","None",NA,"",NA,12,6,16,"c","visual"
"345","B.png",525,"R","None",NA,"",NA,12,6,16,"c","visual"
"346","A.png",526,"R","None",NA,"",NA,12,6,16,"c","visual"
"347","B.png",527,"R","None",NA,"",NA,12,6,16,"c","visual"
"348","K.png",528,"R","None",NA,"",NA,12,6,16,"c","visual"
"349","Alien4.bmp",481,"S","",NA,"None",NA,12,6,16,"c","visual"
"350","Alien5.bmp",482,"S","",NA,"None",NA,12,6,16,"c","visual"
"351","Alien6.bmp",483,"S","",NA,"None",NA,12,6,16,"c","visual"
"352","Alien7.bmp",484,"S","",NA,"None",NA,12,6,16,"c","visual"
"353","Alien8.bmp",485,"S","",NA,"None",NA,12,6,16,"c","visual"
"354","Alien9.bmp",486,"S","",NA,"None",NA,12,6,16,"c","visual"
"355","Alien1.bmp",487,"S","",NA,"None",NA,12,6,16,"c","visual"
"356","Alien2.bmp",488,"S","",NA,"None",NA,12,6,16,"c","visual"
"357","Alien3.bmp",489,"S","",NA,"None",NA,12,6,16,"c","visual"
"358","Alien10.bmp",490,"S","",NA,"None",NA,12,6,16,"c","visual"
"359","Alien11.bmp",491,"S","",NA,"None",NA,12,6,16,"c","visual"
"360","Alien12.bmp",492,"S","",NA,"3",0.433625391102,12,6,16,"c","visual"
"361","Alien7.bmp",493,"S","",NA,"None",NA,12,6,16,"c","visual"
"362","Alien8.bmp",494,"S","",NA,"None",NA,12,6,16,"c","visual"
"363","Alien9.bmp",495,"S","",NA,"None",NA,12,6,16,"c","visual"
"364","Alien4.bmp",496,"S","",NA,"None",NA,12,6,16,"c","visual"
"365","Alien5.bmp",497,"S","",NA,"None",NA,12,6,16,"c","visual"
"366","Alien6.bmp",498,"S","",NA,"None",NA,12,6,16,"c","visual"
"367","Alien1.bmp",499,"S","",NA,"None",NA,12,6,16,"c","visual"
"368","Alien2.bmp",500,"S","",NA,"None",NA,12,6,16,"c","visual"
"369","Alien3.bmp",501,"S","",NA,"None",NA,12,6,16,"c","visual"
"370","Alien10.bmp",502,"S","",NA,"None",NA,12,6,16,"c","visual"
"371","Alien11.bmp",503,"S","",NA,"None",NA,12,6,16,"c","visual"
"372","Alien12.bmp",504,"S","",NA,"3",0.408670539444,12,6,16,"c","visual"
"373","blank.png",0,"B","",NA,"None",NA,12,6,16,"c","visual"
"374","blank.png",0,"B","",NA,"None",NA,12,6,16,"c","visual"
"375","blank.png",0,"B","",NA,"None",NA,12,6,16,"c","visual"
"376","blank.png",0,"B","",NA,"None",NA,12,6,16,"c","visual"
"377","blank.png",0,"B","",NA,"None",NA,12,6,16,"c","visual"
"378","blank.png",0,"B","",NA,"None",NA,12,6,16,"c","visual"
"379","blank.png",0,"B","",NA,"None",NA,12,6,16,"c","visual"
"380","blank.png",0,"B","",NA,"None",NA,12,6,16,"c","visual"
"381","blank.png",0,"B","",NA,"None",NA,12,6,16,"c","visual"
"382","blank.png",0,"B","",NA,"None",NA,12,6,16,"c","visual"
"383","blank.png",0,"B","",NA,"None",NA,12,6,16,"c","visual"
"384","blank.png",0,"B","",NA,"None",NA,12,6,16,"c","visual"
"385","Alien4.bmp",505,"S","",NA,"None",NA,12,6,16,"c","visual"
"386","Alien5.bmp",506,"S","",NA,"None",NA,12,6,16,"c","visual"
"387","Alien6.bmp",507,"S","",NA,"None",NA,12,6,16,"c","visual"
"388","Alien10.bmp",508,"S","",NA,"None",NA,12,6,16,"c","visual"
"389","Alien11.bmp",509,"S","",NA,"None",NA,12,6,16,"c","visual"
"390","Alien12.bmp",510,"S","",NA,"3",0.466941193212,12,6,16,"c","visual"
"391","Alien7.bmp",511,"S","",NA,"None",NA,12,6,16,"c","visual"
"392","Alien8.bmp",512,"S","",NA,"None",NA,12,6,16,"c","visual"
"393","Alien9.bmp",513,"S","",NA,"None",NA,12,6,16,"c","visual"
"394","Alien1.bmp",514,"S","",NA,"None",NA,12,6,16,"c","visual"
"395","Alien2.bmp",515,"S","",NA,"None",NA,12,6,16,"c","visual"
"396","Alien3.bmp",516,"S","",NA,"None",NA,12,6,16,"c","visual"
"397","Alien7.bmp",517,"S","",NA,"None",NA,12,6,16,"c","visual"
"398","Alien8.bmp",518,"S","",NA,"None",NA,12,6,16,"c","visual"
"399","Alien9.bmp",519,"S","",NA,"None",NA,12,6,16,"c","visual"
"400","Alien10.bmp",520,"S","",NA,"None",NA,12,6,16,"c","visual"
"401","Alien11.bmp",521,"S","",NA,"None",NA,12,6,16,"c","visual"
"402","Alien12.bmp",522,"S","",NA,"3",0.51698230952,12,6,16,"c","visual"
"403","Alien4.bmp",523,"S","",NA,"None",NA,12,6,16,"c","visual"
"404","Alien5.bmp",524,"S","",NA,"None",NA,12,6,16,"c","visual"
"405","Alien6.bmp",525,"S","",NA,"None",NA,12,6,16,"c","visual"
"406","Alien1.bmp",526,"S","",NA,"None",NA,12,6,16,"c","visual"
"407","Alien2.bmp",527,"S","",NA,"None",NA,12,6,16,"c","visual"
"408","Alien3.bmp",528,"S","",NA,"None",NA,12,6,16,"c","visual"
"409","F.png",529,"R","None",NA,"",NA,12,6,16,"c","visual"
"410","E.png",530,"R","None",NA,"",NA,12,6,16,"c","visual"
"411","D.png",531,"R","None",NA,"",NA,12,6,16,"c","visual"
"412","B.png",532,"R","None",NA,"",NA,12,6,16,"c","visual"
"413","H.png",533,"R","None",NA,"",NA,12,6,16,"c","visual"
"414","G.png",534,"R","None",NA,"",NA,12,6,16,"c","visual"
"415","H.png",535,"R","None",NA,"",NA,12,6,16,"c","visual"
"416","L.png",536,"R","None",NA,"",NA,12,6,16,"c","visual"
"417","K.png",537,"R","None",NA,"",NA,12,6,16,"c","visual"
"418","C.png",538,"R","3",0.381427619373,"",NA,12,6,16,"c","visual"
"419","G.png",539,"R","None",NA,"",NA,12,6,16,"c","visual"
"420","L.png",540,"R","None",NA,"",NA,12,6,16,"c","visual"
"421","E.png",541,"R","None",NA,"",NA,12,6,16,"c","visual"
"422","M.png",542,"R","None",NA,"",NA,12,6,16,"c","visual"
"423","A.png",543,"R","None",NA,"",NA,12,6,16,"c","visual"
"424","K.png",544,"R","None",NA,"",NA,12,6,16,"c","visual"
"425","L.png",545,"R","None",NA,"",NA,12,6,16,"c","visual"
"426","B.png",546,"R","None",NA,"",NA,12,6,16,"c","visual"
"427","J.png",547,"R","None",NA,"",NA,12,6,16,"c","visual"
"428","D.png",548,"R","None",NA,"",NA,12,6,16,"c","visual"
"429","C.png",549,"R","3",0.398095475975,"",NA,12,6,16,"c","visual"
"430","M.png",550,"R","None",NA,"",NA,12,6,16,"c","visual"
"431","H.png",551,"R","None",NA,"",NA,12,6,16,"c","visual"
"432","E.png",552,"R","None",NA,"",NA,12,6,16,"c","visual"
"433","Alien7.bmp",529,"S","",NA,"None",NA,12,6,16,"c","visual"
"434","Alien8.bmp",530,"S","",NA,"None",NA,12,6,16,"c","visual"
"435","Alien9.bmp",531,"S","",NA,"None",NA,12,6,16,"c","visual"
"436","Alien4.bmp",532,"S","",NA,"None",NA,12,6,16,"c","visual"
"437","Alien5.bmp",533,"S","",NA,"None",NA,12,6,16,"c","visual"
"438","Alien6.bmp",534,"S","",NA,"None",NA,12,6,16,"c","visual"
"439","Alien10.bmp",535,"S","",NA,"None",NA,12,6,16,"c","visual"
"440","Alien11.bmp",536,"S","",NA,"None",NA,12,6,16,"c","visual"
"441","Alien12.bmp",537,"S","",NA,"3",0.455967907852,12,6,16,"c","visual"
"442","Alien7.bmp",538,"S","",NA,"None",NA,12,6,16,"c","visual"
"443","Alien8.bmp",539,"S","",NA,"None",NA,12,6,16,"c","visual"
"444","Alien9.bmp",540,"S","",NA,"None",NA,12,6,16,"c","visual"
"445","Alien4.bmp",541,"S","",NA,"None",NA,12,6,16,"c","visual"
"446","Alien5.bmp",542,"S","",NA,"None",NA,12,6,16,"c","visual"
"447","Alien6.bmp",543,"S","",NA,"None",NA,12,6,16,"c","visual"
"448","Alien10.bmp",544,"S","",NA,"None",NA,12,6,16,"c","visual"
"449","Alien11.bmp",545,"S","",NA,"None",NA,12,6,16,"c","visual"
"450","Alien12.bmp",546,"S","",NA,"3",0.450250296562,12,6,16,"c","visual"
"451","Alien1.bmp",547,"S","",NA,"None",NA,12,6,16,"c","visual"
"452","Alien2.bmp",548,"S","",NA,"None",NA,12,6,16,"c","visual"
"453","Alien3.bmp",549,"S","",NA,"None",NA,12,6,16,"c","visual"
"454","Alien7.bmp",550,"S","",NA,"None",NA,12,6,16,"c","visual"
"455","Alien8.bmp",551,"S","",NA,"None",NA,12,6,16,"c","visual"
"456","Alien9.bmp",552,"S","",NA,"None",NA,12,6,16,"c","visual"
"457","A.png",553,"R","None",NA,"",NA,12,6,16,"c","visual"
"458","A.png",554,"R","None",NA,"",NA,12,6,16,"c","visual"
"459","L.png",555,"R","None",NA,"",NA,12,6,16,"c","visual"
"460","K.png",556,"R","None",NA,"",NA,12,6,16,"c","visual"
"461","F.png",557,"R","None",NA,"",NA,12,6,16,"c","visual"
"462","D.png",558,"R","None",NA,"",NA,12,6,16,"c","visual"
"463","B.png",559,"R","None",NA,"",NA,12,6,16,"c","visual"
"464","J.png",560,"R","None",NA,"",NA,12,6,16,"c","visual"
"465","J.png",561,"R","None",NA,"",NA,12,6,16,"c","visual"
"466","G.png",562,"R","None",NA,"",NA,12,6,16,"c","visual"
"467","M.png",563,"R","None",NA,"",NA,12,6,16,"c","visual"
"468","H.png",564,"R","None",NA,"",NA,12,6,16,"c","visual"
"469","J.png",565,"R","None",NA,"",NA,12,6,16,"c","visual"
"470","A.png",566,"R","None",NA,"",NA,12,6,16,"c","visual"
"471","M.png",567,"R","None",NA,"",NA,12,6,16,"c","visual"
"472","C.png",568,"R","3",0.356559807668,"",NA,12,6,16,"c","visual"
"473","E.png",569,"R","None",NA,"",NA,12,6,16,"c","visual"
"474","D.png",570,"R","None",NA,"",NA,12,6,16,"c","visual"
"475","F.png",571,"R","None",NA,"",NA,12,6,16,"c","visual"
"476","C.png",572,"R","3",0.381541965879,"",NA,12,6,16,"c","visual"
"477","K.png",573,"R","None",NA,"",NA,12,6,16,"c","visual"
"478","B.png",574,"R","None",NA,"",NA,12,6,16,"c","visual"
"479","G.png",575,"R","None",NA,"",NA,12,6,16,"c","visual"
"480","F.png",576,"R","None",NA,"",NA,12,6,16,"c","visual"
"481","Alien1.bmp",553,"S","",NA,"None",NA,12,6,16,"c","visual"
"482","Alien2.bmp",554,"S","",NA,"None",NA,12,6,16,"c","visual"
"483","Alien3.bmp",555,"S","",NA,"None",NA,12,6,16,"c","visual"
"484","Alien10.bmp",556,"S","",NA,"None",NA,12,6,16,"c","visual"
"485","Alien11.bmp",557,"S","",NA,"None",NA,12,6,16,"c","visual"
"486","Alien12.bmp",558,"S","",NA,"3",0.425251356151,12,6,16,"c","visual"
"487","Alien4.bmp",559,"S","",NA,"None",NA,12,6,16,"c","visual"
"488","Alien5.bmp",560,"S","",NA,"None",NA,12,6,16,"c","visual"
"489","Alien6.bmp",561,"S","",NA,"None",NA,12,6,16,"c","visual"
"490","Alien1.bmp",562,"S","",NA,"None",NA,12,6,16,"c","visual"
"491","Alien2.bmp",563,"S","",NA,"None",NA,12,6,16,"c","visual"
"492","Alien3.bmp",564,"S","",NA,"None",NA,12,6,16,"c","visual"
"493","Alien10.bmp",565,"S","",NA,"None",NA,12,6,16,"c","visual"
"494","Alien11.bmp",566,"S","",NA,"None",NA,12,6,16,"c","visual"
"495","Alien12.bmp",567,"S","",NA,"3",0.416861392383,12,6,16,"c","visual"
"496","Alien7.bmp",568,"S","",NA,"None",NA,12,6,16,"c","visual"
"497","Alien8.bmp",569,"S","",NA,"None",NA,12,6,16,"c","visual"
"498","Alien9.bmp",570,"S","",NA,"None",NA,12,6,16,"c","visual"
"499","Alien4.bmp",571,"S","",NA,"None",NA,12,6,16,"c","visual"
"500","Alien5.bmp",572,"S","",NA,"None",NA,12,6,16,"c","visual"
"501","Alien6.bmp",573,"S","",NA,"None",NA,12,6,16,"c","visual"
"502","Alien1.bmp",574,"S","",NA,"None",NA,12,6,16,"c","visual"
"503","Alien2.bmp",575,"S","",NA,"None",NA,12,6,16,"c","visual"
"504","Alien3.bmp",576,"S","",NA,"None",NA,12,6,16,"c","visual"
"505","",NA,"","",NA,"",NA,12,6,16,"c","visual"
"506","",NA,"","",NA,"",NA,12,6,16,"c","visual"
"507","",NA,"","",NA,"",NA,12,6,16,"c","visual"
"508","",NA,"","",NA,"",NA,12,6,16,"c","visual"
"509","",NA,"","",NA,"",NA,12,6,16,"c","visual"
"510","",NA,"","",NA,"",NA,12,6,16,"c","visual"
"511","",NA,"","",NA,"",NA,12,6,16,"c","visual"
"512","",NA,"","",NA,"",NA,12,6,16,"c","visual"
"513","",NA,"","",NA,"",NA,12,6,16,"c","visual"
"514","",NA,"","",NA,"",NA,12,6,16,"c","visual"
"515","",NA,"","",NA,"",NA,12,6,16,"c","visual"
"516","",NA,"","",NA,"",NA,12,6,16,"c","visual"
"517","",NA,"","",NA,"",NA,12,6,16,"c","visual"
"518","",NA,"","",NA,"",NA,12,6,16,"c","visual"
"519","",NA,"","",NA,"",NA,12,6,16,"c","visual"
"520","",NA,"","",NA,"",NA,12,6,16,"c","visual"
"521","",NA,"","",NA,"",NA,12,6,16,"c","visual"
"522","",NA,"","",NA,"",NA,12,6,16,"c","visual"
"523","",NA,"","",NA,"",NA,12,6,16,"c","visual"
"524","",NA,"","",NA,"",NA,12,6,16,"c","visual"
"525","",NA,"","",NA,"",NA,12,6,16,"c","visual"
"526","",NA,"","",NA,"",NA,12,6,16,"c","visual"
"527","",NA,"","",NA,"",NA,12,6,16,"c","visual"
"528","",NA,"","",NA,"",NA,12,6,16,"c","visual"
"529","",NA,"","",NA,"",NA,12,6,16,"c","visual"
"530","",NA,"","",NA,"",NA,12,6,16,"c","visual"
"531","",NA,"","",NA,"",NA,12,6,16,"c","visual"
"532","",NA,"","",NA,"",NA,12,6,16,"c","visual"
"533","",NA,"","",NA,"",NA,12,6,16,"c","visual"
"534","",NA,"","",NA,"",NA,12,6,16,"c","visual"
"535","",NA,"","",NA,"",NA,12,6,16,"c","visual"
"536","",NA,"","",NA,"",NA,12,6,16,"c","visual"
"537","",NA,"","",NA,"",NA,12,6,16,"c","visual"
