soundFile,word,location,repetition,trialnum,condition,fam_trials_loop.thisRepN,fam_trials_loop.thisTrialN,fam_trials_loop.thisN,fam_trials_loop.thisIndex,trials_1.thisRepN,trials_1.thisTrialN,trials_1.thisN,trials_1.thisIndex,sound_block_key_resp.keys,tone_block_key_resp.keys,starget,Run,PartID,frameRate,ttarget,expName,date,
pi.wav,1,1,17,193,S,0,0,0,0,,,,,None,,bi,1,,120.063897347,1c,auditory,2018_Jan_30_1352,
tu.wav,1,2,17,194,S,0,1,1,1,,,,,None,,bi,1,,120.063897347,1c,auditory,2018_Jan_30_1352,
bi.wav,1,3,17,195,S,0,2,2,2,,,,,None,,bi,1,,120.063897347,1c,auditory,2018_Jan_30_1352,
bu.wav,4,1,17,196,S,0,3,3,3,,,,,None,,bi,1,,120.063897347,1c,auditory,2018_Jan_30_1352,
pa.wav,4,2,17,197,S,0,4,4,4,,,,,None,,bi,1,,120.063897347,1c,auditory,2018_Jan_30_1352,
da.wav,4,3,17,198,S,0,5,5,5,,,,,None,,bi,1,,120.063897347,1c,auditory,2018_Jan_30_1352,
di.wav,2,1,17,199,S,0,6,6,6,,,,,None,,bi,1,,120.063897347,1c,auditory,2018_Jan_30_1352,
ba.wav,2,2,17,200,S,0,7,7,7,,,,,None,,bi,1,,120.063897347,1c,auditory,2018_Jan_30_1352,
pu.wav,2,3,17,201,S,0,8,8,8,,,,,None,,bi,1,,120.063897347,1c,auditory,2018_Jan_30_1352,
ta.wav,3,1,17,202,S,0,9,9,9,,,,,None,,bi,1,,120.063897347,1c,auditory,2018_Jan_30_1352,
ti.wav,3,2,17,203,S,0,10,10,10,,,,,None,,bi,1,,120.063897347,1c,auditory,2018_Jan_30_1352,
du.wav,3,3,17,204,S,0,11,11,11,,,,,None,,bi,1,,120.063897347,1c,auditory,2018_Jan_30_1352,
bu.wav,4,1,18,205,S,0,12,12,12,,,,,None,,bi,1,,120.063897347,1c,auditory,2018_Jan_30_1352,
pa.wav,4,2,18,206,S,0,13,13,13,,,,,None,,bi,1,,120.063897347,1c,auditory,2018_Jan_30_1352,
da.wav,4,3,18,207,S,0,14,14,14,,,,,None,,bi,1,,120.063897347,1c,auditory,2018_Jan_30_1352,
pi.wav,1,1,18,208,S,0,15,15,15,,,,,None,,bi,1,,120.063897347,1c,auditory,2018_Jan_30_1352,
tu.wav,1,2,18,209,S,0,16,16,16,,,,,None,,bi,1,,120.063897347,1c,auditory,2018_Jan_30_1352,
bi.wav,1,3,18,210,S,0,17,17,17,,,,,None,,bi,1,,120.063897347,1c,auditory,2018_Jan_30_1352,
di.wav,2,1,18,211,S,0,18,18,18,,,,,None,,bi,1,,120.063897347,1c,auditory,2018_Jan_30_1352,
ba.wav,2,2,18,212,S,0,19,19,19,,,,,None,,bi,1,,120.063897347,1c,auditory,2018_Jan_30_1352,
pu.wav,2,3,18,213,S,0,20,20,20,,,,,None,,bi,1,,120.063897347,1c,auditory,2018_Jan_30_1352,
ta.wav,3,1,18,214,S,0,21,21,21,,,,,None,,bi,1,,120.063897347,1c,auditory,2018_Jan_30_1352,
ti.wav,3,2,18,215,S,0,22,22,22,,,,,None,,bi,1,,120.063897347,1c,auditory,2018_Jan_30_1352,
du.wav,3,3,18,216,S,0,23,23,23,,,,,None,,bi,1,,120.063897347,1c,auditory,2018_Jan_30_1352,
pi.wav,1,1,19,217,S,0,24,24,24,,,,,None,,bi,1,,120.063897347,1c,auditory,2018_Jan_30_1352,
tu.wav,1,2,19,218,S,0,25,25,25,,,,,None,,bi,1,,120.063897347,1c,auditory,2018_Jan_30_1352,
bi.wav,1,3,19,219,S,0,26,26,26,,,,,None,,bi,1,,120.063897347,1c,auditory,2018_Jan_30_1352,
ta.wav,3,1,19,220,S,0,27,27,27,,,,,None,,bi,1,,120.063897347,1c,auditory,2018_Jan_30_1352,
ti.wav,3,2,19,221,S,0,28,28,28,,,,,None,,bi,1,,120.063897347,1c,auditory,2018_Jan_30_1352,
du.wav,3,3,19,222,S,0,29,29,29,,,,,None,,bi,1,,120.063897347,1c,auditory,2018_Jan_30_1352,
bu.wav,4,1,19,223,S,0,30,30,30,,,,,None,,bi,1,,120.063897347,1c,auditory,2018_Jan_30_1352,
pa.wav,4,2,19,224,S,0,31,31,31,,,,,None,,bi,1,,120.063897347,1c,auditory,2018_Jan_30_1352,
da.wav,4,3,19,225,S,0,32,32,32,,,,,None,,bi,1,,120.063897347,1c,auditory,2018_Jan_30_1352,
di.wav,2,1,19,226,S,0,33,33,33,,,,,None,,bi,1,,120.063897347,1c,auditory,2018_Jan_30_1352,
ba.wav,2,2,19,227,S,0,34,34,34,,,,,None,,bi,1,,120.063897347,1c,auditory,2018_Jan_30_1352,
pu.wav,2,3,19,228,S,0,35,35,35,,,,,None,,bi,1,,120.063897347,1c,auditory,2018_Jan_30_1352,
bu.wav,4,1,20,229,S,0,36,36,36,,,,,None,,bi,1,,120.063897347,1c,auditory,2018_Jan_30_1352,
pa.wav,4,2,20,230,S,0,37,37,37,,,,,None,,bi,1,,120.063897347,1c,auditory,2018_Jan_30_1352,
da.wav,4,3,20,231,S,0,38,38,38,,,,,None,,bi,1,,120.063897347,1c,auditory,2018_Jan_30_1352,
ta.wav,3,1,20,232,S,0,39,39,39,,,,,None,,bi,1,,120.063897347,1c,auditory,2018_Jan_30_1352,
ti.wav,3,2,20,233,S,0,40,40,40,,,,,None,,bi,1,,120.063897347,1c,auditory,2018_Jan_30_1352,
du.wav,3,3,20,234,S,0,41,41,41,,,,,None,,bi,1,,120.063897347,1c,auditory,2018_Jan_30_1352,
pi.wav,1,1,20,235,S,0,42,42,42,,,,,None,,bi,1,,120.063897347,1c,auditory,2018_Jan_30_1352,
tu.wav,1,2,20,236,S,0,43,43,43,,,,,None,,bi,1,,120.063897347,1c,auditory,2018_Jan_30_1352,
bi.wav,1,3,20,237,S,0,44,44,44,,,,,None,,bi,1,,120.063897347,1c,auditory,2018_Jan_30_1352,
di.wav,2,1,20,238,S,0,45,45,45,,,,,None,,bi,1,,120.063897347,1c,auditory,2018_Jan_30_1352,
ba.wav,2,2,20,239,S,0,46,46,46,,,,,None,,bi,1,,120.063897347,1c,auditory,2018_Jan_30_1352,
pu.wav,2,3,20,240,S,0,47,47,47,,,,,None,,bi,1,,120.063897347,1c,auditory,2018_Jan_30_1352,
bu.wav,4,1,21,241,S,0,48,48,48,,,,,None,,bi,1,,120.063897347,1c,auditory,2018_Jan_30_1352,
pa.wav,4,2,21,242,S,0,49,49,49,,,,,None,,bi,1,,120.063897347,1c,auditory,2018_Jan_30_1352,
da.wav,4,3,21,243,S,0,50,50,50,,,,,None,,bi,1,,120.063897347,1c,auditory,2018_Jan_30_1352,
pi.wav,1,1,21,244,S,0,51,51,51,,,,,None,,bi,1,,120.063897347,1c,auditory,2018_Jan_30_1352,
tu.wav,1,2,21,245,S,0,52,52,52,,,,,None,,bi,1,,120.063897347,1c,auditory,2018_Jan_30_1352,
bi.wav,1,3,21,246,S,0,53,53,53,,,,,None,,bi,1,,120.063897347,1c,auditory,2018_Jan_30_1352,
ta.wav,3,1,21,247,S,0,54,54,54,,,,,None,,bi,1,,120.063897347,1c,auditory,2018_Jan_30_1352,
ti.wav,3,2,21,248,S,0,55,55,55,,,,,None,,bi,1,,120.063897347,1c,auditory,2018_Jan_30_1352,
du.wav,3,3,21,249,S,0,56,56,56,,,,,None,,bi,1,,120.063897347,1c,auditory,2018_Jan_30_1352,
bu.wav,4,1,22,250,S,0,57,57,57,,,,,None,,bi,1,,120.063897347,1c,auditory,2018_Jan_30_1352,
pa.wav,4,2,22,251,S,0,58,58,58,,,,,None,,bi,1,,120.063897347,1c,auditory,2018_Jan_30_1352,
da.wav,4,3,22,252,S,0,59,59,59,,,,,None,,bi,1,,120.063897347,1c,auditory,2018_Jan_30_1352,
pi.wav,1,1,22,253,S,0,60,60,60,,,,,None,,bi,1,,120.063897347,1c,auditory,2018_Jan_30_1352,
tu.wav,1,2,22,254,S,0,61,61,61,,,,,None,,bi,1,,120.063897347,1c,auditory,2018_Jan_30_1352,
bi.wav,1,3,22,255,S,0,62,62,62,,,,,None,,bi,1,,120.063897347,1c,auditory,2018_Jan_30_1352,
ta.wav,3,1,22,256,S,0,63,63,63,,,,,None,,bi,1,,120.063897347,1c,auditory,2018_Jan_30_1352,
ti.wav,3,2,22,257,S,0,64,64,64,,,,,None,,bi,1,,120.063897347,1c,auditory,2018_Jan_30_1352,
du.wav,3,3,22,258,S,0,65,65,65,,,,,None,,bi,1,,120.063897347,1c,auditory,2018_Jan_30_1352,
di.wav,2,1,21,259,S,0,66,66,66,,,,,None,,bi,1,,120.063897347,1c,auditory,2018_Jan_30_1352,
ba.wav,2,2,21,260,S,0,67,67,67,,,,,None,,bi,1,,120.063897347,1c,auditory,2018_Jan_30_1352,
pu.wav,2,3,21,261,S,0,68,68,68,,,,,None,,bi,1,,120.063897347,1c,auditory,2018_Jan_30_1352,
bu.wav,4,1,23,262,S,0,69,69,69,,,,,None,,bi,1,,120.063897347,1c,auditory,2018_Jan_30_1352,
pa.wav,4,2,23,263,S,0,70,70,70,,,,,None,,bi,1,,120.063897347,1c,auditory,2018_Jan_30_1352,
da.wav,4,3,23,264,S,0,71,71,71,,,,,None,,bi,1,,120.063897347,1c,auditory,2018_Jan_30_1352,
di.wav,2,1,22,265,S,0,72,72,72,,,,,None,,bi,1,,120.063897347,1c,auditory,2018_Jan_30_1352,
ba.wav,2,2,22,266,S,0,73,73,73,,,,,None,,bi,1,,120.063897347,1c,auditory,2018_Jan_30_1352,
pu.wav,2,3,22,267,S,0,74,74,74,,,,,None,,bi,1,,120.063897347,1c,auditory,2018_Jan_30_1352,
ta.wav,3,1,23,268,S,0,75,75,75,,,,,None,,bi,1,,120.063897347,1c,auditory,2018_Jan_30_1352,
ti.wav,3,2,23,269,S,0,76,76,76,,,,,None,,bi,1,,120.063897347,1c,auditory,2018_Jan_30_1352,
du.wav,3,3,23,270,S,0,77,77,77,,,,,None,,bi,1,,120.063897347,1c,auditory,2018_Jan_30_1352,
pi.wav,1,1,23,271,S,0,78,78,78,,,,,None,,bi,1,,120.063897347,1c,auditory,2018_Jan_30_1352,
tu.wav,1,2,23,272,S,0,79,79,79,,,,,None,,bi,1,,120.063897347,1c,auditory,2018_Jan_30_1352,
bi.wav,1,3,23,273,S,0,80,80,80,,,,,None,,bi,1,,120.063897347,1c,auditory,2018_Jan_30_1352,
di.wav,2,1,23,274,S,0,81,81,81,,,,,None,,bi,1,,120.063897347,1c,auditory,2018_Jan_30_1352,
ba.wav,2,2,23,275,S,0,82,82,82,,,,,None,,bi,1,,120.063897347,1c,auditory,2018_Jan_30_1352,
pu.wav,2,3,23,276,S,0,83,83,83,,,,,None,,bi,1,,120.063897347,1c,auditory,2018_Jan_30_1352,
ta.wav,3,1,24,277,S,0,84,84,84,,,,,None,,bi,1,,120.063897347,1c,auditory,2018_Jan_30_1352,
ti.wav,3,2,24,278,S,0,85,85,85,,,,,None,,bi,1,,120.063897347,1c,auditory,2018_Jan_30_1352,
du.wav,3,3,24,279,S,0,86,86,86,,,,,None,,bi,1,,120.063897347,1c,auditory,2018_Jan_30_1352,
bu.wav,4,1,24,280,S,0,87,87,87,,,,,None,,bi,1,,120.063897347,1c,auditory,2018_Jan_30_1352,
pa.wav,4,2,24,281,S,0,88,88,88,,,,,None,,bi,1,,120.063897347,1c,auditory,2018_Jan_30_1352,
da.wav,4,3,24,282,S,0,89,89,89,,,,,None,,bi,1,,120.063897347,1c,auditory,2018_Jan_30_1352,
pi.wav,1,1,24,283,S,0,90,90,90,,,,,None,,bi,1,,120.063897347,1c,auditory,2018_Jan_30_1352,
tu.wav,1,2,24,284,S,0,91,91,91,,,,,None,,bi,1,,120.063897347,1c,auditory,2018_Jan_30_1352,
bi.wav,1,3,24,285,S,0,92,92,92,,,,,None,,bi,1,,120.063897347,1c,auditory,2018_Jan_30_1352,
di.wav,2,1,24,286,S,0,93,93,93,,,,,None,,bi,1,,120.063897347,1c,auditory,2018_Jan_30_1352,
ba.wav,2,2,24,287,S,0,94,94,94,,,,,None,,bi,1,,120.063897347,1c,auditory,2018_Jan_30_1352,
pu.wav,2,3,24,288,S,0,95,95,95,,,,,None,,bi,1,,120.063897347,1c,auditory,2018_Jan_30_1352,
silence.wav,0,0,0,0,B,0,96,96,96,,,,,None,,bi,1,,120.063897347,1c,auditory,2018_Jan_30_1352,
silence.wav,0,0,0,0,B,0,97,97,97,,,,,None,,bi,1,,120.063897347,1c,auditory,2018_Jan_30_1352,
silence.wav,0,0,0,0,B,0,98,98,98,,,,,None,,bi,1,,120.063897347,1c,auditory,2018_Jan_30_1352,
silence.wav,0,0,0,0,B,0,99,99,99,,,,,None,,bi,1,,120.063897347,1c,auditory,2018_Jan_30_1352,
silence.wav,0,0,0,0,B,0,100,100,100,,,,,None,,bi,1,,120.063897347,1c,auditory,2018_Jan_30_1352,
silence.wav,0,0,0,0,B,0,101,101,101,,,,,None,,bi,1,,120.063897347,1c,auditory,2018_Jan_30_1352,
silence.wav,0,0,0,0,B,0,102,102,102,,,,,None,,bi,1,,120.063897347,1c,auditory,2018_Jan_30_1352,
silence.wav,0,0,0,0,B,0,103,103,103,,,,,None,,bi,1,,120.063897347,1c,auditory,2018_Jan_30_1352,
silence.wav,0,0,0,0,B,0,104,104,104,,,,,None,,bi,1,,120.063897347,1c,auditory,2018_Jan_30_1352,
silence.wav,0,0,0,0,B,0,105,105,105,,,,,None,,bi,1,,120.063897347,1c,auditory,2018_Jan_30_1352,
silence.wav,0,0,0,0,B,0,106,106,106,,,,,None,,bi,1,,120.063897347,1c,auditory,2018_Jan_30_1352,
silence.wav,0,0,0,0,B,0,107,107,107,,,,,None,,bi,1,,120.063897347,1c,auditory,2018_Jan_30_1352,
silence.wav,0,0,0,0,B,0,108,108,108,,,,,None,,bi,1,,120.063897347,1c,auditory,2018_Jan_30_1352,
silence.wav,0,0,0,0,B,0,109,109,109,,,,,None,,bi,1,,120.063897347,1c,auditory,2018_Jan_30_1352,
silence.wav,0,0,0,0,B,0,110,110,110,,,,,None,,bi,1,,120.063897347,1c,auditory,2018_Jan_30_1352,
silence.wav,0,0,0,0,B,0,111,111,111,,,,,None,,bi,1,,120.063897347,1c,auditory,2018_Jan_30_1352,
silence.wav,0,0,0,0,B,0,112,112,112,,,,,None,,bi,1,,120.063897347,1c,auditory,2018_Jan_30_1352,
silence.wav,0,0,0,0,B,0,113,113,113,,,,,None,,bi,1,,120.063897347,1c,auditory,2018_Jan_30_1352,
silence.wav,0,0,0,0,B,0,114,114,114,,,,,None,,bi,1,,120.063897347,1c,auditory,2018_Jan_30_1352,
silence.wav,0,0,0,0,B,0,115,115,115,,,,,None,,bi,1,,120.063897347,1c,auditory,2018_Jan_30_1352,
silence.wav,0,0,0,0,B,0,116,116,116,,,,,None,,bi,1,,120.063897347,1c,auditory,2018_Jan_30_1352,
silence.wav,0,0,0,0,B,0,117,117,117,,,,,None,,bi,1,,120.063897347,1c,auditory,2018_Jan_30_1352,
silence.wav,0,0,0,0,B,0,118,118,118,,,,,None,,bi,1,,120.063897347,1c,auditory,2018_Jan_30_1352,
silence.wav,0,0,0,0,B,0,119,119,119,,,,,None,,bi,1,,120.063897347,1c,auditory,2018_Jan_30_1352,
pi.wav,1,1,1,1,S,0,0,0,0,,,,,None,,bi,1,,120.063897347,1c,auditory,2018_Jan_30_1352,
tu.wav,1,2,1,2,S,0,1,1,1,,,,,None,,bi,1,,120.063897347,1c,auditory,2018_Jan_30_1352,
bi.wav,1,3,1,3,S,0,2,2,2,,,,,None,,bi,1,,120.063897347,1c,auditory,2018_Jan_30_1352,
di.wav,2,1,1,4,S,0,3,3,3,,,,,None,,bi,1,,120.063897347,1c,auditory,2018_Jan_30_1352,
ba.wav,2,2,1,5,S,0,4,4,4,,,,,None,,bi,1,,120.063897347,1c,auditory,2018_Jan_30_1352,
pu.wav,2,3,1,6,S,0,5,5,5,,,,,None,,bi,1,,120.063897347,1c,auditory,2018_Jan_30_1352,
ta.wav,3,1,1,7,S,0,6,6,6,,,,,None,,bi,1,,120.063897347,1c,auditory,2018_Jan_30_1352,
ti.wav,3,2,1,8,S,0,7,7,7,,,,,None,,bi,1,,120.063897347,1c,auditory,2018_Jan_30_1352,
du.wav,3,3,1,9,S,0,8,8,8,,,,,None,,bi,1,,120.063897347,1c,auditory,2018_Jan_30_1352,
pi.wav,1,1,2,10,S,0,9,9,9,,,,,None,,bi,1,,120.063897347,1c,auditory,2018_Jan_30_1352,
tu.wav,1,2,2,11,S,0,10,10,10,,,,,None,,bi,1,,120.063897347,1c,auditory,2018_Jan_30_1352,
bi.wav,1,3,2,12,S,0,11,11,11,,,,,None,,bi,1,,120.063897347,1c,auditory,2018_Jan_30_1352,
bu.wav,4,1,1,13,S,0,12,12,12,,,,,None,,bi,1,,120.063897347,1c,auditory,2018_Jan_30_1352,
pa.wav,4,2,1,14,S,0,13,13,13,,,,,None,,bi,1,,120.063897347,1c,auditory,2018_Jan_30_1352,
da.wav,4,3,1,15,S,0,14,14,14,,,,,None,,bi,1,,120.063897347,1c,auditory,2018_Jan_30_1352,
di.wav,2,1,2,16,S,0,15,15,15,,,,,None,,bi,1,,120.063897347,1c,auditory,2018_Jan_30_1352,
ba.wav,2,2,2,17,S,0,16,16,16,,,,,None,,bi,1,,120.063897347,1c,auditory,2018_Jan_30_1352,
pu.wav,2,3,2,18,S,0,17,17,17,,,,,None,,bi,1,,120.063897347,1c,auditory,2018_Jan_30_1352,
ta.wav,3,1,2,19,S,0,18,18,18,,,,,None,,bi,1,,120.063897347,1c,auditory,2018_Jan_30_1352,
ti.wav,3,2,2,20,S,0,19,19,19,,,,,None,,bi,1,,120.063897347,1c,auditory,2018_Jan_30_1352,
du.wav,3,3,2,21,S,0,20,20,20,,,,,None,,bi,1,,120.063897347,1c,auditory,2018_Jan_30_1352,
pi.wav,1,1,3,22,S,0,21,21,21,,,,,None,,bi,1,,120.063897347,1c,auditory,2018_Jan_30_1352,
tu.wav,1,2,3,23,S,0,22,22,22,,,,,None,,bi,1,,120.063897347,1c,auditory,2018_Jan_30_1352,
bi.wav,1,3,3,24,S,0,23,23,23,,,,,None,,bi,1,,120.063897347,1c,auditory,2018_Jan_30_1352,
bu.wav,4,1,2,25,S,0,24,24,24,,,,,None,,bi,1,,120.063897347,1c,auditory,2018_Jan_30_1352,
pa.wav,4,2,2,26,S,0,25,25,25,,,,,None,,bi,1,,120.063897347,1c,auditory,2018_Jan_30_1352,
da.wav,4,3,2,27,S,0,26,26,26,,,,,None,,bi,1,,120.063897347,1c,auditory,2018_Jan_30_1352,
di.wav,2,1,3,28,S,0,27,27,27,,,,,None,,bi,1,,120.063897347,1c,auditory,2018_Jan_30_1352,
ba.wav,2,2,3,29,S,0,28,28,28,,,,,None,,bi,1,,120.063897347,1c,auditory,2018_Jan_30_1352,
pu.wav,2,3,3,30,S,0,29,29,29,,,,,None,,bi,1,,120.063897347,1c,auditory,2018_Jan_30_1352,
bu.wav,4,1,3,31,S,0,30,30,30,,,,,None,,bi,1,,120.063897347,1c,auditory,2018_Jan_30_1352,
pa.wav,4,2,3,32,S,0,31,31,31,,,,,None,,bi,1,,120.063897347,1c,auditory,2018_Jan_30_1352,
da.wav,4,3,3,33,S,0,32,32,32,,,,,None,,bi,1,,120.063897347,1c,auditory,2018_Jan_30_1352,
ta.wav,3,1,3,34,S,0,33,33,33,,,,,None,,bi,1,,120.063897347,1c,auditory,2018_Jan_30_1352,
ti.wav,3,2,3,35,S,0,34,34,34,,,,,None,,bi,1,,120.063897347,1c,auditory,2018_Jan_30_1352,
du.wav,3,3,3,36,S,0,35,35,35,,,,,None,,bi,1,,120.063897347,1c,auditory,2018_Jan_30_1352,
pi.wav,1,1,4,37,S,0,36,36,36,,,,,None,,bi,1,,120.063897347,1c,auditory,2018_Jan_30_1352,
tu.wav,1,2,4,38,S,0,37,37,37,,,,,None,,bi,1,,120.063897347,1c,auditory,2018_Jan_30_1352,
bi.wav,1,3,4,39,S,0,38,38,38,,,,,None,,bi,1,,120.063897347,1c,auditory,2018_Jan_30_1352,
ta.wav,3,1,4,40,S,0,39,39,39,,,,,None,,bi,1,,120.063897347,1c,auditory,2018_Jan_30_1352,
ti.wav,3,2,4,41,S,0,40,40,40,,,,,None,,bi,1,,120.063897347,1c,auditory,2018_Jan_30_1352,
du.wav,3,3,4,42,S,0,41,41,41,,,,,None,,bi,1,,120.063897347,1c,auditory,2018_Jan_30_1352,
pi.wav,1,1,5,43,S,0,42,42,42,,,,,None,,bi,1,,120.063897347,1c,auditory,2018_Jan_30_1352,
tu.wav,1,2,5,44,S,0,43,43,43,,,,,None,,bi,1,,120.063897347,1c,auditory,2018_Jan_30_1352,
bi.wav,1,3,5,45,S,0,44,44,44,,,,,None,,bi,1,,120.063897347,1c,auditory,2018_Jan_30_1352,
bu.wav,4,1,4,46,S,0,45,45,45,,,,,None,,bi,1,,120.063897347,1c,auditory,2018_Jan_30_1352,
pa.wav,4,2,4,47,S,0,46,46,46,,,,,None,,bi,1,,120.063897347,1c,auditory,2018_Jan_30_1352,
da.wav,4,3,4,48,S,0,47,47,47,,,,,None,,bi,1,,120.063897347,1c,auditory,2018_Jan_30_1352,
di.wav,2,1,4,49,S,0,48,48,48,,,,,None,,bi,1,,120.063897347,1c,auditory,2018_Jan_30_1352,
ba.wav,2,2,4,50,S,0,49,49,49,,,,,None,,bi,1,,120.063897347,1c,auditory,2018_Jan_30_1352,
pu.wav,2,3,4,51,S,0,50,50,50,,,,,None,,bi,1,,120.063897347,1c,auditory,2018_Jan_30_1352,
ta.wav,3,1,5,52,S,0,51,51,51,,,,,None,,bi,1,,120.063897347,1c,auditory,2018_Jan_30_1352,
ti.wav,3,2,5,53,S,0,52,52,52,,,,,None,,bi,1,,120.063897347,1c,auditory,2018_Jan_30_1352,
du.wav,3,3,5,54,S,0,53,53,53,,,,,None,,bi,1,,120.063897347,1c,auditory,2018_Jan_30_1352,
pi.wav,1,1,6,55,S,0,54,54,54,,,,,None,,bi,1,,120.063897347,1c,auditory,2018_Jan_30_1352,
tu.wav,1,2,6,56,S,0,55,55,55,,,,,None,,bi,1,,120.063897347,1c,auditory,2018_Jan_30_1352,
bi.wav,1,3,6,57,S,0,56,56,56,,,,,None,,bi,1,,120.063897347,1c,auditory,2018_Jan_30_1352,
bu.wav,4,1,5,58,S,0,57,57,57,,,,,None,,bi,1,,120.063897347,1c,auditory,2018_Jan_30_1352,
pa.wav,4,2,5,59,S,0,58,58,58,,,,,None,,bi,1,,120.063897347,1c,auditory,2018_Jan_30_1352,
da.wav,4,3,5,60,S,0,59,59,59,,,,,None,,bi,1,,120.063897347,1c,auditory,2018_Jan_30_1352,
di.wav,2,1,5,61,S,0,60,60,60,,,,,None,,bi,1,,120.063897347,1c,auditory,2018_Jan_30_1352,
ba.wav,2,2,5,62,S,0,61,61,61,,,,,None,,bi,1,,120.063897347,1c,auditory,2018_Jan_30_1352,
pu.wav,2,3,5,63,S,0,62,62,62,,,,,None,,bi,1,,120.063897347,1c,auditory,2018_Jan_30_1352,
bu.wav,4,1,6,64,S,0,63,63,63,,,,,None,,bi,1,,120.063897347,1c,auditory,2018_Jan_30_1352,
pa.wav,4,2,6,65,S,0,64,64,64,,,,,None,,bi,1,,120.063897347,1c,auditory,2018_Jan_30_1352,
da.wav,4,3,6,66,S,0,65,65,65,,,,,None,,bi,1,,120.063897347,1c,auditory,2018_Jan_30_1352,
pi.wav,1,1,7,67,S,0,66,66,66,,,,,None,,bi,1,,120.063897347,1c,auditory,2018_Jan_30_1352,
tu.wav,1,2,7,68,S,0,67,67,67,,,,,None,,bi,1,,120.063897347,1c,auditory,2018_Jan_30_1352,
bi.wav,1,3,7,69,S,0,68,68,68,,,,,None,,bi,1,,120.063897347,1c,auditory,2018_Jan_30_1352,
ta.wav,3,1,6,70,S,0,69,69,69,,,,,None,,bi,1,,120.063897347,1c,auditory,2018_Jan_30_1352,
ti.wav,3,2,6,71,S,0,70,70,70,,,,,None,,bi,1,,120.063897347,1c,auditory,2018_Jan_30_1352,
du.wav,3,3,6,72,S,0,71,71,71,,,,,None,,bi,1,,120.063897347,1c,auditory,2018_Jan_30_1352,
di.wav,2,1,6,73,S,0,72,72,72,,,,,None,,bi,1,,120.063897347,1c,auditory,2018_Jan_30_1352,
ba.wav,2,2,6,74,S,0,73,73,73,,,,,None,,bi,1,,120.063897347,1c,auditory,2018_Jan_30_1352,
pu.wav,2,3,6,75,S,0,74,74,74,,,,,None,,bi,1,,120.063897347,1c,auditory,2018_Jan_30_1352,
pi.wav,1,1,8,76,S,0,75,75,75,,,,,None,,bi,1,,120.063897347,1c,auditory,2018_Jan_30_1352,
tu.wav,1,2,8,77,S,0,76,76,76,,,,,None,,bi,1,,120.063897347,1c,auditory,2018_Jan_30_1352,
bi.wav,1,3,8,78,S,0,77,77,77,,,,,None,,bi,1,,120.063897347,1c,auditory,2018_Jan_30_1352,
bu.wav,4,1,7,79,S,0,78,78,78,,,,,None,,bi,1,,120.063897347,1c,auditory,2018_Jan_30_1352,
pa.wav,4,2,7,80,S,0,79,79,79,,,,,None,,bi,1,,120.063897347,1c,auditory,2018_Jan_30_1352,
da.wav,4,3,7,81,S,0,80,80,80,,,,,None,,bi,1,,120.063897347,1c,auditory,2018_Jan_30_1352,
ta.wav,3,1,7,82,S,0,81,81,81,,,,,None,,bi,1,,120.063897347,1c,auditory,2018_Jan_30_1352,
ti.wav,3,2,7,83,S,0,82,82,82,,,,,None,,bi,1,,120.063897347,1c,auditory,2018_Jan_30_1352,
du.wav,3,3,7,84,S,0,83,83,83,,,,,None,,bi,1,,120.063897347,1c,auditory,2018_Jan_30_1352,
di.wav,2,1,7,85,S,0,84,84,84,,,,,None,,bi,1,,120.063897347,1c,auditory,2018_Jan_30_1352,
ba.wav,2,2,7,86,S,0,85,85,85,,,,,None,,bi,1,,120.063897347,1c,auditory,2018_Jan_30_1352,
pu.wav,2,3,7,87,S,0,86,86,86,,,,,None,,bi,1,,120.063897347,1c,auditory,2018_Jan_30_1352,
bu.wav,4,1,8,88,S,0,87,87,87,,,,,None,,bi,1,,120.063897347,1c,auditory,2018_Jan_30_1352,
pa.wav,4,2,8,89,S,0,88,88,88,,,,,None,,bi,1,,120.063897347,1c,auditory,2018_Jan_30_1352,
da.wav,4,3,8,90,S,0,89,89,89,,,,,None,,bi,1,,120.063897347,1c,auditory,2018_Jan_30_1352,
pi.wav,1,1,9,91,S,0,90,90,90,,,,,None,,bi,1,,120.063897347,1c,auditory,2018_Jan_30_1352,
tu.wav,1,2,9,92,S,0,91,91,91,,,,,None,,bi,1,,120.063897347,1c,auditory,2018_Jan_30_1352,
bi.wav,1,3,9,93,S,0,92,92,92,,,,,None,,bi,1,,120.063897347,1c,auditory,2018_Jan_30_1352,
ta.wav,3,1,8,94,S,0,93,93,93,,,,,None,,bi,1,,120.063897347,1c,auditory,2018_Jan_30_1352,
ti.wav,3,2,8,95,S,0,94,94,94,,,,,None,,bi,1,,120.063897347,1c,auditory,2018_Jan_30_1352,
du.wav,3,3,8,96,S,0,95,95,95,,,,,None,,bi,1,,120.063897347,1c,auditory,2018_Jan_30_1352,
silence.wav,0,0,0,0,B,0,96,96,96,,,,,None,,bi,1,,120.063897347,1c,auditory,2018_Jan_30_1352,
silence.wav,0,0,0,0,B,0,97,97,97,,,,,None,,bi,1,,120.063897347,1c,auditory,2018_Jan_30_1352,
silence.wav,0,0,0,0,B,0,98,98,98,,,,,None,,bi,1,,120.063897347,1c,auditory,2018_Jan_30_1352,
silence.wav,0,0,0,0,B,0,99,99,99,,,,,None,,bi,1,,120.063897347,1c,auditory,2018_Jan_30_1352,
silence.wav,0,0,0,0,B,0,100,100,100,,,,,None,,bi,1,,120.063897347,1c,auditory,2018_Jan_30_1352,
silence.wav,0,0,0,0,B,0,101,101,101,,,,,None,,bi,1,,120.063897347,1c,auditory,2018_Jan_30_1352,
silence.wav,0,0,0,0,B,0,102,102,102,,,,,None,,bi,1,,120.063897347,1c,auditory,2018_Jan_30_1352,
silence.wav,0,0,0,0,B,0,103,103,103,,,,,None,,bi,1,,120.063897347,1c,auditory,2018_Jan_30_1352,
silence.wav,0,0,0,0,B,0,104,104,104,,,,,None,,bi,1,,120.063897347,1c,auditory,2018_Jan_30_1352,
silence.wav,0,0,0,0,B,0,105,105,105,,,,,None,,bi,1,,120.063897347,1c,auditory,2018_Jan_30_1352,
silence.wav,0,0,0,0,B,0,106,106,106,,,,,None,,bi,1,,120.063897347,1c,auditory,2018_Jan_30_1352,
silence.wav,0,0,0,0,B,0,107,107,107,,,,,None,,bi,1,,120.063897347,1c,auditory,2018_Jan_30_1352,
silence.wav,0,0,0,0,B,0,108,108,108,,,,,None,,bi,1,,120.063897347,1c,auditory,2018_Jan_30_1352,
silence.wav,0,0,0,0,B,0,109,109,109,,,,,None,,bi,1,,120.063897347,1c,auditory,2018_Jan_30_1352,
silence.wav,0,0,0,0,B,0,110,110,110,,,,,None,,bi,1,,120.063897347,1c,auditory,2018_Jan_30_1352,
silence.wav,0,0,0,0,B,0,111,111,111,,,,,None,,bi,1,,120.063897347,1c,auditory,2018_Jan_30_1352,
silence.wav,0,0,0,0,B,0,112,112,112,,,,,None,,bi,1,,120.063897347,1c,auditory,2018_Jan_30_1352,
silence.wav,0,0,0,0,B,0,113,113,113,,,,,None,,bi,1,,120.063897347,1c,auditory,2018_Jan_30_1352,
silence.wav,0,0,0,0,B,0,114,114,114,,,,,None,,bi,1,,120.063897347,1c,auditory,2018_Jan_30_1352,
silence.wav,0,0,0,0,B,0,115,115,115,,,,,None,,bi,1,,120.063897347,1c,auditory,2018_Jan_30_1352,
silence.wav,0,0,0,0,B,0,116,116,116,,,,,None,,bi,1,,120.063897347,1c,auditory,2018_Jan_30_1352,
silence.wav,0,0,0,0,B,0,117,117,117,,,,,None,,bi,1,,120.063897347,1c,auditory,2018_Jan_30_1352,
silence.wav,0,0,0,0,B,0,118,118,118,,,,,None,,bi,1,,120.063897347,1c,auditory,2018_Jan_30_1352,
silence.wav,0,0,0,0,B,0,119,119,119,,,,,None,,bi,1,,120.063897347,1c,auditory,2018_Jan_30_1352,
pi.wav,1,1,10,97,S,0,0,0,0,,,,,None,,bi,1,,120.063897347,1c,auditory,2018_Jan_30_1352,
tu.wav,1,2,10,98,S,0,1,1,1,,,,,None,,bi,1,,120.063897347,1c,auditory,2018_Jan_30_1352,
bi.wav,1,3,10,99,S,0,2,2,2,,,,,None,,bi,1,,120.063897347,1c,auditory,2018_Jan_30_1352,
di.wav,2,1,8,100,S,0,3,3,3,,,,,None,,bi,1,,120.063897347,1c,auditory,2018_Jan_30_1352,
ba.wav,2,2,8,101,S,0,4,4,4,,,,,None,,bi,1,,120.063897347,1c,auditory,2018_Jan_30_1352,
pu.wav,2,3,8,102,S,0,5,5,5,,,,,None,,bi,1,,120.063897347,1c,auditory,2018_Jan_30_1352,
bu.wav,4,1,9,103,S,0,6,6,6,,,,,None,,bi,1,,120.063897347,1c,auditory,2018_Jan_30_1352,
pa.wav,4,2,9,104,S,0,7,7,7,,,,,None,,bi,1,,120.063897347,1c,auditory,2018_Jan_30_1352,
da.wav,4,3,9,105,S,0,8,8,8,,,,,None,,bi,1,,120.063897347,1c,auditory,2018_Jan_30_1352,
ta.wav,3,1,9,106,S,0,9,9,9,,,,,None,,bi,1,,120.063897347,1c,auditory,2018_Jan_30_1352,
ti.wav,3,2,9,107,S,0,10,10,10,,,,,None,,bi,1,,120.063897347,1c,auditory,2018_Jan_30_1352,
du.wav,3,3,9,108,S,0,11,11,11,,,,,None,,bi,1,,120.063897347,1c,auditory,2018_Jan_30_1352,
di.wav,2,1,9,109,S,0,12,12,12,,,,,None,,bi,1,,120.063897347,1c,auditory,2018_Jan_30_1352,
ba.wav,2,2,9,110,S,0,13,13,13,,,,,None,,bi,1,,120.063897347,1c,auditory,2018_Jan_30_1352,
pu.wav,2,3,9,111,S,0,14,14,14,,,,,None,,bi,1,,120.063897347,1c,auditory,2018_Jan_30_1352,
pi.wav,1,1,11,112,S,0,15,15,15,,,,,None,,bi,1,,120.063897347,1c,auditory,2018_Jan_30_1352,
tu.wav,1,2,11,113,S,0,16,16,16,,,,,None,,bi,1,,120.063897347,1c,auditory,2018_Jan_30_1352,
bi.wav,1,3,11,114,S,0,17,17,17,,,,,None,,bi,1,,120.063897347,1c,auditory,2018_Jan_30_1352,
ta.wav,3,1,10,115,S,0,18,18,18,,,,,None,,bi,1,,120.063897347,1c,auditory,2018_Jan_30_1352,
ti.wav,3,2,10,116,S,0,19,19,19,,,,,None,,bi,1,,120.063897347,1c,auditory,2018_Jan_30_1352,
du.wav,3,3,10,117,S,0,20,20,20,,,,,None,,bi,1,,120.063897347,1c,auditory,2018_Jan_30_1352,
bu.wav,4,1,10,118,S,0,21,21,21,,,,,None,,bi,1,,120.063897347,1c,auditory,2018_Jan_30_1352,
pa.wav,4,2,10,119,S,0,22,22,22,,,,,None,,bi,1,,120.063897347,1c,auditory,2018_Jan_30_1352,
da.wav,4,3,10,120,S,0,23,23,23,,,,,None,,bi,1,,120.063897347,1c,auditory,2018_Jan_30_1352,
di.wav,2,1,10,121,S,0,24,24,24,,,,,None,,bi,1,,120.063897347,1c,auditory,2018_Jan_30_1352,
ba.wav,2,2,10,122,S,0,25,25,25,,,,,None,,bi,1,,120.063897347,1c,auditory,2018_Jan_30_1352,
pu.wav,2,3,10,123,S,0,26,26,26,,,,,None,,bi,1,,120.063897347,1c,auditory,2018_Jan_30_1352,
pi.wav,1,1,12,124,S,0,27,27,27,,,,,None,,bi,1,,120.063897347,1c,auditory,2018_Jan_30_1352,
tu.wav,1,2,12,125,S,0,28,28,28,,,,,None,,bi,1,,120.063897347,1c,auditory,2018_Jan_30_1352,
bi.wav,1,3,12,126,S,0,29,29,29,,,,,None,,bi,1,,120.063897347,1c,auditory,2018_Jan_30_1352,
di.wav,2,1,11,127,S,0,30,30,30,,,,,None,,bi,1,,120.063897347,1c,auditory,2018_Jan_30_1352,
ba.wav,2,2,11,128,S,0,31,31,31,,,,,None,,bi,1,,120.063897347,1c,auditory,2018_Jan_30_1352,
pu.wav,2,3,11,129,S,0,32,32,32,,,,,None,,bi,1,,120.063897347,1c,auditory,2018_Jan_30_1352,
bu.wav,4,1,11,130,S,0,33,33,33,,,,,None,,bi,1,,120.063897347,1c,auditory,2018_Jan_30_1352,
pa.wav,4,2,11,131,S,0,34,34,34,,,,,None,,bi,1,,120.063897347,1c,auditory,2018_Jan_30_1352,
da.wav,4,3,11,132,S,0,35,35,35,,,,,None,,bi,1,,120.063897347,1c,auditory,2018_Jan_30_1352,
ta.wav,3,1,11,133,S,0,36,36,36,,,,,None,,bi,1,,120.063897347,1c,auditory,2018_Jan_30_1352,
ti.wav,3,2,11,134,S,0,37,37,37,,,,,None,,bi,1,,120.063897347,1c,auditory,2018_Jan_30_1352,
du.wav,3,3,11,135,S,0,38,38,38,,,,,None,,bi,1,,120.063897347,1c,auditory,2018_Jan_30_1352,
bu.wav,4,1,12,136,S,0,39,39,39,,,,,None,,bi,1,,120.063897347,1c,auditory,2018_Jan_30_1352,
pa.wav,4,2,12,137,S,0,40,40,40,,,,,None,,bi,1,,120.063897347,1c,auditory,2018_Jan_30_1352,
da.wav,4,3,12,138,S,0,41,41,41,,,,,None,,bi,1,,120.063897347,1c,auditory,2018_Jan_30_1352,
ta.wav,3,1,12,139,S,0,42,42,42,,,,,None,,bi,1,,120.063897347,1c,auditory,2018_Jan_30_1352,
ti.wav,3,2,12,140,S,0,43,43,43,,,,,None,,bi,1,,120.063897347,1c,auditory,2018_Jan_30_1352,
du.wav,3,3,12,141,S,0,44,44,44,,,,,None,,bi,1,,120.063897347,1c,auditory,2018_Jan_30_1352,
di.wav,2,1,12,142,S,0,45,45,45,,,,,None,,bi,1,,120.063897347,1c,auditory,2018_Jan_30_1352,
ba.wav,2,2,12,143,S,0,46,46,46,,,,,None,,bi,1,,120.063897347,1c,auditory,2018_Jan_30_1352,
pu.wav,2,3,12,144,S,0,47,47,47,,,,,None,,bi,1,,120.063897347,1c,auditory,2018_Jan_30_1352,
pi.wav,1,1,13,145,S,0,48,48,48,,,,,None,,bi,1,,120.063897347,1c,auditory,2018_Jan_30_1352,
tu.wav,1,2,13,146,S,0,49,49,49,,,,,None,,bi,1,,120.063897347,1c,auditory,2018_Jan_30_1352,
bi.wav,1,3,13,147,S,0,50,50,50,,,,,None,,bi,1,,120.063897347,1c,auditory,2018_Jan_30_1352,
ta.wav,3,1,13,148,S,0,51,51,51,,,,,None,,bi,1,,120.063897347,1c,auditory,2018_Jan_30_1352,
ti.wav,3,2,13,149,S,0,52,52,52,,,,,None,,bi,1,,120.063897347,1c,auditory,2018_Jan_30_1352,
du.wav,3,3,13,150,S,0,53,53,53,,,,,None,,bi,1,,120.063897347,1c,auditory,2018_Jan_30_1352,
pi.wav,1,1,14,151,S,0,54,54,54,,,,,None,,bi,1,,120.063897347,1c,auditory,2018_Jan_30_1352,
tu.wav,1,2,14,152,S,0,55,55,55,,,,,None,,bi,1,,120.063897347,1c,auditory,2018_Jan_30_1352,
bi.wav,1,3,14,153,S,0,56,56,56,,,,,None,,bi,1,,120.063897347,1c,auditory,2018_Jan_30_1352,
bu.wav,4,1,13,154,S,0,57,57,57,,,,,None,,bi,1,,120.063897347,1c,auditory,2018_Jan_30_1352,
pa.wav,4,2,13,155,S,0,58,58,58,,,,,None,,bi,1,,120.063897347,1c,auditory,2018_Jan_30_1352,
da.wav,4,3,13,156,S,0,59,59,59,,,,,None,,bi,1,,120.063897347,1c,auditory,2018_Jan_30_1352,
di.wav,2,1,13,157,S,0,60,60,60,,,,,None,,bi,1,,120.063897347,1c,auditory,2018_Jan_30_1352,
ba.wav,2,2,13,158,S,0,61,61,61,,,,,None,,bi,1,,120.063897347,1c,auditory,2018_Jan_30_1352,
pu.wav,2,3,13,159,S,0,62,62,62,,,,,None,,bi,1,,120.063897347,1c,auditory,2018_Jan_30_1352,
pi.wav,1,1,15,160,S,0,63,63,63,,,,,None,,bi,1,,120.063897347,1c,auditory,2018_Jan_30_1352,
tu.wav,1,2,15,161,S,0,64,64,64,,,,,None,,bi,1,,120.063897347,1c,auditory,2018_Jan_30_1352,
bi.wav,1,3,15,162,S,0,65,65,65,,,,,None,,bi,1,,120.063897347,1c,auditory,2018_Jan_30_1352,
bu.wav,4,1,14,163,S,0,66,66,66,,,,,None,,bi,1,,120.063897347,1c,auditory,2018_Jan_30_1352,
pa.wav,4,2,14,164,S,0,67,67,67,,,,,None,,bi,1,,120.063897347,1c,auditory,2018_Jan_30_1352,
da.wav,4,3,14,165,S,0,68,68,68,,,,,None,,bi,1,,120.063897347,1c,auditory,2018_Jan_30_1352,
di.wav,2,1,14,166,S,0,69,69,69,,,,,None,,bi,1,,120.063897347,1c,auditory,2018_Jan_30_1352,
ba.wav,2,2,14,167,S,0,70,70,70,,,,,None,,bi,1,,120.063897347,1c,auditory,2018_Jan_30_1352,
pu.wav,2,3,14,168,S,0,71,71,71,,,,,None,,bi,1,,120.063897347,1c,auditory,2018_Jan_30_1352,
ta.wav,3,1,14,169,S,0,72,72,72,,,,,None,,bi,1,,120.063897347,1c,auditory,2018_Jan_30_1352,
ti.wav,3,2,14,170,S,0,73,73,73,,,,,None,,bi,1,,120.063897347,1c,auditory,2018_Jan_30_1352,
du.wav,3,3,14,171,S,0,74,74,74,,,,,None,,bi,1,,120.063897347,1c,auditory,2018_Jan_30_1352,
di.wav,2,1,15,172,S,0,75,75,75,,,,,None,,bi,1,,120.063897347,1c,auditory,2018_Jan_30_1352,
ba.wav,2,2,15,173,S,0,76,76,76,,,,,None,,bi,1,,120.063897347,1c,auditory,2018_Jan_30_1352,
pu.wav,2,3,15,174,S,0,77,77,77,,,,,None,,bi,1,,120.063897347,1c,auditory,2018_Jan_30_1352,
pi.wav,1,1,16,175,S,0,78,78,78,,,,,None,,bi,1,,120.063897347,1c,auditory,2018_Jan_30_1352,
tu.wav,1,2,16,176,S,0,79,79,79,,,,,None,,bi,1,,120.063897347,1c,auditory,2018_Jan_30_1352,
bi.wav,1,3,16,177,S,0,80,80,80,,,,,None,,bi,1,,120.063897347,1c,auditory,2018_Jan_30_1352,
ta.wav,3,1,15,178,S,0,81,81,81,,,,,None,,bi,1,,120.063897347,1c,auditory,2018_Jan_30_1352,
ti.wav,3,2,15,179,S,0,82,82,82,,,,,None,,bi,1,,120.063897347,1c,auditory,2018_Jan_30_1352,
du.wav,3,3,15,180,S,0,83,83,83,,,,,None,,bi,1,,120.063897347,1c,auditory,2018_Jan_30_1352,
bu.wav,4,1,15,181,S,0,84,84,84,,,,,None,,bi,1,,120.063897347,1c,auditory,2018_Jan_30_1352,
pa.wav,4,2,15,182,S,0,85,85,85,,,,,None,,bi,1,,120.063897347,1c,auditory,2018_Jan_30_1352,
da.wav,4,3,15,183,S,0,86,86,86,,,,,None,,bi,1,,120.063897347,1c,auditory,2018_Jan_30_1352,
ta.wav,3,1,16,184,S,0,87,87,87,,,,,None,,bi,1,,120.063897347,1c,auditory,2018_Jan_30_1352,
ti.wav,3,2,16,185,S,0,88,88,88,,,,,None,,bi,1,,120.063897347,1c,auditory,2018_Jan_30_1352,
du.wav,3,3,16,186,S,0,89,89,89,,,,,None,,bi,1,,120.063897347,1c,auditory,2018_Jan_30_1352,
di.wav,2,1,16,187,S,0,90,90,90,,,,,None,,bi,1,,120.063897347,1c,auditory,2018_Jan_30_1352,
ba.wav,2,2,16,188,S,0,91,91,91,,,,,None,,bi,1,,120.063897347,1c,auditory,2018_Jan_30_1352,
pu.wav,2,3,16,189,S,0,92,92,92,,,,,None,,bi,1,,120.063897347,1c,auditory,2018_Jan_30_1352,
bu.wav,4,1,16,190,S,0,93,93,93,,,,,None,,bi,1,,120.063897347,1c,auditory,2018_Jan_30_1352,
pa.wav,4,2,16,191,S,0,94,94,94,,,,,None,,bi,1,,120.063897347,1c,auditory,2018_Jan_30_1352,
da.wav,4,3,16,192,S,0,95,95,95,,,,,None,,bi,1,,120.063897347,1c,auditory,2018_Jan_30_1352,
silence.wav,0,0,0,0,B,0,96,96,96,,,,,None,,bi,1,,120.063897347,1c,auditory,2018_Jan_30_1352,
silence.wav,0,0,0,0,B,0,97,97,97,,,,,None,,bi,1,,120.063897347,1c,auditory,2018_Jan_30_1352,
silence.wav,0,0,0,0,B,0,98,98,98,,,,,None,,bi,1,,120.063897347,1c,auditory,2018_Jan_30_1352,
silence.wav,0,0,0,0,B,0,99,99,99,,,,,None,,bi,1,,120.063897347,1c,auditory,2018_Jan_30_1352,
silence.wav,0,0,0,0,B,0,100,100,100,,,,,None,,bi,1,,120.063897347,1c,auditory,2018_Jan_30_1352,
silence.wav,0,0,0,0,B,0,101,101,101,,,,,None,,bi,1,,120.063897347,1c,auditory,2018_Jan_30_1352,
silence.wav,0,0,0,0,B,0,102,102,102,,,,,None,,bi,1,,120.063897347,1c,auditory,2018_Jan_30_1352,
silence.wav,0,0,0,0,B,0,103,103,103,,,,,None,,bi,1,,120.063897347,1c,auditory,2018_Jan_30_1352,
silence.wav,0,0,0,0,B,0,104,104,104,,,,,None,,bi,1,,120.063897347,1c,auditory,2018_Jan_30_1352,
silence.wav,0,0,0,0,B,0,105,105,105,,,,,None,,bi,1,,120.063897347,1c,auditory,2018_Jan_30_1352,
silence.wav,0,0,0,0,B,0,106,106,106,,,,,None,,bi,1,,120.063897347,1c,auditory,2018_Jan_30_1352,
silence.wav,0,0,0,0,B,0,107,107,107,,,,,None,,bi,1,,120.063897347,1c,auditory,2018_Jan_30_1352,
silence.wav,0,0,0,0,B,0,108,108,108,,,,,None,,bi,1,,120.063897347,1c,auditory,2018_Jan_30_1352,
silence.wav,0,0,0,0,B,0,109,109,109,,,,,None,,bi,1,,120.063897347,1c,auditory,2018_Jan_30_1352,
silence.wav,0,0,0,0,B,0,110,110,110,,,,,None,,bi,1,,120.063897347,1c,auditory,2018_Jan_30_1352,
silence.wav,0,0,0,0,B,0,111,111,111,,,,,None,,bi,1,,120.063897347,1c,auditory,2018_Jan_30_1352,
silence.wav,0,0,0,0,B,0,112,112,112,,,,,None,,bi,1,,120.063897347,1c,auditory,2018_Jan_30_1352,
silence.wav,0,0,0,0,B,0,113,113,113,,,,,None,,bi,1,,120.063897347,1c,auditory,2018_Jan_30_1352,
silence.wav,0,0,0,0,B,0,114,114,114,,,,,None,,bi,1,,120.063897347,1c,auditory,2018_Jan_30_1352,
silence.wav,0,0,0,0,B,0,115,115,115,,,,,None,,bi,1,,120.063897347,1c,auditory,2018_Jan_30_1352,
silence.wav,0,0,0,0,B,0,116,116,116,,,,,None,,bi,1,,120.063897347,1c,auditory,2018_Jan_30_1352,
silence.wav,0,0,0,0,B,0,117,117,117,,,,,None,,bi,1,,120.063897347,1c,auditory,2018_Jan_30_1352,
silence.wav,0,0,0,0,B,0,118,118,118,,,,,None,,bi,1,,120.063897347,1c,auditory,2018_Jan_30_1352,
silence.wav,0,0,0,0,B,0,119,119,119,,,,,None,,bi,1,,120.063897347,1c,auditory,2018_Jan_30_1352,
2B.wav,0,1,1,97,R,,,,,0,0,0,0,,None,bi,1,,120.063897347,1c,auditory,2018_Jan_30_1352,
3C.wav,0,2,1,98,R,,,,,0,1,1,1,,None,bi,1,,120.063897347,1c,auditory,2018_Jan_30_1352,
4A.wav,0,3,1,99,R,,,,,0,2,2,2,,None,bi,1,,120.063897347,1c,auditory,2018_Jan_30_1352,
2B.wav,0,1,1,100,R,,,,,0,3,3,3,,None,bi,1,,120.063897347,1c,auditory,2018_Jan_30_1352,
4B.wav,0,2,1,101,R,,,,,0,4,4,4,,None,bi,1,,120.063897347,1c,auditory,2018_Jan_30_1352,
4A.wav,0,3,1,102,R,,,,,0,5,5,5,,None,bi,1,,120.063897347,1c,auditory,2018_Jan_30_1352,
2C.wav,0,1,1,103,R,,,,,0,6,6,6,,None,bi,1,,120.063897347,1c,auditory,2018_Jan_30_1352,
3B.wav,0,2,1,104,R,,,,,0,7,7,7,,None,bi,1,,120.063897347,1c,auditory,2018_Jan_30_1352,
2A.wav,0,3,1,105,R,,,,,0,8,8,8,,None,bi,1,,120.063897347,1c,auditory,2018_Jan_30_1352,
3A.wav,0,1,1,106,R,,,,,0,9,9,9,,None,bi,1,,120.063897347,1c,auditory,2018_Jan_30_1352,
2B.wav,0,2,1,107,R,,,,,0,10,10,10,,None,bi,1,,120.063897347,1c,auditory,2018_Jan_30_1352,
1C.wav,0,3,1,108,R,,,,,0,11,11,11,,None,bi,1,,120.063897347,1c,auditory,2018_Jan_30_1352,
2A.wav,0,1,1,109,R,,,,,0,12,12,12,,None,bi,1,,120.063897347,1c,auditory,2018_Jan_30_1352,
