"","letter6","letter5","letter4","letter3","letter2","letter1","lslcorrAns","tsl6","tsl5","tsl4","tsl3","tsl2","tsl1","tslcorrAns","vslcorrAns","vsl1","vsl3","vsl2","vsl5","vsl4","vsl6","ssl2","ssl3","sslcorrAns","ssl1","ssl6","ssl4","ssl5","lsl_block.thisRepN","lsl_block.thisTrialN","lsl_block.thisN","lsl_block.thisIndex","tsl_block.thisRepN","tsl_block.thisTrialN","tsl_block.thisN","tsl_block.thisIndex","vsl_block.thisRepN","vsl_block.thisTrialN","vsl_block.thisN","vsl_block.thisIndex","ssl_block.thisRepN","ssl_block.thisTrialN","ssl_block.thisN","ssl_block.thisIndex","lsl_question_key_resp.keys","lsl_question_key_resp.corr","lsl_question_key_resp.rt","tsl.keys","tsl.corr","tsl.rt","vsl_question_key_resp.keys","vsl_question_key_resp.corr","vsl_question_key_resp.rt","instr10_key_resp.keys","instr10_key_resp.rt","ssl_question_key_resp.keys","ssl_question_key_resp.corr","ssl_question_key_resp.rt","date","expName","frameRate","PartID","X"
"1","H.png","L.png","E.png","G.png","K.png","A.png",4,"","","","","","",NA,NA,"","","","","","","","",NA,"","","","",0,0,0,15,NA,NA,NA,NA,NA,NA,NA,NA,NA,NA,NA,NA,4,1,8.7852855667,NA,NA,NA,NA,NA,NA,NA,NA,NA,NA,NA,"2018_Apr_05_1232","test_session",119.995733456,"ptt_a_001",NA
"2","B.png","J.png","E.png","C.png","G.png","D.png",3,"","","","","","",NA,NA,"","","","","","","","",NA,"","","","",0,1,1,13,NA,NA,NA,NA,NA,NA,NA,NA,NA,NA,NA,NA,3,1,2.10070419952,NA,NA,NA,NA,NA,NA,NA,NA,NA,NA,NA,"2018_Apr_05_1232","test_session",119.995733456,"ptt_a_001",NA
"3","H.png","C.png","M.png","H.png","L.png","E.png",3,"","","","","","",NA,NA,"","","","","","","","",NA,"","","","",0,2,2,1,NA,NA,NA,NA,NA,NA,NA,NA,NA,NA,NA,NA,3,1,3.69252135395,NA,NA,NA,NA,NA,NA,NA,NA,NA,NA,NA,"2018_Apr_05_1232","test_session",119.995733456,"ptt_a_001",NA
"4","F.png","L.png","D.png","F.png","J.png","A.png",3,"","","","","","",NA,NA,"","","","","","","","",NA,"","","","",0,3,3,19,NA,NA,NA,NA,NA,NA,NA,NA,NA,NA,NA,NA,3,1,8.72696361359,NA,NA,NA,NA,NA,NA,NA,NA,NA,NA,NA,"2018_Apr_05_1232","test_session",119.995733456,"ptt_a_001",NA
"5","F.png","J.png","A.png","G.png","K.png","A.png",4,"","","","","","",NA,NA,"","","","","","","","",NA,"","","","",0,4,4,11,NA,NA,NA,NA,NA,NA,NA,NA,NA,NA,NA,NA,3,0,0.300661077723,NA,NA,NA,NA,NA,NA,NA,NA,NA,NA,NA,"2018_Apr_05_1232","test_session",119.995733456,"ptt_a_001",NA
"6","B.png","J.png","E.png","H.png","L.png","E.png",3,"","","","","","",NA,NA,"","","","","","","","",NA,"","","","",0,5,5,12,NA,NA,NA,NA,NA,NA,NA,NA,NA,NA,NA,NA,3,1,0.392074463074,NA,NA,NA,NA,NA,NA,NA,NA,NA,NA,NA,"2018_Apr_05_1232","test_session",119.995733456,"ptt_a_001",NA
"7","F.png","L.png","D.png","H.png","L.png","E.png",3,"","","","","","",NA,NA,"","","","","","","","",NA,"","","","",0,6,6,10,NA,NA,NA,NA,NA,NA,NA,NA,NA,NA,NA,NA,3,1,1.12549952028,NA,NA,NA,NA,NA,NA,NA,NA,NA,NA,NA,"2018_Apr_05_1232","test_session",119.995733456,"ptt_a_001",NA
"8","H.png","C.png","M.png","F.png","J.png","A.png",3,"","","","","","",NA,NA,"","","","","","","","",NA,"","","","",0,7,7,5,NA,NA,NA,NA,NA,NA,NA,NA,NA,NA,NA,NA,4,0,0.658743841399,NA,NA,NA,NA,NA,NA,NA,NA,NA,NA,NA,"2018_Apr_05_1232","test_session",119.995733456,"ptt_a_001",NA
"9","C.png","G.png","D.png","F.png","L.png","D.png",4,"","","","","","",NA,NA,"","","","","","","","",NA,"","","","",0,8,8,29,NA,NA,NA,NA,NA,NA,NA,NA,NA,NA,NA,NA,3,0,5.94306556758,NA,NA,NA,NA,NA,NA,NA,NA,NA,NA,NA,"2018_Apr_05_1232","test_session",119.995733456,"ptt_a_001",NA
"10","F.png","J.png","A.png","B.png","J.png","E.png",4,"","","","","","",NA,NA,"","","","","","","","",NA,"","","","",0,9,9,20,NA,NA,NA,NA,NA,NA,NA,NA,NA,NA,NA,NA,4,1,0.633825356083,NA,NA,NA,NA,NA,NA,NA,NA,NA,NA,NA,"2018_Apr_05_1232","test_session",119.995733456,"ptt_a_001",NA
"11","C.png","G.png","D.png","G.png","K.png","A.png",4,"","","","","","",NA,NA,"","","","","","","","",NA,"","","","",0,10,10,27,NA,NA,NA,NA,NA,NA,NA,NA,NA,NA,NA,NA,4,1,1.00896370289,NA,NA,NA,NA,NA,NA,NA,NA,NA,NA,NA,"2018_Apr_05_1232","test_session",119.995733456,"ptt_a_001",NA
"12","H.png","L.png","E.png","B.png","J.png","E.png",4,"","","","","","",NA,NA,"","","","","","","","",NA,"","","","",0,11,11,3,NA,NA,NA,NA,NA,NA,NA,NA,NA,NA,NA,NA,4,1,0.317046509241,NA,NA,NA,NA,NA,NA,NA,NA,NA,NA,NA,"2018_Apr_05_1232","test_session",119.995733456,"ptt_a_001",NA
"13","G.png","K.png","A.png","C.png","G.png","D.png",3,"","","","","","",NA,NA,"","","","","","","","",NA,"","","","",0,12,12,21,NA,NA,NA,NA,NA,NA,NA,NA,NA,NA,NA,NA,3,1,0.275416334451,NA,NA,NA,NA,NA,NA,NA,NA,NA,NA,NA,"2018_Apr_05_1232","test_session",119.995733456,"ptt_a_001",NA
"14","H.png","L.png","E.png","H.png","C.png","M.png",4,"","","","","","",NA,NA,"","","","","","","","",NA,"","","","",0,13,13,4,NA,NA,NA,NA,NA,NA,NA,NA,NA,NA,NA,NA,4,1,0.342056870169,NA,NA,NA,NA,NA,NA,NA,NA,NA,NA,NA,"2018_Apr_05_1232","test_session",119.995733456,"ptt_a_001",NA
"15","H.png","C.png","M.png","G.png","C.png","D.png",3,"","","","","","",NA,NA,"","","","","","","","",NA,"","","","",0,14,14,17,NA,NA,NA,NA,NA,NA,NA,NA,NA,NA,NA,NA,3,1,0.233778195223,NA,NA,NA,NA,NA,NA,NA,NA,NA,NA,NA,"2018_Apr_05_1232","test_session",119.995733456,"ptt_a_001",NA
"16","F.png","J.png","A.png","H.png","C.png","M.png",4,"","","","","","",NA,NA,"","","","","","","","",NA,"","","","",0,15,15,22,NA,NA,NA,NA,NA,NA,NA,NA,NA,NA,NA,NA,3,0,1.16716610402,NA,NA,NA,NA,NA,NA,NA,NA,NA,NA,NA,"2018_Apr_05_1232","test_session",119.995733456,"ptt_a_001",NA
"17","C.png","G.png","D.png","B.png","J.png","E.png",4,"","","","","","",NA,NA,"","","","","","","","",NA,"","","","",0,16,16,25,NA,NA,NA,NA,NA,NA,NA,NA,NA,NA,NA,NA,4,1,0.483758639661,NA,NA,NA,NA,NA,NA,NA,NA,NA,NA,NA,"2018_Apr_05_1232","test_session",119.995733456,"ptt_a_001",NA
"18","B.png","J.png","E.png","B.png","K.png","M.png",3,"","","","","","",NA,NA,"","","","","","","","",NA,"","","","",0,17,17,16,NA,NA,NA,NA,NA,NA,NA,NA,NA,NA,NA,NA,4,0,0.10062171059,NA,NA,NA,NA,NA,NA,NA,NA,NA,NA,NA,"2018_Apr_05_1232","test_session",119.995733456,"ptt_a_001",NA
"19","B.png","K.png","M.png","H.png","C.png","M.png",4,"","","","","","",NA,NA,"","","","","","","","",NA,"","","","",0,18,18,9,NA,NA,NA,NA,NA,NA,NA,NA,NA,NA,NA,NA,3,0,0.150760476885,NA,NA,NA,NA,NA,NA,NA,NA,NA,NA,NA,"2018_Apr_05_1232","test_session",119.995733456,"ptt_a_001",NA
"20","H.png","C.png","M.png","B.png","K.png","M.png",3,"","","","","","",NA,NA,"","","","","","","","",NA,"","","","",0,19,19,28,NA,NA,NA,NA,NA,NA,NA,NA,NA,NA,NA,NA,4,0,0.458786678792,NA,NA,NA,NA,NA,NA,NA,NA,NA,NA,NA,"2018_Apr_05_1232","test_session",119.995733456,"ptt_a_001",NA
"21","F.png","L.png","D.png","B.png","K.png","M.png",3,"","","","","","",NA,NA,"","","","","","","","",NA,"","","","",0,20,20,31,NA,NA,NA,NA,NA,NA,NA,NA,NA,NA,NA,NA,4,0,0.425373539736,NA,NA,NA,NA,NA,NA,NA,NA,NA,NA,NA,"2018_Apr_05_1232","test_session",119.995733456,"ptt_a_001",NA
"22","F.png","L.png","D.png","C.png","G.png","D.png",3,"","","","","","",NA,NA,"","","","","","","","",NA,"","","","",0,21,21,6,NA,NA,NA,NA,NA,NA,NA,NA,NA,NA,NA,NA,3,1,0.225415239343,NA,NA,NA,NA,NA,NA,NA,NA,NA,NA,NA,"2018_Apr_05_1232","test_session",119.995733456,"ptt_a_001",NA
"23","G.png","K.png","A.png","F.png","J.png","A.png",3,"","","","","","",NA,NA,"","","","","","","","",NA,"","","","",0,22,22,0,NA,NA,NA,NA,NA,NA,NA,NA,NA,NA,NA,NA,3,1,2.8425271993,NA,NA,NA,NA,NA,NA,NA,NA,NA,NA,NA,"2018_Apr_05_1232","test_session",119.995733456,"ptt_a_001",NA
"24","B.png","K.png","M.png","B.png","J.png","E.png",4,"","","","","","",NA,NA,"","","","","","","","",NA,"","","","",0,23,23,8,NA,NA,NA,NA,NA,NA,NA,NA,NA,NA,NA,NA,3,0,0.317094295926,NA,NA,NA,NA,NA,NA,NA,NA,NA,NA,NA,"2018_Apr_05_1232","test_session",119.995733456,"ptt_a_001",NA
"25","G.png","K.png","A.png","H.png","L.png","E.png",3,"","","","","","",NA,NA,"","","","","","","","",NA,"","","","",0,24,24,18,NA,NA,NA,NA,NA,NA,NA,NA,NA,NA,NA,NA,3,1,0.200391793973,NA,NA,NA,NA,NA,NA,NA,NA,NA,NA,NA,"2018_Apr_05_1232","test_session",119.995733456,"ptt_a_001",NA
"26","H.png","L.png","E.png","F.png","L.png","D.png",4,"","","","","","",NA,NA,"","","","","","","","",NA,"","","","",0,25,25,30,NA,NA,NA,NA,NA,NA,NA,NA,NA,NA,NA,NA,4,1,0.083637238713,NA,NA,NA,NA,NA,NA,NA,NA,NA,NA,NA,"2018_Apr_05_1232","test_session",119.995733456,"ptt_a_001",NA
"27","C.png","G.png","D.png","H.png","C.png","M.png",4,"","","","","","",NA,NA,"","","","","","","","",NA,"","","","",0,26,26,7,NA,NA,NA,NA,NA,NA,NA,NA,NA,NA,NA,NA,4,1,0.326261376729,NA,NA,NA,NA,NA,NA,NA,NA,NA,NA,NA,"2018_Apr_05_1232","test_session",119.995733456,"ptt_a_001",NA
"28","B.png","K.png","M.png","F.png","L.png","D.png",4,"","","","","","",NA,NA,"","","","","","","","",NA,"","","","",0,27,27,26,NA,NA,NA,NA,NA,NA,NA,NA,NA,NA,NA,NA,3,0,1.08387702552,NA,NA,NA,NA,NA,NA,NA,NA,NA,NA,NA,"2018_Apr_05_1232","test_session",119.995733456,"ptt_a_001",NA
"29","B.png","J.png","E.png","F.png","J.png","A.png",3,"","","","","","",NA,NA,"","","","","","","","",NA,"","","","",0,28,28,24,NA,NA,NA,NA,NA,NA,NA,NA,NA,NA,NA,NA,3,1,0.808947944664,NA,NA,NA,NA,NA,NA,NA,NA,NA,NA,NA,"2018_Apr_05_1232","test_session",119.995733456,"ptt_a_001",NA
"30","B.png","K.png","M.png","G.png","K.png","A.png",4,"","","","","","",NA,NA,"","","","","","","","",NA,"","","","",0,29,29,14,NA,NA,NA,NA,NA,NA,NA,NA,NA,NA,NA,NA,3,0,1.02554454783,NA,NA,NA,NA,NA,NA,NA,NA,NA,NA,NA,"2018_Apr_05_1232","test_session",119.995733456,"ptt_a_001",NA
"31","G.png","K.png","A.png","B.png","K.png","M.png",3,"","","","","","",NA,NA,"","","","","","","","",NA,"","","","",0,30,30,2,NA,NA,NA,NA,NA,NA,NA,NA,NA,NA,NA,NA,4,0,1.04220304621,NA,NA,NA,NA,NA,NA,NA,NA,NA,NA,NA,"2018_Apr_05_1232","test_session",119.995733456,"ptt_a_001",NA
"32","F.png","J.png","A.png","F.png","L.png","D.png",4,"","","","","","",NA,NA,"","","","","","","","",NA,"","","","",0,31,31,23,NA,NA,NA,NA,NA,NA,NA,NA,NA,NA,NA,NA,3,0,0.267020667496,NA,NA,NA,NA,NA,NA,NA,NA,NA,NA,NA,"2018_Apr_05_1232","test_session",119.995733456,"ptt_a_001",NA
"33","","","","","","",NA,"3C.wav","2B.wav","1A.wav","3C.wav","3B.wav","3A.wav",3,NA,"","","","","","","","",NA,"","","","",NA,NA,NA,NA,0,0,0,31,NA,NA,NA,NA,NA,NA,NA,NA,NA,NA,NA,4,0,4.16783625545,NA,NA,NA,NA,NA,NA,NA,NA,"2018_Apr_05_1232","test_session",119.995733456,"ptt_a_001",NA
"34","","","","","","",NA,"4C.wav","3B.wav","2A.wav","3C.wav","3B.wav","3A.wav",3,NA,"","","","","","","","",NA,"","","","",NA,NA,NA,NA,0,1,1,27,NA,NA,NA,NA,NA,NA,NA,NA,NA,NA,NA,3,1,2.95081213204,NA,NA,NA,NA,NA,NA,NA,NA,"2018_Apr_05_1232","test_session",119.995733456,"ptt_a_001",NA
"35","","","","","","",NA,"4C.wav","3B.wav","2A.wav","2C.wav","2B.wav","2A.wav",3,NA,"","","","","","","","",NA,"","","","",NA,NA,NA,NA,0,2,2,22,NA,NA,NA,NA,NA,NA,NA,NA,NA,NA,NA,4,0,3.54269101098,NA,NA,NA,NA,NA,NA,NA,NA,"2018_Apr_05_1232","test_session",119.995733456,"ptt_a_001",NA
"36","","","","","","",NA,"1C.wav","4B.wav","3A.wav","2C.wav","2B.wav","2A.wav",3,NA,"","","","","","","","",NA,"","","","",NA,NA,NA,NA,0,3,3,14,NA,NA,NA,NA,NA,NA,NA,NA,NA,NA,NA,3,1,0.608984524268,NA,NA,NA,NA,NA,NA,NA,NA,"2018_Apr_05_1232","test_session",119.995733456,"ptt_a_001",NA
"37","","","","","","",NA,"1C.wav","4B.wav","3A.wav","3C.wav","3B.wav","3A.wav",3,NA,"","","","","","","","",NA,"","","","",NA,NA,NA,NA,0,4,4,10,NA,NA,NA,NA,NA,NA,NA,NA,NA,NA,NA,3,1,1.91732532182,NA,NA,NA,NA,NA,NA,NA,NA,"2018_Apr_05_1232","test_session",119.995733456,"ptt_a_001",NA
"38","","","","","","",NA,"4C.wav","3B.wav","2A.wav","4C.wav","4B.wav","4A.wav",3,NA,"","","","","","","","",NA,"","","","",NA,NA,NA,NA,0,5,5,8,NA,NA,NA,NA,NA,NA,NA,NA,NA,NA,NA,3,1,0.808945953555,NA,NA,NA,NA,NA,NA,NA,NA,"2018_Apr_05_1232","test_session",119.995733456,"ptt_a_001",NA
"39","","","","","","",NA,"2C.wav","1B.wav","4A.wav","1C.wav","1B.wav","1A.wav",3,NA,"","","","","","","","",NA,"","","","",NA,NA,NA,NA,0,6,6,13,NA,NA,NA,NA,NA,NA,NA,NA,NA,NA,NA,3,1,1.2254488038,NA,NA,NA,NA,NA,NA,NA,NA,"2018_Apr_05_1232","test_session",119.995733456,"ptt_a_001",NA
"40","","","","","","",NA,"3C.wav","2B.wav","1A.wav","4C.wav","4B.wav","4A.wav",3,NA,"","","","","","","","",NA,"","","","",NA,NA,NA,NA,0,7,7,18,NA,NA,NA,NA,NA,NA,NA,NA,NA,NA,NA,3,1,1.40894401929,NA,NA,NA,NA,NA,NA,NA,NA,"2018_Apr_05_1232","test_session",119.995733456,"ptt_a_001",NA
"41","","","","","","",NA,"4C.wav","4B.wav","4A.wav","2C.wav","1B.wav","4A.wav",4,NA,"","","","","","","","",NA,"","","","",NA,NA,NA,NA,0,8,8,28,NA,NA,NA,NA,NA,NA,NA,NA,NA,NA,NA,3,0,5.10177740903,NA,NA,NA,NA,NA,NA,NA,NA,"2018_Apr_05_1232","test_session",119.995733456,"ptt_a_001",NA
"42","","","","","","",NA,"1C.wav","1B.wav","1A.wav","3C.wav","2B.wav","1A.wav",4,NA,"","","","","","","","",NA,"","","","",NA,NA,NA,NA,0,9,9,7,NA,NA,NA,NA,NA,NA,NA,NA,NA,NA,NA,4,1,1.97570615506,NA,NA,NA,NA,NA,NA,NA,NA,"2018_Apr_05_1232","test_session",119.995733456,"ptt_a_001",NA
"43","","","","","","",NA,"1C.wav","4B.wav","3A.wav","1C.wav","1B.wav","1A.wav",3,NA,"","","","","","","","",NA,"","","","",NA,NA,NA,NA,0,10,10,19,NA,NA,NA,NA,NA,NA,NA,NA,NA,NA,NA,4,0,5.35133602208,NA,NA,NA,NA,NA,NA,NA,NA,"2018_Apr_05_1232","test_session",119.995733456,"ptt_a_001",NA
"44","","","","","","",NA,"3C.wav","3B.wav","3A.wav","3C.wav","2B.wav","1A.wav",4,NA,"","","","","","","","",NA,"","","","",NA,NA,NA,NA,0,11,11,3,NA,NA,NA,NA,NA,NA,NA,NA,NA,NA,NA,3,0,0.867084724363,NA,NA,NA,NA,NA,NA,NA,NA,"2018_Apr_05_1232","test_session",119.995733456,"ptt_a_001",NA
"45","","","","","","",NA,"1C.wav","1B.wav","1A.wav","4C.wav","3B.wav","2A.wav",4,NA,"","","","","","","","",NA,"","","","",NA,NA,NA,NA,0,12,12,20,NA,NA,NA,NA,NA,NA,NA,NA,NA,NA,NA,3,0,0.658997281571,NA,NA,NA,NA,NA,NA,NA,NA,"2018_Apr_05_1232","test_session",119.995733456,"ptt_a_001",NA
"46","","","","","","",NA,"4C.wav","4B.wav","4A.wav","3C.wav","2B.wav","1A.wav",4,NA,"","","","","","","","",NA,"","","","",NA,NA,NA,NA,0,13,13,26,NA,NA,NA,NA,NA,NA,NA,NA,NA,NA,NA,3,0,0.600489301607,NA,NA,NA,NA,NA,NA,NA,NA,"2018_Apr_05_1232","test_session",119.995733456,"ptt_a_001",NA
"47","","","","","","",NA,"2C.wav","2B.wav","2A.wav","4C.wav","3B.wav","2A.wav",4,NA,"","","","","","","","",NA,"","","","",NA,NA,NA,NA,0,14,14,16,NA,NA,NA,NA,NA,NA,NA,NA,NA,NA,NA,3,0,1.2672388365,NA,NA,NA,NA,NA,NA,NA,NA,"2018_Apr_05_1232","test_session",119.995733456,"ptt_a_001",NA
"48","","","","","","",NA,"2C.wav","1B.wav","4A.wav","4C.wav","4B.wav","4A.wav",3,NA,"","","","","","","","",NA,"","","","",NA,NA,NA,NA,0,15,15,25,NA,NA,NA,NA,NA,NA,NA,NA,NA,NA,NA,3,1,2.99313635164,NA,NA,NA,NA,NA,NA,NA,NA,"2018_Apr_05_1232","test_session",119.995733456,"ptt_a_001",NA
"49","","","","","","",NA,"3C.wav","2B.wav","1A.wav","1C.wav","1B.wav","1A.wav",3,NA,"","","","","","","","",NA,"","","","",NA,NA,NA,NA,0,16,16,24,NA,NA,NA,NA,NA,NA,NA,NA,NA,NA,NA,3,1,2.83426863462,NA,NA,NA,NA,NA,NA,NA,NA,"2018_Apr_05_1232","test_session",119.995733456,"ptt_a_001",NA
"50","","","","","","",NA,"3C.wav","3B.wav","3A.wav","2C.wav","1B.wav","4A.wav",4,NA,"","","","","","","","",NA,"","","","",NA,NA,NA,NA,0,17,17,11,NA,NA,NA,NA,NA,NA,NA,NA,NA,NA,NA,3,0,4.03434839286,NA,NA,NA,NA,NA,NA,NA,NA,"2018_Apr_05_1232","test_session",119.995733456,"ptt_a_001",NA
"51","","","","","","",NA,"4C.wav","4B.wav","4A.wav","4C.wav","3B.wav","2A.wav",4,NA,"","","","","","","","",NA,"","","","",NA,NA,NA,NA,0,18,18,2,NA,NA,NA,NA,NA,NA,NA,NA,NA,NA,NA,3,0,2.792547722,NA,NA,NA,NA,NA,NA,NA,NA,"2018_Apr_05_1232","test_session",119.995733456,"ptt_a_001",NA
"52","","","","","","",NA,"3C.wav","2B.wav","1A.wav","2C.wav","2B.wav","2A.wav",3,NA,"","","","","","","","",NA,"","","","",NA,NA,NA,NA,0,19,19,1,NA,NA,NA,NA,NA,NA,NA,NA,NA,NA,NA,3,1,4.7928540688,NA,NA,NA,NA,NA,NA,NA,NA,"2018_Apr_05_1232","test_session",119.995733456,"ptt_a_001",NA
"53","","","","","","",NA,"2C.wav","2B.wav","2A.wav","3C.wav","2B.wav","1A.wav",4,NA,"","","","","","","","",NA,"","","","",NA,NA,NA,NA,0,20,20,30,NA,NA,NA,NA,NA,NA,NA,NA,NA,NA,NA,3,0,6.78504179767,NA,NA,NA,NA,NA,NA,NA,NA,"2018_Apr_05_1232","test_session",119.995733456,"ptt_a_001",NA
"54","","","","","","",NA,"2C.wav","1B.wav","4A.wav","3C.wav","3B.wav","3A.wav",3,NA,"","","","","","","","",NA,"","","","",NA,NA,NA,NA,0,21,21,15,NA,NA,NA,NA,NA,NA,NA,NA,NA,NA,NA,4,0,0.417123792809,NA,NA,NA,NA,NA,NA,NA,NA,"2018_Apr_05_1232","test_session",119.995733456,"ptt_a_001",NA
"55","","","","","","",NA,"2C.wav","2B.wav","2A.wav","1C.wav","4B.wav","3A.wav",4,NA,"","","","","","","","",NA,"","","","",NA,NA,NA,NA,0,22,22,0,NA,NA,NA,NA,NA,NA,NA,NA,NA,NA,NA,3,0,0.308578308846,NA,NA,NA,NA,NA,NA,NA,NA,"2018_Apr_05_1232","test_session",119.995733456,"ptt_a_001",NA
"56","","","","","","",NA,"2C.wav","1B.wav","4A.wav","2C.wav","2B.wav","2A.wav",3,NA,"","","","","","","","",NA,"","","","",NA,NA,NA,NA,0,23,23,17,NA,NA,NA,NA,NA,NA,NA,NA,NA,NA,NA,4,0,1.05884931347,NA,NA,NA,NA,NA,NA,NA,NA,"2018_Apr_05_1232","test_session",119.995733456,"ptt_a_001",NA
"57","","","","","","",NA,"1C.wav","4B.wav","3A.wav","4C.wav","4B.wav","4A.wav",3,NA,"","","","","","","","",NA,"","","","",NA,NA,NA,NA,0,24,24,12,NA,NA,NA,NA,NA,NA,NA,NA,NA,NA,NA,4,0,4.05933400709,NA,NA,NA,NA,NA,NA,NA,NA,"2018_Apr_05_1232","test_session",119.995733456,"ptt_a_001",NA
"58","","","","","","",NA,"4C.wav","4B.wav","4A.wav","1C.wav","4B.wav","3A.wav",4,NA,"","","","","","","","",NA,"","","","",NA,NA,NA,NA,0,25,25,6,NA,NA,NA,NA,NA,NA,NA,NA,NA,NA,NA,4,1,5.68470879842,NA,NA,NA,NA,NA,NA,NA,NA,"2018_Apr_05_1232","test_session",119.995733456,"ptt_a_001",NA
"59","","","","","","",NA,"3C.wav","3B.wav","3A.wav","4C.wav","3B.wav","2A.wav",4,NA,"","","","","","","","",NA,"","","","",NA,NA,NA,NA,0,26,26,9,NA,NA,NA,NA,NA,NA,NA,NA,NA,NA,NA,3,0,0.759636912146,NA,NA,NA,NA,NA,NA,NA,NA,"2018_Apr_05_1232","test_session",119.995733456,"ptt_a_001",NA
"60","","","","","","",NA,"3C.wav","3B.wav","3A.wav","1C.wav","4B.wav","3A.wav",4,NA,"","","","","","","","",NA,"","","","",NA,NA,NA,NA,0,27,27,4,NA,NA,NA,NA,NA,NA,NA,NA,NA,NA,NA,3,0,5.30121176247,NA,NA,NA,NA,NA,NA,NA,NA,"2018_Apr_05_1232","test_session",119.995733456,"ptt_a_001",NA
"61","","","","","","",NA,"1C.wav","1B.wav","1A.wav","2C.wav","1B.wav","4A.wav",4,NA,"","","","","","","","",NA,"","","","",NA,NA,NA,NA,0,28,28,5,NA,NA,NA,NA,NA,NA,NA,NA,NA,NA,NA,4,1,1.17563999322,NA,NA,NA,NA,NA,NA,NA,NA,"2018_Apr_05_1232","test_session",119.995733456,"ptt_a_001",NA
"62","","","","","","",NA,"1C.wav","1B.wav","1A.wav","1C.wav","4B.wav","3A.wav",4,NA,"","","","","","","","",NA,"","","","",NA,NA,NA,NA,0,29,29,21,NA,NA,NA,NA,NA,NA,NA,NA,NA,NA,NA,3,0,0.333744545409,NA,NA,NA,NA,NA,NA,NA,NA,"2018_Apr_05_1232","test_session",119.995733456,"ptt_a_001",NA
"63","","","","","","",NA,"4C.wav","3B.wav","2A.wav","1C.wav","1B.wav","1A.wav",3,NA,"","","","","","","","",NA,"","","","",NA,NA,NA,NA,0,30,30,29,NA,NA,NA,NA,NA,NA,NA,NA,NA,NA,NA,4,0,2.06718581601,NA,NA,NA,NA,NA,NA,NA,NA,"2018_Apr_05_1232","test_session",119.995733456,"ptt_a_001",NA
"64","","","","","","",NA,"2C.wav","2B.wav","2A.wav","2C.wav","1B.wav","4A.wav",4,NA,"","","","","","","","",NA,"","","","",NA,NA,NA,NA,0,31,31,23,NA,NA,NA,NA,NA,NA,NA,NA,NA,NA,NA,3,0,0.792099152808,NA,NA,NA,NA,NA,NA,NA,NA,"2018_Apr_05_1232","test_session",119.995733456,"ptt_a_001",NA
"65","","","","","","",NA,"","","","","","",NA,4,"Alien7.BMP","Alien3.BMP","Alien11.BMP","Alien11.BMP","Alien10.BMP","Alien12.BMP","","",NA,"","","","",NA,NA,NA,NA,NA,NA,NA,NA,0,0,0,22,NA,NA,NA,NA,NA,NA,NA,NA,NA,NA,3,0,0.775453454466,NA,NA,NA,NA,NA,"2018_Apr_05_1232","test_session",119.995733456,"ptt_a_001",NA
"66","","","","","","",NA,"","","","","","",NA,3,"Alien4.BMP","Alien6.BMP","Alien5.BMP","Alien5.BMP","Alien1.BMP","Alien9.BMP","","",NA,"","","","",NA,NA,NA,NA,NA,NA,NA,NA,0,1,1,23,NA,NA,NA,NA,NA,NA,NA,NA,NA,NA,4,0,1.50893170288,NA,NA,NA,NA,NA,"2018_Apr_05_1232","test_session",119.995733456,"ptt_a_001",NA
"67","","","","","","",NA,"","","","","","",NA,4,"Alien4.BMP","Alien12.BMP","Alien8.BMP","Alien5.BMP","Alien4.BMP","Alien6.BMP","","",NA,"","","","",NA,NA,NA,NA,NA,NA,NA,NA,0,2,2,15,NA,NA,NA,NA,NA,NA,NA,NA,NA,NA,3,0,0.350358386,NA,NA,NA,NA,NA,"2018_Apr_05_1232","test_session",119.995733456,"ptt_a_001",NA
"68","","","","","","",NA,"","","","","","",NA,3,"Alien7.BMP","Alien9.BMP","Alien8.BMP","Alien5.BMP","Alien1.BMP","Alien9.BMP","","",NA,"","","","",NA,NA,NA,NA,NA,NA,NA,NA,0,3,3,26,NA,NA,NA,NA,NA,NA,NA,NA,NA,NA,3,1,5.61806257383,NA,NA,NA,NA,NA,"2018_Apr_05_1232","test_session",119.995733456,"ptt_a_001",NA
"69","","","","","","",NA,"","","","","","",NA,4,"Alien1.BMP","Alien9.BMP","Alien5.BMP","Alien11.BMP","Alien10.BMP","Alien12.BMP","","",NA,"","","","",NA,NA,NA,NA,NA,NA,NA,NA,0,4,4,19,NA,NA,NA,NA,NA,NA,NA,NA,NA,NA,3,0,2.09812457138,NA,NA,NA,NA,NA,"2018_Apr_05_1232","test_session",119.995733456,"ptt_a_001",NA
"70","","","","","","",NA,"","","","","","",NA,3,"Alien7.BMP","Alien9.BMP","Alien8.BMP","Alien8.BMP","Alien4.BMP","Alien12.BMP","","",NA,"","","","",NA,NA,NA,NA,NA,NA,NA,NA,0,5,5,2,NA,NA,NA,NA,NA,NA,NA,NA,NA,NA,3,1,0.592095910164,NA,NA,NA,NA,NA,"2018_Apr_05_1232","test_session",119.995733456,"ptt_a_001",NA
"71","","","","","","",NA,"","","","","","",NA,4,"Alien7.BMP","Alien3.BMP","Alien11.BMP","Alien5.BMP","Alien4.BMP","Alien6.BMP","","",NA,"","","","",NA,NA,NA,NA,NA,NA,NA,NA,0,6,6,4,NA,NA,NA,NA,NA,NA,NA,NA,NA,NA,3,0,0.376022116106,NA,NA,NA,NA,NA,"2018_Apr_05_1232","test_session",119.995733456,"ptt_a_001",NA
"72","","","","","","",NA,"","","","","","",NA,4,"Alien10.BMP","Alien6.BMP","Alien2.BMP","Alien11.BMP","Alien10.BMP","Alien12.BMP","","",NA,"","","","",NA,NA,NA,NA,NA,NA,NA,NA,0,7,7,24,NA,NA,NA,NA,NA,NA,NA,NA,NA,NA,4,1,0.650575730135,NA,NA,NA,NA,NA,"2018_Apr_05_1232","test_session",119.995733456,"ptt_a_001",NA
"73","","","","","","",NA,"","","","","","",NA,4,"Alien4.BMP","Alien12.BMP","Alien8.BMP","Alien2.BMP","Alien1.BMP","Alien3.BMP","","",NA,"","","","",NA,NA,NA,NA,NA,NA,NA,NA,0,8,8,11,NA,NA,NA,NA,NA,NA,NA,NA,NA,NA,3,0,0.533999237115,NA,NA,NA,NA,NA,"2018_Apr_05_1232","test_session",119.995733456,"ptt_a_001",NA
"74","","","","","","",NA,"","","","","","",NA,4,"Alien4.BMP","Alien12.BMP","Alien8.BMP","Alien11.BMP","Alien10.BMP","Alien12.BMP","","",NA,"","","","",NA,NA,NA,NA,NA,NA,NA,NA,0,9,9,5,NA,NA,NA,NA,NA,NA,NA,NA,NA,NA,3,0,0.808831037895,NA,NA,NA,NA,NA,"2018_Apr_05_1232","test_session",119.995733456,"ptt_a_001",NA
"75","","","","","","",NA,"","","","","","",NA,4,"Alien1.BMP","Alien9.BMP","Alien5.BMP","Alien2.BMP","Alien1.BMP","Alien3.BMP","","",NA,"","","","",NA,NA,NA,NA,NA,NA,NA,NA,0,10,10,1,NA,NA,NA,NA,NA,NA,NA,NA,NA,NA,4,1,0.450483740715,NA,NA,NA,NA,NA,"2018_Apr_05_1232","test_session",119.995733456,"ptt_a_001",NA
"76","","","","","","",NA,"","","","","","",NA,3,"Alien7.BMP","Alien9.BMP","Alien8.BMP","Alien2.BMP","Alien10.BMP","Alien6.BMP","","",NA,"","","","",NA,NA,NA,NA,NA,NA,NA,NA,0,11,11,10,NA,NA,NA,NA,NA,NA,NA,NA,NA,NA,4,0,0.808752815647,NA,NA,NA,NA,NA,"2018_Apr_05_1232","test_session",119.995733456,"ptt_a_001",NA
"77","","","","","","",NA,"","","","","","",NA,4,"Alien7.BMP","Alien3.BMP","Alien11.BMP","Alien2.BMP","Alien1.BMP","Alien3.BMP","","",NA,"","","","",NA,NA,NA,NA,NA,NA,NA,NA,0,12,12,29,NA,NA,NA,NA,NA,NA,NA,NA,NA,NA,3,0,0.300953202299,NA,NA,NA,NA,NA,"2018_Apr_05_1232","test_session",119.995733456,"ptt_a_001",NA
"78","","","","","","",NA,"","","","","","",NA,3,"Alien1.BMP","Alien3.BMP","Alien2.BMP","Alien8.BMP","Alien4.BMP","Alien12.BMP","","",NA,"","","","",NA,NA,NA,NA,NA,NA,NA,NA,0,13,13,27,NA,NA,NA,NA,NA,NA,NA,NA,NA,NA,4,0,0.183723624505,NA,NA,NA,NA,NA,"2018_Apr_05_1232","test_session",119.995733456,"ptt_a_001",NA
"79","","","","","","",NA,"","","","","","",NA,4,"Alien10.BMP","Alien6.BMP","Alien2.BMP","Alien5.BMP","Alien4.BMP","Alien6.BMP","","",NA,"","","","",NA,NA,NA,NA,NA,NA,NA,NA,0,14,14,6,NA,NA,NA,NA,NA,NA,NA,NA,NA,NA,3,0,0.392064507469,NA,NA,NA,NA,NA,"2018_Apr_05_1232","test_session",119.995733456,"ptt_a_001",NA
"80","","","","","","",NA,"","","","","","",NA,3,"Alien10.BMP","Alien12.BMP","Alien11.BMP","Alien2.BMP","Alien10.BMP","Alien6.BMP","","",NA,"","","","",NA,NA,NA,NA,NA,NA,NA,NA,0,15,15,3,NA,NA,NA,NA,NA,NA,NA,NA,NA,NA,4,0,1.30881582014,NA,NA,NA,NA,NA,"2018_Apr_05_1232","test_session",119.995733456,"ptt_a_001",NA
"81","","","","","","",NA,"","","","","","",NA,3,"Alien1.BMP","Alien3.BMP","Alien2.BMP","Alien2.BMP","Alien10.BMP","Alien6.BMP","","",NA,"","","","",NA,NA,NA,NA,NA,NA,NA,NA,0,16,16,28,NA,NA,NA,NA,NA,NA,NA,NA,NA,NA,4,0,1.02544015669,NA,NA,NA,NA,NA,"2018_Apr_05_1232","test_session",119.995733456,"ptt_a_001",NA
"82","","","","","","",NA,"","","","","","",NA,4,"Alien7.BMP","Alien3.BMP","Alien11.BMP","Alien8.BMP","Alien7.BMP","Alien9.BMP","","",NA,"","","","",NA,NA,NA,NA,NA,NA,NA,NA,0,17,17,31,NA,NA,NA,NA,NA,NA,NA,NA,NA,NA,4,1,0.317064998148,NA,NA,NA,NA,NA,"2018_Apr_05_1232","test_session",119.995733456,"ptt_a_001",NA
"83","","","","","","",NA,"","","","","","",NA,3,"Alien1.BMP","Alien3.BMP","Alien2.BMP","Alien11.BMP","Alien7.BMP","Alien3.BMP","","",NA,"","","","",NA,NA,NA,NA,NA,NA,NA,NA,0,18,18,7,NA,NA,NA,NA,NA,NA,NA,NA,NA,NA,4,0,0.367320671154,NA,NA,NA,NA,NA,"2018_Apr_05_1232","test_session",119.995733456,"ptt_a_001",NA
"84","","","","","","",NA,"","","","","","",NA,4,"Alien10.BMP","Alien6.BMP","Alien2.BMP","Alien8.BMP","Alien7.BMP","Alien9.BMP","","",NA,"","","","",NA,NA,NA,NA,NA,NA,NA,NA,0,19,19,16,NA,NA,NA,NA,NA,NA,NA,NA,NA,NA,3,0,1.70067296748,NA,NA,NA,NA,NA,"2018_Apr_05_1232","test_session",119.995733456,"ptt_a_001",NA
"85","","","","","","",NA,"","","","","","",NA,4,"Alien1.BMP","Alien9.BMP","Alien5.BMP","Alien5.BMP","Alien4.BMP","Alien6.BMP","","",NA,"","","","",NA,NA,NA,NA,NA,NA,NA,NA,0,20,20,20,NA,NA,NA,NA,NA,NA,NA,NA,NA,NA,3,0,1.60060763056,NA,NA,NA,NA,NA,"2018_Apr_05_1232","test_session",119.995733456,"ptt_a_001",NA
"86","","","","","","",NA,"","","","","","",NA,3,"Alien7.BMP","Alien9.BMP","Alien8.BMP","Alien11.BMP","Alien7.BMP","Alien3.BMP","","",NA,"","","","",NA,NA,NA,NA,NA,NA,NA,NA,0,21,21,12,NA,NA,NA,NA,NA,NA,NA,NA,NA,NA,3,1,1.45887940773,NA,NA,NA,NA,NA,"2018_Apr_05_1232","test_session",119.995733456,"ptt_a_001",NA
"87","","","","","","",NA,"","","","","","",NA,3,"Alien10.BMP","Alien12.BMP","Alien11.BMP","Alien8.BMP","Alien4.BMP","Alien12.BMP","","",NA,"","","","",NA,NA,NA,NA,NA,NA,NA,NA,0,22,22,18,NA,NA,NA,NA,NA,NA,NA,NA,NA,NA,4,0,0.208672829845,NA,NA,NA,NA,NA,"2018_Apr_05_1232","test_session",119.995733456,"ptt_a_001",NA
"88","","","","","","",NA,"","","","","","",NA,4,"Alien4.BMP","Alien12.BMP","Alien8.BMP","Alien8.BMP","Alien7.BMP","Alien9.BMP","","",NA,"","","","",NA,NA,NA,NA,NA,NA,NA,NA,0,23,23,30,NA,NA,NA,NA,NA,NA,NA,NA,NA,NA,3,0,4.16773271764,NA,NA,NA,NA,NA,"2018_Apr_05_1232","test_session",119.995733456,"ptt_a_001",NA
"89","","","","","","",NA,"","","","","","",NA,3,"Alien4.BMP","Alien6.BMP","Alien5.BMP","Alien11.BMP","Alien7.BMP","Alien3.BMP","","",NA,"","","","",NA,NA,NA,NA,NA,NA,NA,NA,0,24,24,8,NA,NA,NA,NA,NA,NA,NA,NA,NA,NA,4,0,0.283937725995,NA,NA,NA,NA,NA,"2018_Apr_05_1232","test_session",119.995733456,"ptt_a_001",NA
"90","","","","","","",NA,"","","","","","",NA,3,"Alien4.BMP","Alien6.BMP","Alien5.BMP","Alien8.BMP","Alien4.BMP","Alien12.BMP","","",NA,"","","","",NA,NA,NA,NA,NA,NA,NA,NA,0,25,25,17,NA,NA,NA,NA,NA,NA,NA,NA,NA,NA,4,0,0.25873252051,NA,NA,NA,NA,NA,"2018_Apr_05_1232","test_session",119.995733456,"ptt_a_001",NA
"91","","","","","","",NA,"","","","","","",NA,3,"Alien1.BMP","Alien3.BMP","Alien2.BMP","Alien5.BMP","Alien1.BMP","Alien9.BMP","","",NA,"","","","",NA,NA,NA,NA,NA,NA,NA,NA,0,26,26,25,NA,NA,NA,NA,NA,NA,NA,NA,NA,NA,3,1,0.325422265159,NA,NA,NA,NA,NA,"2018_Apr_05_1232","test_session",119.995733456,"ptt_a_001",NA
"92","","","","","","",NA,"","","","","","",NA,3,"Alien10.BMP","Alien12.BMP","Alien11.BMP","Alien5.BMP","Alien1.BMP","Alien9.BMP","","",NA,"","","","",NA,NA,NA,NA,NA,NA,NA,NA,0,27,27,0,NA,NA,NA,NA,NA,NA,NA,NA,NA,NA,4,0,1.35896880866,NA,NA,NA,NA,NA,"2018_Apr_05_1232","test_session",119.995733456,"ptt_a_001",NA
"93","","","","","","",NA,"","","","","","",NA,4,"Alien1.BMP","Alien9.BMP","Alien5.BMP","Alien8.BMP","Alien7.BMP","Alien9.BMP","","",NA,"","","","",NA,NA,NA,NA,NA,NA,NA,NA,0,28,28,14,NA,NA,NA,NA,NA,NA,NA,NA,NA,NA,4,1,4.45958767482,NA,NA,NA,NA,NA,"2018_Apr_05_1232","test_session",119.995733456,"ptt_a_001",NA
"94","","","","","","",NA,"","","","","","",NA,3,"Alien4.BMP","Alien6.BMP","Alien5.BMP","Alien2.BMP","Alien10.BMP","Alien6.BMP","","",NA,"","","","",NA,NA,NA,NA,NA,NA,NA,NA,0,29,29,9,NA,NA,NA,NA,NA,NA,NA,NA,NA,NA,4,0,0.85888731532,NA,NA,NA,NA,NA,"2018_Apr_05_1232","test_session",119.995733456,"ptt_a_001",NA
"95","","","","","","",NA,"","","","","","",NA,3,"Alien10.BMP","Alien12.BMP","Alien11.BMP","Alien11.BMP","Alien7.BMP","Alien3.BMP","","",NA,"","","","",NA,NA,NA,NA,NA,NA,NA,NA,0,30,30,21,NA,NA,NA,NA,NA,NA,NA,NA,NA,NA,3,1,1.34229495033,NA,NA,NA,NA,NA,"2018_Apr_05_1232","test_session",119.995733456,"ptt_a_001",NA
"96","","","","","","",NA,"","","","","","",NA,4,"Alien10.BMP","Alien6.BMP","Alien2.BMP","Alien2.BMP","Alien1.BMP","Alien3.BMP","","",NA,"","","","",NA,NA,NA,NA,NA,NA,NA,NA,0,31,31,13,NA,NA,NA,NA,NA,NA,NA,NA,NA,NA,3,0,0.359047599835,NA,NA,NA,NA,NA,"2018_Apr_05_1232","test_session",119.995733456,"ptt_a_001",NA
"97","","","","","","",NA,"","","","","","",NA,NA,"","","","","","","","",NA,"","","","",NA,NA,NA,NA,NA,NA,NA,NA,NA,NA,NA,NA,NA,NA,NA,NA,NA,NA,NA,NA,NA,NA,NA,NA,NA,5,34.8402089758,NA,NA,NA,"2018_Apr_05_1232","test_session",119.995733456,"ptt_a_001",NA
"98","","","","","","",NA,"","","","","","",NA,NA,"","","","","","","ba.wav","pu.wav",3,"di.wav","da.wav","ta.wav","ba.wav",NA,NA,NA,NA,NA,NA,NA,NA,NA,NA,NA,NA,0,0,0,4,NA,NA,NA,NA,NA,NA,NA,NA,NA,NA,NA,3,1,2.20068249636,"2018_Apr_05_1232","test_session",119.995733456,"ptt_a_001",NA
"99","","","","","","",NA,"","","","","","",NA,NA,"","","","","","","pa.wav","da.wav",3,"bu.wav","bi.wav","di.wav","pa.wav",NA,NA,NA,NA,NA,NA,NA,NA,NA,NA,NA,NA,0,1,1,27,NA,NA,NA,NA,NA,NA,NA,NA,NA,NA,NA,4,0,2.61748628906,"2018_Apr_05_1232","test_session",119.995733456,"ptt_a_001",NA
"100","","","","","","",NA,"","","","","","",NA,NA,"","","","","","","ba.wav","da.wav",4,"ta.wav","bi.wav","pi.wav","tu.wav",NA,NA,NA,NA,NA,NA,NA,NA,NA,NA,NA,NA,0,2,2,19,NA,NA,NA,NA,NA,NA,NA,NA,NA,NA,NA,3,0,4.0676514518,"2018_Apr_05_1232","test_session",119.995733456,"ptt_a_001",NA
"101","","","","","","",NA,"","","","","","",NA,NA,"","","","","","","ti.wav","pu.wav",4,"pi.wav","pu.wav","di.wav","ba.wav",NA,NA,NA,NA,NA,NA,NA,NA,NA,NA,NA,NA,0,3,3,17,NA,NA,NA,NA,NA,NA,NA,NA,NA,NA,NA,3,0,0.617090057698,"2018_Apr_05_1232","test_session",119.995733456,"ptt_a_001",NA
"102","","","","","","",NA,"","","","","","",NA,NA,"","","","","","","ti.wav","du.wav",3,"ta.wav","bi.wav","di.wav","pa.wav",NA,NA,NA,NA,NA,NA,NA,NA,NA,NA,NA,NA,0,4,4,20,NA,NA,NA,NA,NA,NA,NA,NA,NA,NA,NA,3,1,1.64234048984,"2018_Apr_05_1232","test_session",119.995733456,"ptt_a_001",NA
"103","","","","","","",NA,"","","","","","",NA,NA,"","","","","","","ba.wav","da.wav",4,"ta.wav","da.wav","bu.wav","pa.wav",NA,NA,NA,NA,NA,NA,NA,NA,NA,NA,NA,NA,0,5,5,30,NA,NA,NA,NA,NA,NA,NA,NA,NA,NA,NA,3,0,0.358841093024,"2018_Apr_05_1232","test_session",119.995733456,"ptt_a_001",NA
"104","","","","","","",NA,"","","","","","",NA,NA,"","","","","","","pa.wav","bi.wav",4,"di.wav","du.wav","ta.wav","ti.wav",NA,NA,NA,NA,NA,NA,NA,NA,NA,NA,NA,NA,0,6,6,28,NA,NA,NA,NA,NA,NA,NA,NA,NA,NA,NA,4,1,0.650496085582,"2018_Apr_05_1232","test_session",119.995733456,"ptt_a_001",NA
"105","","","","","","",NA,"","","","","","",NA,NA,"","","","","","","tu.wav","du.wav",4,"bu.wav","bi.wav","pi.wav","tu.wav",NA,NA,NA,NA,NA,NA,NA,NA,NA,NA,NA,NA,0,7,7,25,NA,NA,NA,NA,NA,NA,NA,NA,NA,NA,NA,4,1,0.925461006467,"2018_Apr_05_1232","test_session",119.995733456,"ptt_a_001",NA
"106","","","","","","",NA,"","","","","","",NA,NA,"","","","","","","pa.wav","da.wav",3,"bu.wav","pu.wav","pi.wav","ti.wav",NA,NA,NA,NA,NA,NA,NA,NA,NA,NA,NA,NA,0,8,8,8,NA,NA,NA,NA,NA,NA,NA,NA,NA,NA,NA,3,1,2.84247429261,"2018_Apr_05_1232","test_session",119.995733456,"ptt_a_001",NA
"107","","","","","","",NA,"","","","","","",NA,NA,"","","","","","","ba.wav","pu.wav",3,"di.wav","du.wav","bu.wav","tu.wav",NA,NA,NA,NA,NA,NA,NA,NA,NA,NA,NA,NA,0,9,9,1,NA,NA,NA,NA,NA,NA,NA,NA,NA,NA,NA,4,0,2.17570655327,"2018_Apr_05_1232","test_session",119.995733456,"ptt_a_001",NA
"108","","","","","","",NA,"","","","","","",NA,NA,"","","","","","","tu.wav","bi.wav",3,"pi.wav","du.wav","bu.wav","tu.wav",NA,NA,NA,NA,NA,NA,NA,NA,NA,NA,NA,NA,0,10,10,9,NA,NA,NA,NA,NA,NA,NA,NA,NA,NA,NA,3,1,3.01762276556,"2018_Apr_05_1232","test_session",119.995733456,"ptt_a_001",NA
"109","","","","","","",NA,"","","","","","",NA,NA,"","","","","","","ti.wav","du.wav",3,"ta.wav","pu.wav","pi.wav","ti.wav",NA,NA,NA,NA,NA,NA,NA,NA,NA,NA,NA,NA,0,11,11,10,NA,NA,NA,NA,NA,NA,NA,NA,NA,NA,NA,3,1,2.62588366272,"2018_Apr_05_1232","test_session",119.995733456,"ptt_a_001",NA
"110","","","","","","",NA,"","","","","","",NA,NA,"","","","","","","ba.wav","pu.wav",3,"di.wav","pu.wav","pi.wav","ti.wav",NA,NA,NA,NA,NA,NA,NA,NA,NA,NA,NA,NA,0,12,12,5,NA,NA,NA,NA,NA,NA,NA,NA,NA,NA,NA,3,1,1.90902209934,"2018_Apr_05_1232","test_session",119.995733456,"ptt_a_001",NA
"111","","","","","","",NA,"","","","","","",NA,NA,"","","","","","","pa.wav","da.wav",3,"bu.wav","du.wav","bu.wav","tu.wav",NA,NA,NA,NA,NA,NA,NA,NA,NA,NA,NA,NA,0,13,13,29,NA,NA,NA,NA,NA,NA,NA,NA,NA,NA,NA,3,1,5.34301175067,"2018_Apr_05_1232","test_session",119.995733456,"ptt_a_001",NA
"112","","","","","","",NA,"","","","","","",NA,NA,"","","","","","","tu.wav","du.wav",4,"bu.wav","da.wav","bu.wav","pa.wav",NA,NA,NA,NA,NA,NA,NA,NA,NA,NA,NA,NA,0,14,14,31,NA,NA,NA,NA,NA,NA,NA,NA,NA,NA,NA,4,1,1.25885397836,"2018_Apr_05_1232","test_session",119.995733456,"ptt_a_001",NA
"113","","","","","","",NA,"","","","","","",NA,NA,"","","","","","","pa.wav","da.wav",3,"bu.wav","da.wav","ta.wav","ba.wav",NA,NA,NA,NA,NA,NA,NA,NA,NA,NA,NA,NA,0,15,15,3,NA,NA,NA,NA,NA,NA,NA,NA,NA,NA,NA,3,1,0.717225936882,"2018_Apr_05_1232","test_session",119.995733456,"ptt_a_001",NA
"114","","","","","","",NA,"","","","","","",NA,NA,"","","","","","","tu.wav","du.wav",4,"bu.wav","pu.wav","di.wav","ba.wav",NA,NA,NA,NA,NA,NA,NA,NA,NA,NA,NA,NA,0,16,16,2,NA,NA,NA,NA,NA,NA,NA,NA,NA,NA,NA,3,0,1.20099965215,"2018_Apr_05_1232","test_session",119.995733456,"ptt_a_001",NA
"115","","","","","","",NA,"","","","","","",NA,NA,"","","","","","","ti.wav","pu.wav",4,"pi.wav","da.wav","bu.wav","pa.wav",NA,NA,NA,NA,NA,NA,NA,NA,NA,NA,NA,NA,0,17,17,16,NA,NA,NA,NA,NA,NA,NA,NA,NA,NA,NA,4,1,0.877298276871,"2018_Apr_05_1232","test_session",119.995733456,"ptt_a_001",NA
"116","","","","","","",NA,"","","","","","",NA,NA,"","","","","","","tu.wav","du.wav",4,"bu.wav","du.wav","ta.wav","ti.wav",NA,NA,NA,NA,NA,NA,NA,NA,NA,NA,NA,NA,0,18,18,12,NA,NA,NA,NA,NA,NA,NA,NA,NA,NA,NA,3,0,1.01721231203,"2018_Apr_05_1232","test_session",119.995733456,"ptt_a_001",NA
"117","","","","","","",NA,"","","","","","",NA,NA,"","","","","","","tu.wav","bi.wav",3,"pi.wav","da.wav","ta.wav","ba.wav",NA,NA,NA,NA,NA,NA,NA,NA,NA,NA,NA,NA,0,19,19,13,NA,NA,NA,NA,NA,NA,NA,NA,NA,NA,NA,3,1,11.277580389,"2018_Apr_05_1232","test_session",119.995733456,"ptt_a_001",NA
"118","","","","","","",NA,"","","","","","",NA,NA,"","","","","","","tu.wav","bi.wav",3,"pi.wav","pu.wav","pi.wav","ti.wav",NA,NA,NA,NA,NA,NA,NA,NA,NA,NA,NA,NA,0,20,20,15,NA,NA,NA,NA,NA,NA,NA,NA,NA,NA,NA,3,1,0.417036468338,"2018_Apr_05_1232","test_session",119.995733456,"ptt_a_001",NA
"119","","","","","","",NA,"","","","","","",NA,NA,"","","","","","","ba.wav","pu.wav",3,"di.wav","bi.wav","di.wav","pa.wav",NA,NA,NA,NA,NA,NA,NA,NA,NA,NA,NA,NA,0,21,21,0,NA,NA,NA,NA,NA,NA,NA,NA,NA,NA,NA,3,1,5.34300577734,"2018_Apr_05_1232","test_session",119.995733456,"ptt_a_001",NA
"120","","","","","","",NA,"","","","","","",NA,NA,"","","","","","","pa.wav","bi.wav",4,"di.wav","pu.wav","di.wav","ba.wav",NA,NA,NA,NA,NA,NA,NA,NA,NA,NA,NA,NA,0,22,22,14,NA,NA,NA,NA,NA,NA,NA,NA,NA,NA,NA,4,1,1.98404208868,"2018_Apr_05_1232","test_session",119.995733456,"ptt_a_001",NA
"121","","","","","","",NA,"","","","","","",NA,NA,"","","","","","","ba.wav","da.wav",4,"ta.wav","du.wav","ta.wav","ti.wav",NA,NA,NA,NA,NA,NA,NA,NA,NA,NA,NA,NA,0,23,23,11,NA,NA,NA,NA,NA,NA,NA,NA,NA,NA,NA,3,0,0.767083956394,"2018_Apr_05_1232","test_session",119.995733456,"ptt_a_001",NA
"122","","","","","","",NA,"","","","","","",NA,NA,"","","","","","","ti.wav","du.wav",3,"ta.wav","da.wav","ta.wav","ba.wav",NA,NA,NA,NA,NA,NA,NA,NA,NA,NA,NA,NA,0,24,24,26,NA,NA,NA,NA,NA,NA,NA,NA,NA,NA,NA,4,0,0.866859728703,"2018_Apr_05_1232","test_session",119.995733456,"ptt_a_001",NA
"123","","","","","","",NA,"","","","","","",NA,NA,"","","","","","","ti.wav","pu.wav",4,"pi.wav","du.wav","ta.wav","ti.wav",NA,NA,NA,NA,NA,NA,NA,NA,NA,NA,NA,NA,0,25,25,22,NA,NA,NA,NA,NA,NA,NA,NA,NA,NA,NA,3,0,1.16746704635,"2018_Apr_05_1232","test_session",119.995733456,"ptt_a_001",NA
"124","","","","","","",NA,"","","","","","",NA,NA,"","","","","","","ti.wav","du.wav",3,"ta.wav","du.wav","bu.wav","tu.wav",NA,NA,NA,NA,NA,NA,NA,NA,NA,NA,NA,NA,0,26,26,18,NA,NA,NA,NA,NA,NA,NA,NA,NA,NA,NA,4,0,1.87563512928,"2018_Apr_05_1232","test_session",119.995733456,"ptt_a_001",NA
"125","","","","","","",NA,"","","","","","",NA,NA,"","","","","","","ti.wav","pu.wav",4,"pi.wav","bi.wav","pi.wav","tu.wav",NA,NA,NA,NA,NA,NA,NA,NA,NA,NA,NA,NA,0,27,27,6,NA,NA,NA,NA,NA,NA,NA,NA,NA,NA,NA,4,1,1.45890472329,"2018_Apr_05_1232","test_session",119.995733456,"ptt_a_001",NA
"126","","","","","","",NA,"","","","","","",NA,NA,"","","","","","","pa.wav","bi.wav",4,"di.wav","da.wav","bu.wav","pa.wav",NA,NA,NA,NA,NA,NA,NA,NA,NA,NA,NA,NA,0,28,28,23,NA,NA,NA,NA,NA,NA,NA,NA,NA,NA,NA,3,0,3.2424804935,"2018_Apr_05_1232","test_session",119.995733456,"ptt_a_001",NA
"127","","","","","","",NA,"","","","","","",NA,NA,"","","","","","","ba.wav","da.wav",4,"ta.wav","pu.wav","di.wav","ba.wav",NA,NA,NA,NA,NA,NA,NA,NA,NA,NA,NA,NA,0,29,29,24,NA,NA,NA,NA,NA,NA,NA,NA,NA,NA,NA,3,0,2.55915068253,"2018_Apr_05_1232","test_session",119.995733456,"ptt_a_001",NA
"128","","","","","","",NA,"","","","","","",NA,NA,"","","","","","","pa.wav","bi.wav",4,"di.wav","bi.wav","pi.wav","tu.wav",NA,NA,NA,NA,NA,NA,NA,NA,NA,NA,NA,NA,0,30,30,7,NA,NA,NA,NA,NA,NA,NA,NA,NA,NA,NA,4,1,0.533739539213,"2018_Apr_05_1232","test_session",119.995733456,"ptt_a_001",NA
"129","","","","","","",NA,"","","","","","",NA,NA,"","","","","","","tu.wav","bi.wav",3,"pi.wav","bi.wav","di.wav","pa.wav",NA,NA,NA,NA,NA,NA,NA,NA,NA,NA,NA,NA,0,31,31,21,NA,NA,NA,NA,NA,NA,NA,NA,NA,NA,NA,3,1,1.39242888102,"2018_Apr_05_1232","test_session",119.995733456,"ptt_a_001",NA
"130","","","","","","",NA,"","","","","","",NA,3,"Alien7.BMP","Alien9.BMP","Alien8.BMP","Alien11.BMP","Alien7.BMP","Alien3.BMP","","",NA,"","","","",NA,NA,NA,NA,NA,NA,NA,NA,0,0,0,12,NA,NA,NA,NA,NA,NA,NA,NA,NA,NA,3,1,2.15890469489,NA,NA,NA,NA,NA,"2018_Apr_06_1640","test_session",119.932283567,"ptt_a_002",NA
"131","","","","","","",NA,"","","","","","",NA,4,"Alien1.BMP","Alien9.BMP","Alien5.BMP","Alien11.BMP","Alien10.BMP","Alien12.BMP","","",NA,"","","","",NA,NA,NA,NA,NA,NA,NA,NA,0,1,1,19,NA,NA,NA,NA,NA,NA,NA,NA,NA,NA,4,1,0.692101798137,NA,NA,NA,NA,NA,"2018_Apr_06_1640","test_session",119.932283567,"ptt_a_002",NA
"132","","","","","","",NA,"","","","","","",NA,3,"Alien4.BMP","Alien6.BMP","Alien5.BMP","Alien2.BMP","Alien10.BMP","Alien6.BMP","","",NA,"","","","",NA,NA,NA,NA,NA,NA,NA,NA,0,2,2,9,NA,NA,NA,NA,NA,NA,NA,NA,NA,NA,3,1,1.22541296377,NA,NA,NA,NA,NA,"2018_Apr_06_1640","test_session",119.932283567,"ptt_a_002",NA
"133","","","","","","",NA,"","","","","","",NA,4,"Alien10.BMP","Alien6.BMP","Alien2.BMP","Alien11.BMP","Alien10.BMP","Alien12.BMP","","",NA,"","","","",NA,NA,NA,NA,NA,NA,NA,NA,0,3,3,24,NA,NA,NA,NA,NA,NA,NA,NA,NA,NA,3,0,0.325646123034,NA,NA,NA,NA,NA,"2018_Apr_06_1640","test_session",119.932283567,"ptt_a_002",NA
"134","","","","","","",NA,"","","","","","",NA,4,"Alien7.BMP","Alien3.BMP","Alien11.BMP","Alien5.BMP","Alien4.BMP","Alien6.BMP","","",NA,"","","","",NA,NA,NA,NA,NA,NA,NA,NA,0,4,4,4,NA,NA,NA,NA,NA,NA,NA,NA,NA,NA,3,0,1.1254619736,NA,NA,NA,NA,NA,"2018_Apr_06_1640","test_session",119.932283567,"ptt_a_002",NA
"135","","","","","","",NA,"","","","","","",NA,3,"Alien4.BMP","Alien6.BMP","Alien5.BMP","Alien5.BMP","Alien1.BMP","Alien9.BMP","","",NA,"","","","",NA,NA,NA,NA,NA,NA,NA,NA,0,5,5,23,NA,NA,NA,NA,NA,NA,NA,NA,NA,NA,3,1,0.258748733904,NA,NA,NA,NA,NA,"2018_Apr_06_1640","test_session",119.932283567,"ptt_a_002",NA
"136","","","","","","",NA,"","","","","","",NA,3,"Alien4.BMP","Alien6.BMP","Alien5.BMP","Alien8.BMP","Alien4.BMP","Alien12.BMP","","",NA,"","","","",NA,NA,NA,NA,NA,NA,NA,NA,0,6,6,17,NA,NA,NA,NA,NA,NA,NA,NA,NA,NA,3,1,0.342101812421,NA,NA,NA,NA,NA,"2018_Apr_06_1640","test_session",119.932283567,"ptt_a_002",NA
"137","","","","","","",NA,"","","","","","",NA,3,"Alien10.BMP","Alien12.BMP","Alien11.BMP","Alien2.BMP","Alien10.BMP","Alien6.BMP","","",NA,"","","","",NA,NA,NA,NA,NA,NA,NA,NA,0,7,7,3,NA,NA,NA,NA,NA,NA,NA,NA,NA,NA,4,0,0.0336133880191,NA,NA,NA,NA,NA,"2018_Apr_06_1640","test_session",119.932283567,"ptt_a_002",NA
"138","","","","","","",NA,"","","","","","",NA,3,"Alien10.BMP","Alien12.BMP","Alien11.BMP","Alien11.BMP","Alien7.BMP","Alien3.BMP","","",NA,"","","","",NA,NA,NA,NA,NA,NA,NA,NA,0,8,8,21,NA,NA,NA,NA,NA,NA,NA,NA,NA,NA,4,0,0.108877999708,NA,NA,NA,NA,NA,"2018_Apr_06_1640","test_session",119.932283567,"ptt_a_002",NA
"139","","","","","","",NA,"","","","","","",NA,3,"Alien10.BMP","Alien12.BMP","Alien11.BMP","Alien8.BMP","Alien4.BMP","Alien12.BMP","","",NA,"","","","",NA,NA,NA,NA,NA,NA,NA,NA,0,9,9,18,NA,NA,NA,NA,NA,NA,NA,NA,NA,NA,3,1,1.2338154575,NA,NA,NA,NA,NA,"2018_Apr_06_1640","test_session",119.932283567,"ptt_a_002",NA
"140","","","","","","",NA,"","","","","","",NA,4,"Alien10.BMP","Alien6.BMP","Alien2.BMP","Alien8.BMP","Alien7.BMP","Alien9.BMP","","",NA,"","","","",NA,NA,NA,NA,NA,NA,NA,NA,0,10,10,16,NA,NA,NA,NA,NA,NA,NA,NA,NA,NA,4,1,0.600440377137,NA,NA,NA,NA,NA,"2018_Apr_06_1640","test_session",119.932283567,"ptt_a_002",NA
"141","","","","","","",NA,"","","","","","",NA,4,"Alien1.BMP","Alien9.BMP","Alien5.BMP","Alien2.BMP","Alien1.BMP","Alien3.BMP","","",NA,"","","","",NA,NA,NA,NA,NA,NA,NA,NA,0,11,11,1,NA,NA,NA,NA,NA,NA,NA,NA,NA,NA,4,1,0.608881555265,NA,NA,NA,NA,NA,"2018_Apr_06_1640","test_session",119.932283567,"ptt_a_002",NA
"142","","","","","","",NA,"","","","","","",NA,4,"Alien4.BMP","Alien12.BMP","Alien8.BMP","Alien2.BMP","Alien1.BMP","Alien3.BMP","","",NA,"","","","",NA,NA,NA,NA,NA,NA,NA,NA,0,12,12,11,NA,NA,NA,NA,NA,NA,NA,NA,NA,NA,4,1,0.191994420311,NA,NA,NA,NA,NA,"2018_Apr_06_1640","test_session",119.932283567,"ptt_a_002",NA
"143","","","","","","",NA,"","","","","","",NA,3,"Alien1.BMP","Alien3.BMP","Alien2.BMP","Alien11.BMP","Alien7.BMP","Alien3.BMP","","",NA,"","","","",NA,NA,NA,NA,NA,NA,NA,NA,0,13,13,7,NA,NA,NA,NA,NA,NA,NA,NA,NA,NA,3,1,1.77599617478,NA,NA,NA,NA,NA,"2018_Apr_06_1640","test_session",119.932283567,"ptt_a_002",NA
"144","","","","","","",NA,"","","","","","",NA,4,"Alien4.BMP","Alien12.BMP","Alien8.BMP","Alien5.BMP","Alien4.BMP","Alien6.BMP","","",NA,"","","","",NA,NA,NA,NA,NA,NA,NA,NA,0,14,14,15,NA,NA,NA,NA,NA,NA,NA,NA,NA,NA,4,1,1.99230776448,NA,NA,NA,NA,NA,"2018_Apr_06_1640","test_session",119.932283567,"ptt_a_002",NA
"145","","","","","","",NA,"","","","","","",NA,3,"Alien1.BMP","Alien3.BMP","Alien2.BMP","Alien2.BMP","Alien10.BMP","Alien6.BMP","","",NA,"","","","",NA,NA,NA,NA,NA,NA,NA,NA,0,15,15,28,NA,NA,NA,NA,NA,NA,NA,NA,NA,NA,4,0,1.11707882216,NA,NA,NA,NA,NA,"2018_Apr_06_1640","test_session",119.932283567,"ptt_a_002",NA
"146","","","","","","",NA,"","","","","","",NA,3,"Alien7.BMP","Alien9.BMP","Alien8.BMP","Alien8.BMP","Alien4.BMP","Alien12.BMP","","",NA,"","","","",NA,NA,NA,NA,NA,NA,NA,NA,0,16,16,2,NA,NA,NA,NA,NA,NA,NA,NA,NA,NA,3,1,0.25881131168,NA,NA,NA,NA,NA,"2018_Apr_06_1640","test_session",119.932283567,"ptt_a_002",NA
"147","","","","","","",NA,"","","","","","",NA,4,"Alien1.BMP","Alien9.BMP","Alien5.BMP","Alien5.BMP","Alien4.BMP","Alien6.BMP","","",NA,"","","","",NA,NA,NA,NA,NA,NA,NA,NA,0,17,17,20,NA,NA,NA,NA,NA,NA,NA,NA,NA,NA,4,1,0.358787333011,NA,NA,NA,NA,NA,"2018_Apr_06_1640","test_session",119.932283567,"ptt_a_002",NA
"148","","","","","","",NA,"","","","","","",NA,3,"Alien7.BMP","Alien9.BMP","Alien8.BMP","Alien2.BMP","Alien10.BMP","Alien6.BMP","","",NA,"","","","",NA,NA,NA,NA,NA,NA,NA,NA,0,18,18,10,NA,NA,NA,NA,NA,NA,NA,NA,NA,NA,3,1,0.350270208146,NA,NA,NA,NA,NA,"2018_Apr_06_1640","test_session",119.932283567,"ptt_a_002",NA
"149","","","","","","",NA,"","","","","","",NA,3,"Alien10.BMP","Alien12.BMP","Alien11.BMP","Alien5.BMP","Alien1.BMP","Alien9.BMP","","",NA,"","","","",NA,NA,NA,NA,NA,NA,NA,NA,0,19,19,0,NA,NA,NA,NA,NA,NA,NA,NA,NA,NA,3,1,0.0836702342494,NA,NA,NA,NA,NA,"2018_Apr_06_1640","test_session",119.932283567,"ptt_a_002",NA
"150","","","","","","",NA,"","","","","","",NA,4,"Alien10.BMP","Alien6.BMP","Alien2.BMP","Alien5.BMP","Alien4.BMP","Alien6.BMP","","",NA,"","","","",NA,NA,NA,NA,NA,NA,NA,NA,0,20,20,6,NA,NA,NA,NA,NA,NA,NA,NA,NA,NA,4,1,0.0753769673756,NA,NA,NA,NA,NA,"2018_Apr_06_1640","test_session",119.932283567,"ptt_a_002",NA
"151","","","","","","",NA,"","","","","","",NA,4,"Alien7.BMP","Alien3.BMP","Alien11.BMP","Alien11.BMP","Alien10.BMP","Alien12.BMP","","",NA,"","","","",NA,NA,NA,NA,NA,NA,NA,NA,0,21,21,22,NA,NA,NA,NA,NA,NA,NA,NA,NA,NA,3,0,0.0506536110188,NA,NA,NA,NA,NA,"2018_Apr_06_1640","test_session",119.932283567,"ptt_a_002",NA
"152","","","","","","",NA,"","","","","","",NA,4,"Alien1.BMP","Alien9.BMP","Alien5.BMP","Alien8.BMP","Alien7.BMP","Alien9.BMP","","",NA,"","","","",NA,NA,NA,NA,NA,NA,NA,NA,0,22,22,14,NA,NA,NA,NA,NA,NA,NA,NA,NA,NA,4,1,0.225328199274,NA,NA,NA,NA,NA,"2018_Apr_06_1640","test_session",119.932283567,"ptt_a_002",NA
"153","","","","","","",NA,"","","","","","",NA,3,"Alien1.BMP","Alien3.BMP","Alien2.BMP","Alien5.BMP","Alien1.BMP","Alien9.BMP","","",NA,"","","","",NA,NA,NA,NA,NA,NA,NA,NA,0,23,23,25,NA,NA,NA,NA,NA,NA,NA,NA,NA,NA,3,1,0.475238954765,NA,NA,NA,NA,NA,"2018_Apr_06_1640","test_session",119.932283567,"ptt_a_002",NA
"154","","","","","","",NA,"","","","","","",NA,4,"Alien4.BMP","Alien12.BMP","Alien8.BMP","Alien8.BMP","Alien7.BMP","Alien9.BMP","","",NA,"","","","",NA,NA,NA,NA,NA,NA,NA,NA,0,24,24,30,NA,NA,NA,NA,NA,NA,NA,NA,NA,NA,4,1,0.942289033846,NA,NA,NA,NA,NA,"2018_Apr_06_1640","test_session",119.932283567,"ptt_a_002",NA
"155","","","","","","",NA,"","","","","","",NA,4,"Alien10.BMP","Alien6.BMP","Alien2.BMP","Alien2.BMP","Alien1.BMP","Alien3.BMP","","",NA,"","","","",NA,NA,NA,NA,NA,NA,NA,NA,0,25,25,13,NA,NA,NA,NA,NA,NA,NA,NA,NA,NA,4,1,0.0586758023128,NA,NA,NA,NA,NA,"2018_Apr_06_1640","test_session",119.932283567,"ptt_a_002",NA
"156","","","","","","",NA,"","","","","","",NA,4,"Alien4.BMP","Alien12.BMP","Alien8.BMP","Alien11.BMP","Alien10.BMP","Alien12.BMP","","",NA,"","","","",NA,NA,NA,NA,NA,NA,NA,NA,0,26,26,5,NA,NA,NA,NA,NA,NA,NA,NA,NA,NA,4,1,1.29227536632,NA,NA,NA,NA,NA,"2018_Apr_06_1640","test_session",119.932283567,"ptt_a_002",NA
"157","","","","","","",NA,"","","","","","",NA,3,"Alien1.BMP","Alien3.BMP","Alien2.BMP","Alien8.BMP","Alien4.BMP","Alien12.BMP","","",NA,"","","","",NA,NA,NA,NA,NA,NA,NA,NA,0,27,27,27,NA,NA,NA,NA,NA,NA,NA,NA,NA,NA,3,1,3.70087606099,NA,NA,NA,NA,NA,"2018_Apr_06_1640","test_session",119.932283567,"ptt_a_002",NA
"158","","","","","","",NA,"","","","","","",NA,4,"Alien7.BMP","Alien3.BMP","Alien11.BMP","Alien2.BMP","Alien1.BMP","Alien3.BMP","","",NA,"","","","",NA,NA,NA,NA,NA,NA,NA,NA,0,28,28,29,NA,NA,NA,NA,NA,NA,NA,NA,NA,NA,4,1,0.242048706568,NA,NA,NA,NA,NA,"2018_Apr_06_1640","test_session",119.932283567,"ptt_a_002",NA
"159","","","","","","",NA,"","","","","","",NA,4,"Alien7.BMP","Alien3.BMP","Alien11.BMP","Alien8.BMP","Alien7.BMP","Alien9.BMP","","",NA,"","","","",NA,NA,NA,NA,NA,NA,NA,NA,0,29,29,31,NA,NA,NA,NA,NA,NA,NA,NA,NA,NA,4,1,0.233728132967,NA,NA,NA,NA,NA,"2018_Apr_06_1640","test_session",119.932283567,"ptt_a_002",NA
"160","","","","","","",NA,"","","","","","",NA,3,"Alien4.BMP","Alien6.BMP","Alien5.BMP","Alien11.BMP","Alien7.BMP","Alien3.BMP","","",NA,"","","","",NA,NA,NA,NA,NA,NA,NA,NA,0,30,30,8,NA,NA,NA,NA,NA,NA,NA,NA,NA,NA,3,1,1.82561099413,NA,NA,NA,NA,NA,"2018_Apr_06_1640","test_session",119.932283567,"ptt_a_002",NA
"161","","","","","","",NA,"","","","","","",NA,3,"Alien7.BMP","Alien9.BMP","Alien8.BMP","Alien5.BMP","Alien1.BMP","Alien9.BMP","","",NA,"","","","",NA,NA,NA,NA,NA,NA,NA,NA,0,31,31,26,NA,NA,NA,NA,NA,NA,NA,NA,NA,NA,3,1,0.49250388908,NA,NA,NA,NA,NA,"2018_Apr_06_1640","test_session",119.932283567,"ptt_a_002",NA
"162","","","","","","",NA,"","","","","","",NA,NA,"","","","","","","","",NA,"","","","",NA,NA,NA,NA,NA,NA,NA,NA,NA,NA,NA,NA,NA,NA,NA,NA,NA,NA,NA,NA,NA,NA,NA,NA,NA,3,26.0467572889,NA,NA,NA,"2018_Apr_06_1640","test_session",119.932283567,"ptt_a_002",NA
"163","","","","","","",NA,"","","","","","",NA,NA,"","","","","","","tu.wav","bi.wav",3,"pi.wav","bi.wav","di.wav","pa.wav",NA,NA,NA,NA,NA,NA,NA,NA,NA,NA,NA,NA,0,0,0,21,NA,NA,NA,NA,NA,NA,NA,NA,NA,NA,NA,3,1,6.5683584389,"2018_Apr_06_1640","test_session",119.932283567,"ptt_a_002",NA
"164","","","","","","",NA,"","","","","","",NA,NA,"","","","","","","ba.wav","pu.wav",3,"di.wav","du.wav","bu.wav","tu.wav",NA,NA,NA,NA,NA,NA,NA,NA,NA,NA,NA,NA,0,1,1,1,NA,NA,NA,NA,NA,NA,NA,NA,NA,NA,NA,3,1,5.14269789448,"2018_Apr_06_1640","test_session",119.932283567,"ptt_a_002",NA
"165","","","","","","",NA,"","","","","","",NA,NA,"","","","","","","tu.wav","du.wav",4,"bu.wav","da.wav","bu.wav","pa.wav",NA,NA,NA,NA,NA,NA,NA,NA,NA,NA,NA,NA,0,2,2,31,NA,NA,NA,NA,NA,NA,NA,NA,NA,NA,NA,4,1,1.02553971228,"2018_Apr_06_1640","test_session",119.932283567,"ptt_a_002",NA
"166","","","","","","",NA,"","","","","","",NA,NA,"","","","","","","tu.wav","du.wav",4,"bu.wav","pu.wav","di.wav","ba.wav",NA,NA,NA,NA,NA,NA,NA,NA,NA,NA,NA,NA,0,3,3,2,NA,NA,NA,NA,NA,NA,NA,NA,NA,NA,NA,4,1,0.733607955102,"2018_Apr_06_1640","test_session",119.932283567,"ptt_a_002",NA
"167","","","","","","",NA,"","","","","","",NA,NA,"","","","","","","pa.wav","bi.wav",4,"di.wav","bi.wav","pi.wav","tu.wav",NA,NA,NA,NA,NA,NA,NA,NA,NA,NA,NA,NA,0,4,4,7,NA,NA,NA,NA,NA,NA,NA,NA,NA,NA,NA,3,0,1.8172281271,"2018_Apr_06_1640","test_session",119.932283567,"ptt_a_002",NA
"168","","","","","","",NA,"","","","","","",NA,NA,"","","","","","","pa.wav","bi.wav",4,"di.wav","pu.wav","di.wav","ba.wav",NA,NA,NA,NA,NA,NA,NA,NA,NA,NA,NA,NA,0,5,5,14,NA,NA,NA,NA,NA,NA,NA,NA,NA,NA,NA,4,1,0.775565810094,"2018_Apr_06_1640","test_session",119.932283567,"ptt_a_002",NA
"169","","","","","","",NA,"","","","","","",NA,NA,"","","","","","","ti.wav","pu.wav",4,"pi.wav","du.wav","ta.wav","ti.wav",NA,NA,NA,NA,NA,NA,NA,NA,NA,NA,NA,NA,0,6,6,22,NA,NA,NA,NA,NA,NA,NA,NA,NA,NA,NA,3,0,0.725622172817,"2018_Apr_06_1640","test_session",119.932283567,"ptt_a_002",NA
"170","","","","","","",NA,"","","","","","",NA,NA,"","","","","","","ba.wav","da.wav",4,"ta.wav","pu.wav","di.wav","ba.wav",NA,NA,NA,NA,NA,NA,NA,NA,NA,NA,NA,NA,0,7,7,24,NA,NA,NA,NA,NA,NA,NA,NA,NA,NA,NA,4,1,0.500845511619,"2018_Apr_06_1640","test_session",119.932283567,"ptt_a_002",NA
"171","","","","","","",NA,"","","","","","",NA,NA,"","","","","","","ti.wav","du.wav",3,"ta.wav","da.wav","ta.wav","ba.wav",NA,NA,NA,NA,NA,NA,NA,NA,NA,NA,NA,NA,0,8,8,26,NA,NA,NA,NA,NA,NA,NA,NA,NA,NA,NA,3,1,3.45923496346,"2018_Apr_06_1640","test_session",119.932283567,"ptt_a_002",NA
"172","","","","","","",NA,"","","","","","",NA,NA,"","","","","","","ti.wav","pu.wav",4,"pi.wav","bi.wav","pi.wav","tu.wav",NA,NA,NA,NA,NA,NA,NA,NA,NA,NA,NA,NA,0,9,9,6,NA,NA,NA,NA,NA,NA,NA,NA,NA,NA,NA,3,0,0.950462549634,"2018_Apr_06_1640","test_session",119.932283567,"ptt_a_002",NA
"173","","","","","","",NA,"","","","","","",NA,NA,"","","","","","","pa.wav","bi.wav",4,"di.wav","da.wav","bu.wav","pa.wav",NA,NA,NA,NA,NA,NA,NA,NA,NA,NA,NA,NA,0,10,10,23,NA,NA,NA,NA,NA,NA,NA,NA,NA,NA,NA,4,1,0.442102011526,"2018_Apr_06_1640","test_session",119.932283567,"ptt_a_002",NA
"174","","","","","","",NA,"","","","","","",NA,NA,"","","","","","","ba.wav","da.wav",4,"ta.wav","da.wav","bu.wav","pa.wav",NA,NA,NA,NA,NA,NA,NA,NA,NA,NA,NA,NA,0,11,11,30,NA,NA,NA,NA,NA,NA,NA,NA,NA,NA,NA,4,1,0.47536325705,"2018_Apr_06_1640","test_session",119.932283567,"ptt_a_002",NA
"175","","","","","","",NA,"","","","","","",NA,NA,"","","","","","","ti.wav","pu.wav",4,"pi.wav","da.wav","bu.wav","pa.wav",NA,NA,NA,NA,NA,NA,NA,NA,NA,NA,NA,NA,0,12,12,16,NA,NA,NA,NA,NA,NA,NA,NA,NA,NA,NA,3,0,0.466958203411,"2018_Apr_06_1640","test_session",119.932283567,"ptt_a_002",NA
"176","","","","","","",NA,"","","","","","",NA,NA,"","","","","","","ti.wav","du.wav",3,"ta.wav","bi.wav","di.wav","pa.wav",NA,NA,NA,NA,NA,NA,NA,NA,NA,NA,NA,NA,0,13,13,20,NA,NA,NA,NA,NA,NA,NA,NA,NA,NA,NA,4,0,2.39272811677,"2018_Apr_06_1640","test_session",119.932283567,"ptt_a_002",NA
"177","","","","","","",NA,"","","","","","",NA,NA,"","","","","","","tu.wav","bi.wav",3,"pi.wav","du.wav","bu.wav","tu.wav",NA,NA,NA,NA,NA,NA,NA,NA,NA,NA,NA,NA,0,14,14,9,NA,NA,NA,NA,NA,NA,NA,NA,NA,NA,NA,3,1,0.750510222511,"2018_Apr_06_1640","test_session",119.932283567,"ptt_a_002",NA
"178","","","","","","",NA,"","","","","","",NA,NA,"","","","","","","ti.wav","pu.wav",4,"pi.wav","pu.wav","di.wav","ba.wav",NA,NA,NA,NA,NA,NA,NA,NA,NA,NA,NA,NA,0,15,15,17,NA,NA,NA,NA,NA,NA,NA,NA,NA,NA,NA,3,0,3.75053923589,"2018_Apr_06_1640","test_session",119.932283567,"ptt_a_002",NA
"179","","","","","","",NA,"","","","","","",NA,NA,"","","","","","","ti.wav","du.wav",3,"ta.wav","du.wav","bu.wav","tu.wav",NA,NA,NA,NA,NA,NA,NA,NA,NA,NA,NA,NA,0,16,16,18,NA,NA,NA,NA,NA,NA,NA,NA,NA,NA,NA,4,0,0.792669179849,"2018_Apr_06_1640","test_session",119.932283567,"ptt_a_002",NA
"180","","","","","","",NA,"","","","","","",NA,NA,"","","","","","","ba.wav","pu.wav",3,"di.wav","bi.wav","di.wav","pa.wav",NA,NA,NA,NA,NA,NA,NA,NA,NA,NA,NA,NA,0,17,17,0,NA,NA,NA,NA,NA,NA,NA,NA,NA,NA,NA,3,1,0.934426984924,"2018_Apr_06_1640","test_session",119.932283567,"ptt_a_002",NA
"181","","","","","","",NA,"","","","","","",NA,NA,"","","","","","","pa.wav","da.wav",3,"bu.wav","pu.wav","pi.wav","ti.wav",NA,NA,NA,NA,NA,NA,NA,NA,NA,NA,NA,NA,0,18,18,8,NA,NA,NA,NA,NA,NA,NA,NA,NA,NA,NA,3,1,1.67547629541,"2018_Apr_06_1640","test_session",119.932283567,"ptt_a_002",NA
"182","","","","","","",NA,"","","","","","",NA,NA,"","","","","","","pa.wav","bi.wav",4,"di.wav","du.wav","ta.wav","ti.wav",NA,NA,NA,NA,NA,NA,NA,NA,NA,NA,NA,NA,0,19,19,28,NA,NA,NA,NA,NA,NA,NA,NA,NA,NA,NA,3,0,3.61780316033,"2018_Apr_06_1640","test_session",119.932283567,"ptt_a_002",NA
"183","","","","","","",NA,"","","","","","",NA,NA,"","","","","","","pa.wav","da.wav",3,"bu.wav","du.wav","bu.wav","tu.wav",NA,NA,NA,NA,NA,NA,NA,NA,NA,NA,NA,NA,0,20,20,29,NA,NA,NA,NA,NA,NA,NA,NA,NA,NA,NA,3,1,1.60117566644,"2018_Apr_06_1640","test_session",119.932283567,"ptt_a_002",NA
"184","","","","","","",NA,"","","","","","",NA,NA,"","","","","","","ba.wav","pu.wav",3,"di.wav","pu.wav","pi.wav","ti.wav",NA,NA,NA,NA,NA,NA,NA,NA,NA,NA,NA,NA,0,21,21,5,NA,NA,NA,NA,NA,NA,NA,NA,NA,NA,NA,4,0,0.484140364279,"2018_Apr_06_1640","test_session",119.932283567,"ptt_a_002",NA
"185","","","","","","",NA,"","","","","","",NA,NA,"","","","","","","ti.wav","du.wav",3,"ta.wav","pu.wav","pi.wav","ti.wav",NA,NA,NA,NA,NA,NA,NA,NA,NA,NA,NA,NA,0,22,22,10,NA,NA,NA,NA,NA,NA,NA,NA,NA,NA,NA,4,0,0.617117933347,"2018_Apr_06_1640","test_session",119.932283567,"ptt_a_002",NA
"186","","","","","","",NA,"","","","","","",NA,NA,"","","","","","","tu.wav","du.wav",4,"bu.wav","bi.wav","pi.wav","tu.wav",NA,NA,NA,NA,NA,NA,NA,NA,NA,NA,NA,NA,0,23,23,25,NA,NA,NA,NA,NA,NA,NA,NA,NA,NA,NA,3,0,0.517643103376,"2018_Apr_06_1640","test_session",119.932283567,"ptt_a_002",NA
"187","","","","","","",NA,"","","","","","",NA,NA,"","","","","","","ba.wav","da.wav",4,"ta.wav","bi.wav","pi.wav","tu.wav",NA,NA,NA,NA,NA,NA,NA,NA,NA,NA,NA,NA,0,24,24,19,NA,NA,NA,NA,NA,NA,NA,NA,NA,NA,NA,4,1,1.90126216604,"2018_Apr_06_1640","test_session",119.932283567,"ptt_a_002",NA
"188","","","","","","",NA,"","","","","","",NA,NA,"","","","","","","tu.wav","bi.wav",3,"pi.wav","pu.wav","pi.wav","ti.wav",NA,NA,NA,NA,NA,NA,NA,NA,NA,NA,NA,NA,0,25,25,15,NA,NA,NA,NA,NA,NA,NA,NA,NA,NA,NA,4,0,2.38791360735,"2018_Apr_06_1640","test_session",119.932283567,"ptt_a_002",NA
"189","","","","","","",NA,"","","","","","",NA,NA,"","","","","","","ba.wav","da.wav",4,"ta.wav","du.wav","ta.wav","ti.wav",NA,NA,NA,NA,NA,NA,NA,NA,NA,NA,NA,NA,0,26,26,11,NA,NA,NA,NA,NA,NA,NA,NA,NA,NA,NA,4,1,2.90987372654,"2018_Apr_06_1640","test_session",119.932283567,"ptt_a_002",NA
"190","","","","","","",NA,"","","","","","",NA,NA,"","","","","","","pa.wav","da.wav",3,"bu.wav","da.wav","ta.wav","ba.wav",NA,NA,NA,NA,NA,NA,NA,NA,NA,NA,NA,NA,0,27,27,3,NA,NA,NA,NA,NA,NA,NA,NA,NA,NA,NA,3,1,2.72581075958,"2018_Apr_06_1640","test_session",119.932283567,"ptt_a_002",NA
"191","","","","","","",NA,"","","","","","",NA,NA,"","","","","","","pa.wav","da.wav",3,"bu.wav","bi.wav","di.wav","pa.wav",NA,NA,NA,NA,NA,NA,NA,NA,NA,NA,NA,NA,0,28,28,27,NA,NA,NA,NA,NA,NA,NA,NA,NA,NA,NA,3,1,0.468390097609,"2018_Apr_06_1640","test_session",119.932283567,"ptt_a_002",NA
"192","","","","","","",NA,"","","","","","",NA,NA,"","","","","","","tu.wav","du.wav",4,"bu.wav","du.wav","ta.wav","ti.wav",NA,NA,NA,NA,NA,NA,NA,NA,NA,NA,NA,NA,0,29,29,12,NA,NA,NA,NA,NA,NA,NA,NA,NA,NA,NA,3,0,0.642247760901,"2018_Apr_06_1640","test_session",119.932283567,"ptt_a_002",NA
"193","","","","","","",NA,"","","","","","",NA,NA,"","","","","","","tu.wav","bi.wav",3,"pi.wav","da.wav","ta.wav","ba.wav",NA,NA,NA,NA,NA,NA,NA,NA,NA,NA,NA,NA,0,30,30,13,NA,NA,NA,NA,NA,NA,NA,NA,NA,NA,NA,4,0,1.06726005609,"2018_Apr_06_1640","test_session",119.932283567,"ptt_a_002",NA
"194","","","","","","",NA,"","","","","","",NA,NA,"","","","","","","ba.wav","pu.wav",3,"di.wav","da.wav","ta.wav","ba.wav",NA,NA,NA,NA,NA,NA,NA,NA,NA,NA,NA,NA,0,31,31,4,NA,NA,NA,NA,NA,NA,NA,NA,NA,NA,NA,3,1,4.43510268308,"2018_Apr_06_1640","test_session",119.932283567,"ptt_a_002",NA
"195","B.png","K.png","M.png","H.png","C.png","M.png",4,"","","","","","",NA,NA,"","","","","","","","",NA,"","","","",0,0,0,9,NA,NA,NA,NA,NA,NA,NA,NA,NA,NA,NA,NA,4,1,0.967778968334,NA,NA,NA,NA,NA,NA,NA,NA,NA,NA,NA,"2018_Apr_06_1640","test_session",119.932283567,"ptt_a_002",NA
"196","F.png","J.png","A.png","H.png","C.png","M.png",4,"","","","","","",NA,NA,"","","","","","","","",NA,"","","","",0,1,1,22,NA,NA,NA,NA,NA,NA,NA,NA,NA,NA,NA,NA,4,1,0.726234582078,NA,NA,NA,NA,NA,NA,NA,NA,NA,NA,NA,"2018_Apr_06_1640","test_session",119.932283567,"ptt_a_002",NA
"197","C.png","G.png","D.png","F.png","L.png","D.png",4,"","","","","","",NA,NA,"","","","","","","","",NA,"","","","",0,2,2,29,NA,NA,NA,NA,NA,NA,NA,NA,NA,NA,NA,NA,3,0,0.267476632143,NA,NA,NA,NA,NA,NA,NA,NA,NA,NA,NA,"2018_Apr_06_1640","test_session",119.932283567,"ptt_a_002",NA
"198","F.png","J.png","A.png","G.png","K.png","A.png",4,"","","","","","",NA,NA,"","","","","","","","",NA,"","","","",0,3,3,11,NA,NA,NA,NA,NA,NA,NA,NA,NA,NA,NA,NA,4,1,0.233638817386,NA,NA,NA,NA,NA,NA,NA,NA,NA,NA,NA,"2018_Apr_06_1640","test_session",119.932283567,"ptt_a_002",NA
"199","C.png","G.png","D.png","H.png","C.png","M.png",4,"","","","","","",NA,NA,"","","","","","","","",NA,"","","","",0,4,4,7,NA,NA,NA,NA,NA,NA,NA,NA,NA,NA,NA,NA,3,0,0.450650425279,NA,NA,NA,NA,NA,NA,NA,NA,NA,NA,NA,"2018_Apr_06_1640","test_session",119.932283567,"ptt_a_002",NA
"200","B.png","J.png","E.png","C.png","G.png","D.png",3,"","","","","","",NA,NA,"","","","","","","","",NA,"","","","",0,5,5,13,NA,NA,NA,NA,NA,NA,NA,NA,NA,NA,NA,NA,4,0,0.259131311846,NA,NA,NA,NA,NA,NA,NA,NA,NA,NA,NA,"2018_Apr_06_1640","test_session",119.932283567,"ptt_a_002",NA
"201","B.png","K.png","M.png","F.png","L.png","D.png",4,"","","","","","",NA,NA,"","","","","","","","",NA,"","","","",0,6,6,26,NA,NA,NA,NA,NA,NA,NA,NA,NA,NA,NA,NA,4,1,0.175779939978,NA,NA,NA,NA,NA,NA,NA,NA,NA,NA,NA,"2018_Apr_06_1640","test_session",119.932283567,"ptt_a_002",NA
"202","H.png","L.png","E.png","B.png","J.png","E.png",4,"","","","","","",NA,NA,"","","","","","","","",NA,"","","","",0,7,7,3,NA,NA,NA,NA,NA,NA,NA,NA,NA,NA,NA,NA,3,0,0.200358513976,NA,NA,NA,NA,NA,NA,NA,NA,NA,NA,NA,"2018_Apr_06_1640","test_session",119.932283567,"ptt_a_002",NA
"203","H.png","C.png","M.png","F.png","J.png","A.png",3,"","","","","","",NA,NA,"","","","","","","","",NA,"","","","",0,8,8,5,NA,NA,NA,NA,NA,NA,NA,NA,NA,NA,NA,NA,3,1,0.258886405092,NA,NA,NA,NA,NA,NA,NA,NA,NA,NA,NA,"2018_Apr_06_1640","test_session",119.932283567,"ptt_a_002",NA
"204","H.png","L.png","E.png","F.png","L.png","D.png",4,"","","","","","",NA,NA,"","","","","","","","",NA,"","","","",0,9,9,30,NA,NA,NA,NA,NA,NA,NA,NA,NA,NA,NA,NA,4,1,0.317154029326,NA,NA,NA,NA,NA,NA,NA,NA,NA,NA,NA,"2018_Apr_06_1640","test_session",119.932283567,"ptt_a_002",NA
"205","C.png","G.png","D.png","B.png","J.png","E.png",4,"","","","","","",NA,NA,"","","","","","","","",NA,"","","","",0,10,10,25,NA,NA,NA,NA,NA,NA,NA,NA,NA,NA,NA,NA,3,0,0.275736334617,NA,NA,NA,NA,NA,NA,NA,NA,NA,NA,NA,"2018_Apr_06_1640","test_session",119.932283567,"ptt_a_002",NA
"206","F.png","J.png","A.png","B.png","J.png","E.png",4,"","","","","","",NA,NA,"","","","","","","","",NA,"","","","",0,11,11,20,NA,NA,NA,NA,NA,NA,NA,NA,NA,NA,NA,NA,4,1,0.317248464911,NA,NA,NA,NA,NA,NA,NA,NA,NA,NA,NA,"2018_Apr_06_1640","test_session",119.932283567,"ptt_a_002",NA
"207","B.png","J.png","E.png","H.png","L.png","E.png",3,"","","","","","",NA,NA,"","","","","","","","",NA,"","","","",0,12,12,12,NA,NA,NA,NA,NA,NA,NA,NA,NA,NA,NA,NA,4,0,0.275426574459,NA,NA,NA,NA,NA,NA,NA,NA,NA,NA,NA,"2018_Apr_06_1640","test_session",119.932283567,"ptt_a_002",NA
"208","B.png","K.png","M.png","G.png","K.png","A.png",4,"","","","","","",NA,NA,"","","","","","","","",NA,"","","","",0,13,13,14,NA,NA,NA,NA,NA,NA,NA,NA,NA,NA,NA,NA,4,1,0.28530476673,NA,NA,NA,NA,NA,NA,NA,NA,NA,NA,NA,"2018_Apr_06_1640","test_session",119.932283567,"ptt_a_002",NA
"209","G.png","K.png","A.png","C.png","G.png","D.png",3,"","","","","","",NA,NA,"","","","","","","","",NA,"","","","",0,14,14,21,NA,NA,NA,NA,NA,NA,NA,NA,NA,NA,NA,NA,3,1,0.259678583243,NA,NA,NA,NA,NA,NA,NA,NA,NA,NA,NA,"2018_Apr_06_1640","test_session",119.932283567,"ptt_a_002",NA
"210","B.png","K.png","M.png","B.png","J.png","E.png",4,"","","","","","",NA,NA,"","","","","","","","",NA,"","","","",0,15,15,8,NA,NA,NA,NA,NA,NA,NA,NA,NA,NA,NA,NA,4,1,0.175802411162,NA,NA,NA,NA,NA,NA,NA,NA,NA,NA,NA,"2018_Apr_06_1640","test_session",119.932283567,"ptt_a_002",NA
"211","F.png","L.png","D.png","B.png","K.png","M.png",3,"","","","","","",NA,NA,"","","","","","","","",NA,"","","","",0,16,16,31,NA,NA,NA,NA,NA,NA,NA,NA,NA,NA,NA,NA,3,1,0.309427660482,NA,NA,NA,NA,NA,NA,NA,NA,NA,NA,NA,"2018_Apr_06_1640","test_session",119.932283567,"ptt_a_002",NA
"212","G.png","K.png","A.png","H.png","L.png","E.png",3,"","","","","","",NA,NA,"","","","","","","","",NA,"","","","",0,17,17,18,NA,NA,NA,NA,NA,NA,NA,NA,NA,NA,NA,NA,4,0,0.767279654276,NA,NA,NA,NA,NA,NA,NA,NA,NA,NA,NA,"2018_Apr_06_1640","test_session",119.932283567,"ptt_a_002",NA
"213","F.png","J.png","A.png","F.png","L.png","D.png",4,"","","","","","",NA,NA,"","","","","","","","",NA,"","","","",0,18,18,23,NA,NA,NA,NA,NA,NA,NA,NA,NA,NA,NA,NA,3,0,0.317137247068,NA,NA,NA,NA,NA,NA,NA,NA,NA,NA,NA,"2018_Apr_06_1640","test_session",119.932283567,"ptt_a_002",NA
"214","H.png","L.png","E.png","H.png","C.png","M.png",4,"","","","","","",NA,NA,"","","","","","","","",NA,"","","","",0,19,19,4,NA,NA,NA,NA,NA,NA,NA,NA,NA,NA,NA,NA,3,0,0.159086170548,NA,NA,NA,NA,NA,NA,NA,NA,NA,NA,NA,"2018_Apr_06_1640","test_session",119.932283567,"ptt_a_002",NA
"215","H.png","L.png","E.png","G.png","K.png","A.png",4,"","","","","","",NA,NA,"","","","","","","","",NA,"","","","",0,20,20,15,NA,NA,NA,NA,NA,NA,NA,NA,NA,NA,NA,NA,4,1,0.28387031256,NA,NA,NA,NA,NA,NA,NA,NA,NA,NA,NA,"2018_Apr_06_1640","test_session",119.932283567,"ptt_a_002",NA
"216","H.png","C.png","M.png","G.png","C.png","D.png",3,"","","","","","",NA,NA,"","","","","","","","",NA,"","","","",0,21,21,17,NA,NA,NA,NA,NA,NA,NA,NA,NA,NA,NA,NA,3,1,0.142135831993,NA,NA,NA,NA,NA,NA,NA,NA,NA,NA,NA,"2018_Apr_06_1640","test_session",119.932283567,"ptt_a_002",NA
"217","B.png","J.png","E.png","B.png","K.png","M.png",3,"","","","","","",NA,NA,"","","","","","","","",NA,"","","","",0,22,22,16,NA,NA,NA,NA,NA,NA,NA,NA,NA,NA,NA,NA,4,0,0.242180973291,NA,NA,NA,NA,NA,NA,NA,NA,NA,NA,NA,"2018_Apr_06_1640","test_session",119.932283567,"ptt_a_002",NA
"218","H.png","C.png","M.png","B.png","K.png","M.png",3,"","","","","","",NA,NA,"","","","","","","","",NA,"","","","",0,23,23,28,NA,NA,NA,NA,NA,NA,NA,NA,NA,NA,NA,NA,3,1,0.259943401208,NA,NA,NA,NA,NA,NA,NA,NA,NA,NA,NA,"2018_Apr_06_1640","test_session",119.932283567,"ptt_a_002",NA
"219","C.png","G.png","D.png","G.png","K.png","A.png",4,"","","","","","",NA,NA,"","","","","","","","",NA,"","","","",0,24,24,27,NA,NA,NA,NA,NA,NA,NA,NA,NA,NA,NA,NA,4,1,0.410602046875,NA,NA,NA,NA,NA,NA,NA,NA,NA,NA,NA,"2018_Apr_06_1640","test_session",119.932283567,"ptt_a_002",NA
"220","F.png","L.png","D.png","C.png","G.png","D.png",3,"","","","","","",NA,NA,"","","","","","","","",NA,"","","","",0,25,25,6,NA,NA,NA,NA,NA,NA,NA,NA,NA,NA,NA,NA,4,0,0.0835433719913,NA,NA,NA,NA,NA,NA,NA,NA,NA,NA,NA,"2018_Apr_06_1640","test_session",119.932283567,"ptt_a_002",NA
"221","G.png","K.png","A.png","B.png","K.png","M.png",3,"","","","","","",NA,NA,"","","","","","","","",NA,"","","","",0,26,26,2,NA,NA,NA,NA,NA,NA,NA,NA,NA,NA,NA,NA,3,1,0.608949821966,NA,NA,NA,NA,NA,NA,NA,NA,NA,NA,NA,"2018_Apr_06_1640","test_session",119.932283567,"ptt_a_002",NA
"222","H.png","C.png","M.png","H.png","L.png","E.png",3,"","","","","","",NA,NA,"","","","","","","","",NA,"","","","",0,27,27,1,NA,NA,NA,NA,NA,NA,NA,NA,NA,NA,NA,NA,3,1,0.284296410624,NA,NA,NA,NA,NA,NA,NA,NA,NA,NA,NA,"2018_Apr_06_1640","test_session",119.932283567,"ptt_a_002",NA
"223","G.png","K.png","A.png","F.png","J.png","A.png",3,"","","","","","",NA,NA,"","","","","","","","",NA,"","","","",0,28,28,0,NA,NA,NA,NA,NA,NA,NA,NA,NA,NA,NA,NA,4,0,0.242350217886,NA,NA,NA,NA,NA,NA,NA,NA,NA,NA,NA,"2018_Apr_06_1640","test_session",119.932283567,"ptt_a_002",NA
"224","F.png","L.png","D.png","F.png","J.png","A.png",3,"","","","","","",NA,NA,"","","","","","","","",NA,"","","","",0,29,29,19,NA,NA,NA,NA,NA,NA,NA,NA,NA,NA,NA,NA,3,1,0.0343236462213,NA,NA,NA,NA,NA,NA,NA,NA,NA,NA,NA,"2018_Apr_06_1640","test_session",119.932283567,"ptt_a_002",NA
"225","F.png","L.png","D.png","H.png","L.png","E.png",3,"","","","","","",NA,NA,"","","","","","","","",NA,"","","","",0,30,30,10,NA,NA,NA,NA,NA,NA,NA,NA,NA,NA,NA,NA,3,1,0.100397852657,NA,NA,NA,NA,NA,NA,NA,NA,NA,NA,NA,"2018_Apr_06_1640","test_session",119.932283567,"ptt_a_002",NA
"226","B.png","J.png","E.png","F.png","J.png","A.png",3,"","","","","","",NA,NA,"","","","","","","","",NA,"","","","",0,31,31,24,NA,NA,NA,NA,NA,NA,NA,NA,NA,NA,NA,NA,4,0,0.175470748742,NA,NA,NA,NA,NA,NA,NA,NA,NA,NA,NA,"2018_Apr_06_1640","test_session",119.932283567,"ptt_a_002",NA
"227","","","","","","",NA,"3C.wav","3B.wav","3A.wav","2C.wav","1B.wav","4A.wav",4,NA,"","","","","","","","",NA,"","","","",NA,NA,NA,NA,0,0,0,11,NA,NA,NA,NA,NA,NA,NA,NA,NA,NA,NA,4,1,0.867706804711,NA,NA,NA,NA,NA,NA,NA,NA,"2018_Apr_06_1640","test_session",119.932283567,"ptt_a_002",NA
"228","","","","","","",NA,"3C.wav","3B.wav","3A.wav","4C.wav","3B.wav","2A.wav",4,NA,"","","","","","","","",NA,"","","","",NA,NA,NA,NA,0,1,1,9,NA,NA,NA,NA,NA,NA,NA,NA,NA,NA,NA,4,1,0.584372954676,NA,NA,NA,NA,NA,NA,NA,NA,"2018_Apr_06_1640","test_session",119.932283567,"ptt_a_002",NA
"229","","","","","","",NA,"2C.wav","1B.wav","4A.wav","4C.wav","4B.wav","4A.wav",3,NA,"","","","","","","","",NA,"","","","",NA,NA,NA,NA,0,2,2,25,NA,NA,NA,NA,NA,NA,NA,NA,NA,NA,NA,3,1,0.833865861059,NA,NA,NA,NA,NA,NA,NA,NA,"2018_Apr_06_1640","test_session",119.932283567,"ptt_a_002",NA
"230","","","","","","",NA,"1C.wav","4B.wav","3A.wav","3C.wav","3B.wav","3A.wav",3,NA,"","","","","","","","",NA,"","","","",NA,NA,NA,NA,0,3,3,10,NA,NA,NA,NA,NA,NA,NA,NA,NA,NA,NA,4,0,0.317034847045,NA,NA,NA,NA,NA,NA,NA,NA,"2018_Apr_06_1640","test_session",119.932283567,"ptt_a_002",NA
"231","","","","","","",NA,"3C.wav","3B.wav","3A.wav","1C.wav","4B.wav","3A.wav",4,NA,"","","","","","","","",NA,"","","","",NA,NA,NA,NA,0,4,4,4,NA,NA,NA,NA,NA,NA,NA,NA,NA,NA,NA,4,1,0.384272147494,NA,NA,NA,NA,NA,NA,NA,NA,"2018_Apr_06_1640","test_session",119.932283567,"ptt_a_002",NA
"232","","","","","","",NA,"3C.wav","2B.wav","1A.wav","2C.wav","2B.wav","2A.wav",3,NA,"","","","","","","","",NA,"","","","",NA,NA,NA,NA,0,5,5,1,NA,NA,NA,NA,NA,NA,NA,NA,NA,NA,NA,3,1,0.483644861844,NA,NA,NA,NA,NA,NA,NA,NA,"2018_Apr_06_1640","test_session",119.932283567,"ptt_a_002",NA
"233","","","","","","",NA,"1C.wav","4B.wav","3A.wav","1C.wav","1B.wav","1A.wav",3,NA,"","","","","","","","",NA,"","","","",NA,NA,NA,NA,0,6,6,19,NA,NA,NA,NA,NA,NA,NA,NA,NA,NA,NA,4,0,0.3920670675,NA,NA,NA,NA,NA,NA,NA,NA,"2018_Apr_06_1640","test_session",119.932283567,"ptt_a_002",NA
"234","","","","","","",NA,"4C.wav","3B.wav","2A.wav","1C.wav","1B.wav","1A.wav",3,NA,"","","","","","","","",NA,"","","","",NA,NA,NA,NA,0,7,7,29,NA,NA,NA,NA,NA,NA,NA,NA,NA,NA,NA,4,0,0.750657564844,NA,NA,NA,NA,NA,NA,NA,NA,"2018_Apr_06_1640","test_session",119.932283567,"ptt_a_002",NA
"235","","","","","","",NA,"2C.wav","2B.wav","2A.wav","3C.wav","2B.wav","1A.wav",4,NA,"","","","","","","","",NA,"","","","",NA,NA,NA,NA,0,8,8,30,NA,NA,NA,NA,NA,NA,NA,NA,NA,NA,NA,4,1,1.81759335398,NA,NA,NA,NA,NA,NA,NA,NA,"2018_Apr_06_1640","test_session",119.932283567,"ptt_a_002",NA
"236","","","","","","",NA,"4C.wav","3B.wav","2A.wav","2C.wav","2B.wav","2A.wav",3,NA,"","","","","","","","",NA,"","","","",NA,NA,NA,NA,0,9,9,22,NA,NA,NA,NA,NA,NA,NA,NA,NA,NA,NA,3,1,3.14257217001,NA,NA,NA,NA,NA,NA,NA,NA,"2018_Apr_06_1640","test_session",119.932283567,"ptt_a_002",NA
"237","","","","","","",NA,"4C.wav","4B.wav","4A.wav","3C.wav","2B.wav","1A.wav",4,NA,"","","","","","","","",NA,"","","","",NA,NA,NA,NA,0,10,10,26,NA,NA,NA,NA,NA,NA,NA,NA,NA,NA,NA,4,1,0.400511658983,NA,NA,NA,NA,NA,NA,NA,NA,"2018_Apr_06_1640","test_session",119.932283567,"ptt_a_002",NA
"238","","","","","","",NA,"4C.wav","4B.wav","4A.wav","4C.wav","3B.wav","2A.wav",4,NA,"","","","","","","","",NA,"","","","",NA,NA,NA,NA,0,11,11,2,NA,NA,NA,NA,NA,NA,NA,NA,NA,NA,NA,4,1,0.425073735125,NA,NA,NA,NA,NA,NA,NA,NA,"2018_Apr_06_1640","test_session",119.932283567,"ptt_a_002",NA
"239","","","","","","",NA,"4C.wav","4B.wav","4A.wav","1C.wav","4B.wav","3A.wav",4,NA,"","","","","","","","",NA,"","","","",NA,NA,NA,NA,0,12,12,6,NA,NA,NA,NA,NA,NA,NA,NA,NA,NA,NA,3,0,0.350195683655,NA,NA,NA,NA,NA,NA,NA,NA,"2018_Apr_06_1640","test_session",119.932283567,"ptt_a_002",NA
"240","","","","","","",NA,"4C.wav","3B.wav","2A.wav","3C.wav","3B.wav","3A.wav",3,NA,"","","","","","","","",NA,"","","","",NA,NA,NA,NA,0,13,13,27,NA,NA,NA,NA,NA,NA,NA,NA,NA,NA,NA,3,1,0.0588490290102,NA,NA,NA,NA,NA,NA,NA,NA,"2018_Apr_06_1640","test_session",119.932283567,"ptt_a_002",NA
"241","","","","","","",NA,"1C.wav","4B.wav","3A.wav","4C.wav","4B.wav","4A.wav",3,NA,"","","","","","","","",NA,"","","","",NA,NA,NA,NA,0,14,14,12,NA,NA,NA,NA,NA,NA,NA,NA,NA,NA,NA,4,0,0.184067518043,NA,NA,NA,NA,NA,NA,NA,NA,"2018_Apr_06_1640","test_session",119.932283567,"ptt_a_002",NA
"242","","","","","","",NA,"2C.wav","2B.wav","2A.wav","4C.wav","3B.wav","2A.wav",4,NA,"","","","","","","","",NA,"","","","",NA,NA,NA,NA,0,15,15,16,NA,NA,NA,NA,NA,NA,NA,NA,NA,NA,NA,4,1,0.3504050349,NA,NA,NA,NA,NA,NA,NA,NA,"2018_Apr_06_1640","test_session",119.932283567,"ptt_a_002",NA
"243","","","","","","",NA,"3C.wav","2B.wav","1A.wav","4C.wav","4B.wav","4A.wav",3,NA,"","","","","","","","",NA,"","","","",NA,NA,NA,NA,0,16,16,18,NA,NA,NA,NA,NA,NA,NA,NA,NA,NA,NA,3,1,0.541985872725,NA,NA,NA,NA,NA,NA,NA,NA,"2018_Apr_06_1640","test_session",119.932283567,"ptt_a_002",NA
"244","","","","","","",NA,"2C.wav","1B.wav","4A.wav","1C.wav","1B.wav","1A.wav",3,NA,"","","","","","","","",NA,"","","","",NA,NA,NA,NA,0,17,17,13,NA,NA,NA,NA,NA,NA,NA,NA,NA,NA,NA,3,1,3.10074715066,NA,NA,NA,NA,NA,NA,NA,NA,"2018_Apr_06_1640","test_session",119.932283567,"ptt_a_002",NA
"245","","","","","","",NA,"2C.wav","2B.wav","2A.wav","1C.wav","4B.wav","3A.wav",4,NA,"","","","","","","","",NA,"","","","",NA,NA,NA,NA,0,18,18,0,NA,NA,NA,NA,NA,NA,NA,NA,NA,NA,NA,4,1,1.48389773304,NA,NA,NA,NA,NA,NA,NA,NA,"2018_Apr_06_1640","test_session",119.932283567,"ptt_a_002",NA
"246","","","","","","",NA,"4C.wav","4B.wav","4A.wav","2C.wav","1B.wav","4A.wav",4,NA,"","","","","","","","",NA,"","","","",NA,NA,NA,NA,0,19,19,28,NA,NA,NA,NA,NA,NA,NA,NA,NA,NA,NA,3,0,1.56762713182,NA,NA,NA,NA,NA,NA,NA,NA,"2018_Apr_06_1640","test_session",119.932283567,"ptt_a_002",NA
"247","","","","","","",NA,"3C.wav","2B.wav","1A.wav","1C.wav","1B.wav","1A.wav",3,NA,"","","","","","","","",NA,"","","","",NA,NA,NA,NA,0,20,20,24,NA,NA,NA,NA,NA,NA,NA,NA,NA,NA,NA,3,1,0.984416986699,NA,NA,NA,NA,NA,NA,NA,NA,"2018_Apr_06_1640","test_session",119.932283567,"ptt_a_002",NA
"248","","","","","","",NA,"3C.wav","2B.wav","1A.wav","3C.wav","3B.wav","3A.wav",3,NA,"","","","","","","","",NA,"","","","",NA,NA,NA,NA,0,21,21,31,NA,NA,NA,NA,NA,NA,NA,NA,NA,NA,NA,4,0,1.87587377831,NA,NA,NA,NA,NA,NA,NA,NA,"2018_Apr_06_1640","test_session",119.932283567,"ptt_a_002",NA
"249","","","","","","",NA,"1C.wav","4B.wav","3A.wav","2C.wav","2B.wav","2A.wav",3,NA,"","","","","","","","",NA,"","","","",NA,NA,NA,NA,0,22,22,14,NA,NA,NA,NA,NA,NA,NA,NA,NA,NA,NA,4,0,0.425440668711,NA,NA,NA,NA,NA,NA,NA,NA,"2018_Apr_06_1640","test_session",119.932283567,"ptt_a_002",NA
"250","","","","","","",NA,"4C.wav","3B.wav","2A.wav","4C.wav","4B.wav","4A.wav",3,NA,"","","","","","","","",NA,"","","","",NA,NA,NA,NA,0,23,23,8,NA,NA,NA,NA,NA,NA,NA,NA,NA,NA,NA,3,1,0.342021883465,NA,NA,NA,NA,NA,NA,NA,NA,"2018_Apr_06_1640","test_session",119.932283567,"ptt_a_002",NA
"251","","","","","","",NA,"2C.wav","2B.wav","2A.wav","2C.wav","1B.wav","4A.wav",4,NA,"","","","","","","","",NA,"","","","",NA,NA,NA,NA,0,24,24,23,NA,NA,NA,NA,NA,NA,NA,NA,NA,NA,NA,3,0,0.76762070338,NA,NA,NA,NA,NA,NA,NA,NA,"2018_Apr_06_1640","test_session",119.932283567,"ptt_a_002",NA
"252","","","","","","",NA,"1C.wav","1B.wav","1A.wav","4C.wav","3B.wav","2A.wav",4,NA,"","","","","","","","",NA,"","","","",NA,NA,NA,NA,0,25,25,20,NA,NA,NA,NA,NA,NA,NA,NA,NA,NA,NA,3,0,0.483748684055,NA,NA,NA,NA,NA,NA,NA,NA,"2018_Apr_06_1640","test_session",119.932283567,"ptt_a_002",NA
"253","","","","","","",NA,"1C.wav","1B.wav","1A.wav","1C.wav","4B.wav","3A.wav",4,NA,"","","","","","","","",NA,"","","","",NA,NA,NA,NA,0,26,26,21,NA,NA,NA,NA,NA,NA,NA,NA,NA,NA,NA,3,0,0.34213338577,NA,NA,NA,NA,NA,NA,NA,NA,"2018_Apr_06_1640","test_session",119.932283567,"ptt_a_002",NA
"254","","","","","","",NA,"1C.wav","1B.wav","1A.wav","3C.wav","2B.wav","1A.wav",4,NA,"","","","","","","","",NA,"","","","",NA,NA,NA,NA,0,27,27,7,NA,NA,NA,NA,NA,NA,NA,NA,NA,NA,NA,4,1,0.400738361292,NA,NA,NA,NA,NA,NA,NA,NA,"2018_Apr_06_1640","test_session",119.932283567,"ptt_a_002",NA
"255","","","","","","",NA,"1C.wav","1B.wav","1A.wav","2C.wav","1B.wav","4A.wav",4,NA,"","","","","","","","",NA,"","","","",NA,NA,NA,NA,0,28,28,5,NA,NA,NA,NA,NA,NA,NA,NA,NA,NA,NA,3,0,0.459089327836,NA,NA,NA,NA,NA,NA,NA,NA,"2018_Apr_06_1640","test_session",119.932283567,"ptt_a_002",NA
"256","","","","","","",NA,"2C.wav","1B.wav","4A.wav","3C.wav","3B.wav","3A.wav",3,NA,"","","","","","","","",NA,"","","","",NA,NA,NA,NA,0,29,29,15,NA,NA,NA,NA,NA,NA,NA,NA,NA,NA,NA,3,1,0.634098707407,NA,NA,NA,NA,NA,NA,NA,NA,"2018_Apr_06_1640","test_session",119.932283567,"ptt_a_002",NA
"257","","","","","","",NA,"3C.wav","3B.wav","3A.wav","3C.wav","2B.wav","1A.wav",4,NA,"","","","","","","","",NA,"","","","",NA,NA,NA,NA,0,30,30,3,NA,NA,NA,NA,NA,NA,NA,NA,NA,NA,NA,4,1,0.209154678974,NA,NA,NA,NA,NA,NA,NA,NA,"2018_Apr_06_1640","test_session",119.932283567,"ptt_a_002",NA
"258","","","","","","",NA,"2C.wav","1B.wav","4A.wav","2C.wav","2B.wav","2A.wav",3,NA,"","","","","","","","",NA,"","","","",NA,NA,NA,NA,0,31,31,17,NA,NA,NA,NA,NA,NA,NA,NA,NA,NA,NA,3,1,0.392203600903,NA,NA,NA,NA,NA,NA,NA,NA,"2018_Apr_06_1640","test_session",119.932283567,"ptt_a_002",NA
"259","","","","","","",NA,"","","","","","",NA,3,"Alien4.BMP","Alien6.BMP","Alien5.BMP","Alien8.BMP","Alien4.BMP","Alien12.BMP","","",NA,"","","","",NA,NA,NA,NA,NA,NA,NA,NA,0,0,0,17,NA,NA,NA,NA,NA,NA,NA,NA,NA,NA,4,0,2.75922190747,NA,NA,NA,NA,NA,"2018_Apr_10_1419","test_session",120.053100827,"ptt_a_003",NA
"260","","","","","","",NA,"","","","","","",NA,3,"Alien10.BMP","Alien12.BMP","Alien11.BMP","Alien8.BMP","Alien4.BMP","Alien12.BMP","","",NA,"","","","",NA,NA,NA,NA,NA,NA,NA,NA,0,1,1,18,NA,NA,NA,NA,NA,NA,NA,NA,NA,NA,3,1,2.71750184824,NA,NA,NA,NA,NA,"2018_Apr_10_1419","test_session",120.053100827,"ptt_a_003",NA
"261","","","","","","",NA,"","","","","","",NA,3,"Alien10.BMP","Alien12.BMP","Alien11.BMP","Alien11.BMP","Alien7.BMP","Alien3.BMP","","",NA,"","","","",NA,NA,NA,NA,NA,NA,NA,NA,0,2,2,21,NA,NA,NA,NA,NA,NA,NA,NA,NA,NA,4,0,0.600701212767,NA,NA,NA,NA,NA,"2018_Apr_10_1419","test_session",120.053100827,"ptt_a_003",NA
"262","","","","","","",NA,"","","","","","",NA,4,"Alien10.BMP","Alien6.BMP","Alien2.BMP","Alien8.BMP","Alien7.BMP","Alien9.BMP","","",NA,"","","","",NA,NA,NA,NA,NA,NA,NA,NA,0,3,3,16,NA,NA,NA,NA,NA,NA,NA,NA,NA,NA,3,0,0.550332899787,NA,NA,NA,NA,NA,"2018_Apr_10_1419","test_session",120.053100827,"ptt_a_003",NA
"263","","","","","","",NA,"","","","","","",NA,3,"Alien7.BMP","Alien9.BMP","Alien8.BMP","Alien8.BMP","Alien4.BMP","Alien12.BMP","","",NA,"","","","",NA,NA,NA,NA,NA,NA,NA,NA,0,4,4,2,NA,NA,NA,NA,NA,NA,NA,NA,NA,NA,3,1,0.316986207035,NA,NA,NA,NA,NA,"2018_Apr_10_1419","test_session",120.053100827,"ptt_a_003",NA
"264","","","","","","",NA,"","","","","","",NA,3,"Alien7.BMP","Alien9.BMP","Alien8.BMP","Alien5.BMP","Alien1.BMP","Alien9.BMP","","",NA,"","","","",NA,NA,NA,NA,NA,NA,NA,NA,0,5,5,26,NA,NA,NA,NA,NA,NA,NA,NA,NA,NA,3,1,0.30035473092,NA,NA,NA,NA,NA,"2018_Apr_10_1419","test_session",120.053100827,"ptt_a_003",NA
"265","","","","","","",NA,"","","","","","",NA,3,"Alien1.BMP","Alien3.BMP","Alien2.BMP","Alien2.BMP","Alien10.BMP","Alien6.BMP","","",NA,"","","","",NA,NA,NA,NA,NA,NA,NA,NA,0,6,6,28,NA,NA,NA,NA,NA,NA,NA,NA,NA,NA,4,0,0.983742568525,NA,NA,NA,NA,NA,"2018_Apr_10_1419","test_session",120.053100827,"ptt_a_003",NA
"266","","","","","","",NA,"","","","","","",NA,4,"Alien1.BMP","Alien9.BMP","Alien5.BMP","Alien5.BMP","Alien4.BMP","Alien6.BMP","","",NA,"","","","",NA,NA,NA,NA,NA,NA,NA,NA,0,7,7,20,NA,NA,NA,NA,NA,NA,NA,NA,NA,NA,3,0,0.0922064170009,NA,NA,NA,NA,NA,"2018_Apr_10_1419","test_session",120.053100827,"ptt_a_003",NA
"267","","","","","","",NA,"","","","","","",NA,4,"Alien1.BMP","Alien9.BMP","Alien5.BMP","Alien8.BMP","Alien7.BMP","Alien9.BMP","","",NA,"","","","",NA,NA,NA,NA,NA,NA,NA,NA,0,8,8,14,NA,NA,NA,NA,NA,NA,NA,NA,NA,NA,4,1,0.0252657921519,NA,NA,NA,NA,NA,"2018_Apr_10_1419","test_session",120.053100827,"ptt_a_003",NA
"268","","","","","","",NA,"","","","","","",NA,4,"Alien4.BMP","Alien12.BMP","Alien8.BMP","Alien5.BMP","Alien4.BMP","Alien6.BMP","","",NA,"","","","",NA,NA,NA,NA,NA,NA,NA,NA,0,9,9,15,NA,NA,NA,NA,NA,NA,NA,NA,NA,NA,4,1,0.458786963252,NA,NA,NA,NA,NA,"2018_Apr_10_1419","test_session",120.053100827,"ptt_a_003",NA
"269","","","","","","",NA,"","","","","","",NA,3,"Alien7.BMP","Alien9.BMP","Alien8.BMP","Alien11.BMP","Alien7.BMP","Alien3.BMP","","",NA,"","","","",NA,NA,NA,NA,NA,NA,NA,NA,0,10,10,12,NA,NA,NA,NA,NA,NA,NA,NA,NA,NA,4,0,0.283685139264,NA,NA,NA,NA,NA,"2018_Apr_10_1419","test_session",120.053100827,"ptt_a_003",NA
"270","","","","","","",NA,"","","","","","",NA,4,"Alien7.BMP","Alien3.BMP","Alien11.BMP","Alien8.BMP","Alien7.BMP","Alien9.BMP","","",NA,"","","","",NA,NA,NA,NA,NA,NA,NA,NA,0,11,11,31,NA,NA,NA,NA,NA,NA,NA,NA,NA,NA,3,0,1.39235919213,NA,NA,NA,NA,NA,"2018_Apr_10_1419","test_session",120.053100827,"ptt_a_003",NA
"271","","","","","","",NA,"","","","","","",NA,4,"Alien4.BMP","Alien12.BMP","Alien8.BMP","Alien8.BMP","Alien7.BMP","Alien9.BMP","","",NA,"","","","",NA,NA,NA,NA,NA,NA,NA,NA,0,12,12,30,NA,NA,NA,NA,NA,NA,NA,NA,NA,NA,3,0,0.600334563758,NA,NA,NA,NA,NA,"2018_Apr_10_1419","test_session",120.053100827,"ptt_a_003",NA
"272","","","","","","",NA,"","","","","","",NA,4,"Alien4.BMP","Alien12.BMP","Alien8.BMP","Alien11.BMP","Alien10.BMP","Alien12.BMP","","",NA,"","","","",NA,NA,NA,NA,NA,NA,NA,NA,0,13,13,5,NA,NA,NA,NA,NA,NA,NA,NA,NA,NA,3,0,0.0838275321294,NA,NA,NA,NA,NA,"2018_Apr_10_1419","test_session",120.053100827,"ptt_a_003",NA
"273","","","","","","",NA,"","","","","","",NA,3,"Alien4.BMP","Alien6.BMP","Alien5.BMP","Alien2.BMP","Alien10.BMP","Alien6.BMP","","",NA,"","","","",NA,NA,NA,NA,NA,NA,NA,NA,0,14,14,9,NA,NA,NA,NA,NA,NA,NA,NA,NA,NA,3,1,0.117051231093,NA,NA,NA,NA,NA,"2018_Apr_10_1419","test_session",120.053100827,"ptt_a_003",NA
"274","","","","","","",NA,"","","","","","",NA,3,"Alien7.BMP","Alien9.BMP","Alien8.BMP","Alien2.BMP","Alien10.BMP","Alien6.BMP","","",NA,"","","","",NA,NA,NA,NA,NA,NA,NA,NA,0,15,15,10,NA,NA,NA,NA,NA,NA,NA,NA,NA,NA,3,1,0.0504829442361,NA,NA,NA,NA,NA,"2018_Apr_10_1419","test_session",120.053100827,"ptt_a_003",NA
"275","","","","","","",NA,"","","","","","",NA,4,"Alien10.BMP","Alien6.BMP","Alien2.BMP","Alien2.BMP","Alien1.BMP","Alien3.BMP","","",NA,"","","","",NA,NA,NA,NA,NA,NA,NA,NA,0,16,16,13,NA,NA,NA,NA,NA,NA,NA,NA,NA,NA,3,0,0.383810209343,NA,NA,NA,NA,NA,"2018_Apr_10_1419","test_session",120.053100827,"ptt_a_003",NA
"276","","","","","","",NA,"","","","","","",NA,3,"Alien4.BMP","Alien6.BMP","Alien5.BMP","Alien5.BMP","Alien1.BMP","Alien9.BMP","","",NA,"","","","",NA,NA,NA,NA,NA,NA,NA,NA,0,17,17,23,NA,NA,NA,NA,NA,NA,NA,NA,NA,NA,3,1,0.242083693272,NA,NA,NA,NA,NA,"2018_Apr_10_1419","test_session",120.053100827,"ptt_a_003",NA
"277","","","","","","",NA,"","","","","","",NA,4,"Alien7.BMP","Alien3.BMP","Alien11.BMP","Alien5.BMP","Alien4.BMP","Alien6.BMP","","",NA,"","","","",NA,NA,NA,NA,NA,NA,NA,NA,0,18,18,4,NA,NA,NA,NA,NA,NA,NA,NA,NA,NA,4,1,0.0252669299953,NA,NA,NA,NA,NA,"2018_Apr_10_1419","test_session",120.053100827,"ptt_a_003",NA
"278","","","","","","",NA,"","","","","","",NA,3,"Alien4.BMP","Alien6.BMP","Alien5.BMP","Alien11.BMP","Alien7.BMP","Alien3.BMP","","",NA,"","","","",NA,NA,NA,NA,NA,NA,NA,NA,0,19,19,8,NA,NA,NA,NA,NA,NA,NA,NA,NA,NA,3,1,0.283877139213,NA,NA,NA,NA,NA,"2018_Apr_10_1419","test_session",120.053100827,"ptt_a_003",NA
"279","","","","","","",NA,"","","","","","",NA,4,"Alien7.BMP","Alien3.BMP","Alien11.BMP","Alien2.BMP","Alien1.BMP","Alien3.BMP","","",NA,"","","","",NA,NA,NA,NA,NA,NA,NA,NA,0,20,20,29,NA,NA,NA,NA,NA,NA,NA,NA,NA,NA,3,0,0.117013684358,NA,NA,NA,NA,NA,"2018_Apr_10_1419","test_session",120.053100827,"ptt_a_003",NA
"280","","","","","","",NA,"","","","","","",NA,4,"Alien10.BMP","Alien6.BMP","Alien2.BMP","Alien5.BMP","Alien4.BMP","Alien6.BMP","","",NA,"","","","",NA,NA,NA,NA,NA,NA,NA,NA,0,21,21,6,NA,NA,NA,NA,NA,NA,NA,NA,NA,NA,3,0,1.25879026274,NA,NA,NA,NA,NA,"2018_Apr_10_1419","test_session",120.053100827,"ptt_a_003",NA
"281","","","","","","",NA,"","","","","","",NA,3,"Alien1.BMP","Alien3.BMP","Alien2.BMP","Alien8.BMP","Alien4.BMP","Alien12.BMP","","",NA,"","","","",NA,NA,NA,NA,NA,NA,NA,NA,0,22,22,27,NA,NA,NA,NA,NA,NA,NA,NA,NA,NA,3,1,0.408896801528,NA,NA,NA,NA,NA,"2018_Apr_10_1419","test_session",120.053100827,"ptt_a_003",NA
"282","","","","","","",NA,"","","","","","",NA,4,"Alien1.BMP","Alien9.BMP","Alien5.BMP","Alien11.BMP","Alien10.BMP","Alien12.BMP","","",NA,"","","","",NA,NA,NA,NA,NA,NA,NA,NA,0,23,23,19,NA,NA,NA,NA,NA,NA,NA,NA,NA,NA,3,0,2.08393163886,NA,NA,NA,NA,NA,"2018_Apr_10_1419","test_session",120.053100827,"ptt_a_003",NA
"283","","","","","","",NA,"","","","","","",NA,3,"Alien1.BMP","Alien3.BMP","Alien2.BMP","Alien11.BMP","Alien7.BMP","Alien3.BMP","","",NA,"","","","",NA,NA,NA,NA,NA,NA,NA,NA,0,24,24,7,NA,NA,NA,NA,NA,NA,NA,NA,NA,NA,3,1,0.291856379365,NA,NA,NA,NA,NA,"2018_Apr_10_1419","test_session",120.053100827,"ptt_a_003",NA
"284","","","","","","",NA,"","","","","","",NA,3,"Alien10.BMP","Alien12.BMP","Alien11.BMP","Alien2.BMP","Alien10.BMP","Alien6.BMP","","",NA,"","","","",NA,NA,NA,NA,NA,NA,NA,NA,0,25,25,3,NA,NA,NA,NA,NA,NA,NA,NA,NA,NA,4,0,0.0503785531037,NA,NA,NA,NA,NA,"2018_Apr_10_1419","test_session",120.053100827,"ptt_a_003",NA
"285","","","","","","",NA,"","","","","","",NA,3,"Alien10.BMP","Alien12.BMP","Alien11.BMP","Alien5.BMP","Alien1.BMP","Alien9.BMP","","",NA,"","","","",NA,NA,NA,NA,NA,NA,NA,NA,0,26,26,0,NA,NA,NA,NA,NA,NA,NA,NA,NA,NA,4,0,0.000560924760066,NA,NA,NA,NA,NA,"2018_Apr_10_1419","test_session",120.053100827,"ptt_a_003",NA
"286","","","","","","",NA,"","","","","","",NA,4,"Alien7.BMP","Alien3.BMP","Alien11.BMP","Alien11.BMP","Alien10.BMP","Alien12.BMP","","",NA,"","","","",NA,NA,NA,NA,NA,NA,NA,NA,0,27,27,22,NA,NA,NA,NA,NA,NA,NA,NA,NA,NA,3,0,0.2002996339,NA,NA,NA,NA,NA,"2018_Apr_10_1419","test_session",120.053100827,"ptt_a_003",NA
"287","","","","","","",NA,"","","","","","",NA,4,"Alien1.BMP","Alien9.BMP","Alien5.BMP","Alien2.BMP","Alien1.BMP","Alien3.BMP","","",NA,"","","","",NA,NA,NA,NA,NA,NA,NA,NA,0,28,28,1,NA,NA,NA,NA,NA,NA,NA,NA,NA,NA,4,1,1.10905350209,NA,NA,NA,NA,NA,"2018_Apr_10_1419","test_session",120.053100827,"ptt_a_003",NA
"288","","","","","","",NA,"","","","","","",NA,4,"Alien10.BMP","Alien6.BMP","Alien2.BMP","Alien11.BMP","Alien10.BMP","Alien12.BMP","","",NA,"","","","",NA,NA,NA,NA,NA,NA,NA,NA,0,29,29,24,NA,NA,NA,NA,NA,NA,NA,NA,NA,NA,3,0,0.267042854102,NA,NA,NA,NA,NA,"2018_Apr_10_1419","test_session",120.053100827,"ptt_a_003",NA
"289","","","","","","",NA,"","","","","","",NA,3,"Alien1.BMP","Alien3.BMP","Alien2.BMP","Alien5.BMP","Alien1.BMP","Alien9.BMP","","",NA,"","","","",NA,NA,NA,NA,NA,NA,NA,NA,0,30,30,25,NA,NA,NA,NA,NA,NA,NA,NA,NA,NA,4,0,0.400405561086,NA,NA,NA,NA,NA,"2018_Apr_10_1419","test_session",120.053100827,"ptt_a_003",NA
"290","","","","","","",NA,"","","","","","",NA,4,"Alien4.BMP","Alien12.BMP","Alien8.BMP","Alien2.BMP","Alien1.BMP","Alien3.BMP","","",NA,"","","","",NA,NA,NA,NA,NA,NA,NA,NA,0,31,31,11,NA,NA,NA,NA,NA,NA,NA,NA,NA,NA,3,0,0.242264884408,NA,NA,NA,NA,NA,"2018_Apr_10_1419","test_session",120.053100827,"ptt_a_003",NA
"291","","","","","","",NA,"2C.wav","1B.wav","4A.wav","2C.wav","2B.wav","2A.wav",3,NA,"","","","","","","","",NA,"","","","",NA,NA,NA,NA,0,0,0,17,NA,NA,NA,NA,NA,NA,NA,NA,NA,NA,NA,3,1,2.53416364617,NA,NA,NA,NA,NA,NA,NA,NA,"2018_Apr_10_1419","test_session",120.053100827,"ptt_a_003",NA
"292","","","","","","",NA,"4C.wav","4B.wav","4A.wav","3C.wav","2B.wav","1A.wav",4,NA,"","","","","","","","",NA,"","","","",NA,NA,NA,NA,0,1,1,26,NA,NA,NA,NA,NA,NA,NA,NA,NA,NA,NA,3,0,0.842371323728,NA,NA,NA,NA,NA,NA,NA,NA,"2018_Apr_10_1419","test_session",120.053100827,"ptt_a_003",NA
"293","","","","","","",NA,"4C.wav","3B.wav","2A.wav","4C.wav","4B.wav","4A.wav",3,NA,"","","","","","","","",NA,"","","","",NA,NA,NA,NA,0,2,2,8,NA,NA,NA,NA,NA,NA,NA,NA,NA,NA,NA,3,1,0.625577600324,NA,NA,NA,NA,NA,NA,NA,NA,"2018_Apr_10_1419","test_session",120.053100827,"ptt_a_003",NA
"294","","","","","","",NA,"1C.wav","4B.wav","3A.wav","1C.wav","1B.wav","1A.wav",3,NA,"","","","","","","","",NA,"","","","",NA,NA,NA,NA,0,3,3,19,NA,NA,NA,NA,NA,NA,NA,NA,NA,NA,NA,4,0,0.550357077504,NA,NA,NA,NA,NA,NA,NA,NA,"2018_Apr_10_1419","test_session",120.053100827,"ptt_a_003",NA
"295","","","","","","",NA,"1C.wav","1B.wav","1A.wav","2C.wav","1B.wav","4A.wav",4,NA,"","","","","","","","",NA,"","","","",NA,NA,NA,NA,0,4,4,5,NA,NA,NA,NA,NA,NA,NA,NA,NA,NA,NA,4,1,0.475391985965,NA,NA,NA,NA,NA,NA,NA,NA,"2018_Apr_10_1419","test_session",120.053100827,"ptt_a_003",NA
"296","","","","","","",NA,"2C.wav","1B.wav","4A.wav","1C.wav","1B.wav","1A.wav",3,NA,"","","","","","","","",NA,"","","","",NA,NA,NA,NA,0,5,5,13,NA,NA,NA,NA,NA,NA,NA,NA,NA,NA,NA,3,1,0.850456092623,NA,NA,NA,NA,NA,NA,NA,NA,"2018_Apr_10_1419","test_session",120.053100827,"ptt_a_003",NA
"297","","","","","","",NA,"3C.wav","2B.wav","1A.wav","4C.wav","4B.wav","4A.wav",3,NA,"","","","","","","","",NA,"","","","",NA,NA,NA,NA,0,6,6,18,NA,NA,NA,NA,NA,NA,NA,NA,NA,NA,NA,3,1,0.533728161477,NA,NA,NA,NA,NA,NA,NA,NA,"2018_Apr_10_1419","test_session",120.053100827,"ptt_a_003",NA
"298","","","","","","",NA,"1C.wav","4B.wav","3A.wav","3C.wav","3B.wav","3A.wav",3,NA,"","","","","","","","",NA,"","","","",NA,NA,NA,NA,0,7,7,10,NA,NA,NA,NA,NA,NA,NA,NA,NA,NA,NA,4,0,1.18374268233,NA,NA,NA,NA,NA,NA,NA,NA,"2018_Apr_10_1419","test_session",120.053100827,"ptt_a_003",NA
"299","","","","","","",NA,"4C.wav","4B.wav","4A.wav","2C.wav","1B.wav","4A.wav",4,NA,"","","","","","","","",NA,"","","","",NA,NA,NA,NA,0,8,8,28,NA,NA,NA,NA,NA,NA,NA,NA,NA,NA,NA,3,0,0.825821483042,NA,NA,NA,NA,NA,NA,NA,NA,"2018_Apr_10_1419","test_session",120.053100827,"ptt_a_003",NA
"300","","","","","","",NA,"3C.wav","3B.wav","3A.wav","3C.wav","2B.wav","1A.wav",4,NA,"","","","","","","","",NA,"","","","",NA,NA,NA,NA,0,9,9,3,NA,NA,NA,NA,NA,NA,NA,NA,NA,NA,NA,4,1,0.60583202471,NA,NA,NA,NA,NA,NA,NA,NA,"2018_Apr_10_1419","test_session",120.053100827,"ptt_a_003",NA
"301","","","","","","",NA,"2C.wav","1B.wav","4A.wav","3C.wav","3B.wav","3A.wav",3,NA,"","","","","","","","",NA,"","","","",NA,NA,NA,NA,0,10,10,15,NA,NA,NA,NA,NA,NA,NA,NA,NA,NA,NA,3,1,0.49130580842,NA,NA,NA,NA,NA,NA,NA,NA,"2018_Apr_10_1419","test_session",120.053100827,"ptt_a_003",NA
"302","","","","","","",NA,"4C.wav","3B.wav","2A.wav","2C.wav","2B.wav","2A.wav",3,NA,"","","","","","","","",NA,"","","","",NA,NA,NA,NA,0,11,11,22,NA,NA,NA,NA,NA,NA,NA,NA,NA,NA,NA,4,0,0.538986973348,NA,NA,NA,NA,NA,NA,NA,NA,"2018_Apr_10_1419","test_session",120.053100827,"ptt_a_003",NA
"303","","","","","","",NA,"2C.wav","2B.wav","2A.wav","2C.wav","1B.wav","4A.wav",4,NA,"","","","","","","","",NA,"","","","",NA,NA,NA,NA,0,12,12,23,NA,NA,NA,NA,NA,NA,NA,NA,NA,NA,NA,3,0,1.13382123166,NA,NA,NA,NA,NA,NA,NA,NA,"2018_Apr_10_1419","test_session",120.053100827,"ptt_a_003",NA
"304","","","","","","",NA,"2C.wav","1B.wav","4A.wav","4C.wav","4B.wav","4A.wav",3,NA,"","","","","","","","",NA,"","","","",NA,NA,NA,NA,0,13,13,25,NA,NA,NA,NA,NA,NA,NA,NA,NA,NA,NA,4,0,0.967152905767,NA,NA,NA,NA,NA,NA,NA,NA,"2018_Apr_10_1419","test_session",120.053100827,"ptt_a_003",NA
"305","","","","","","",NA,"3C.wav","3B.wav","3A.wav","1C.wav","4B.wav","3A.wav",4,NA,"","","","","","","","",NA,"","","","",NA,NA,NA,NA,0,14,14,4,NA,NA,NA,NA,NA,NA,NA,NA,NA,NA,NA,4,1,0.708926127758,NA,NA,NA,NA,NA,NA,NA,NA,"2018_Apr_10_1419","test_session",120.053100827,"ptt_a_003",NA
"306","","","","","","",NA,"3C.wav","2B.wav","1A.wav","2C.wav","2B.wav","2A.wav",3,NA,"","","","","","","","",NA,"","","","",NA,NA,NA,NA,0,15,15,1,NA,NA,NA,NA,NA,NA,NA,NA,NA,NA,NA,4,0,1.25058119139,NA,NA,NA,NA,NA,NA,NA,NA,"2018_Apr_10_1419","test_session",120.053100827,"ptt_a_003",NA
"307","","","","","","",NA,"3C.wav","2B.wav","1A.wav","1C.wav","1B.wav","1A.wav",3,NA,"","","","","","","","",NA,"","","","",NA,NA,NA,NA,0,16,16,24,NA,NA,NA,NA,NA,NA,NA,NA,NA,NA,NA,4,0,0.417075437261,NA,NA,NA,NA,NA,NA,NA,NA,"2018_Apr_10_1419","test_session",120.053100827,"ptt_a_003",NA
"308","","","","","","",NA,"2C.wav","2B.wav","2A.wav","4C.wav","3B.wav","2A.wav",4,NA,"","","","","","","","",NA,"","","","",NA,NA,NA,NA,0,17,17,16,NA,NA,NA,NA,NA,NA,NA,NA,NA,NA,NA,3,0,0.67536564637,NA,NA,NA,NA,NA,NA,NA,NA,"2018_Apr_10_1419","test_session",120.053100827,"ptt_a_003",NA
"309","","","","","","",NA,"4C.wav","3B.wav","2A.wav","3C.wav","3B.wav","3A.wav",3,NA,"","","","","","","","",NA,"","","","",NA,NA,NA,NA,0,18,18,27,NA,NA,NA,NA,NA,NA,NA,NA,NA,NA,NA,4,0,1.65055439679,NA,NA,NA,NA,NA,NA,NA,NA,"2018_Apr_10_1419","test_session",120.053100827,"ptt_a_003",NA
"310","","","","","","",NA,"4C.wav","4B.wav","4A.wav","1C.wav","4B.wav","3A.wav",4,NA,"","","","","","","","",NA,"","","","",NA,NA,NA,NA,0,19,19,6,NA,NA,NA,NA,NA,NA,NA,NA,NA,NA,NA,4,1,0.675530624227,NA,NA,NA,NA,NA,NA,NA,NA,"2018_Apr_10_1419","test_session",120.053100827,"ptt_a_003",NA
"311","","","","","","",NA,"2C.wav","2B.wav","2A.wav","1C.wav","4B.wav","3A.wav",4,NA,"","","","","","","","",NA,"","","","",NA,NA,NA,NA,0,20,20,0,NA,NA,NA,NA,NA,NA,NA,NA,NA,NA,NA,3,0,0.242023106664,NA,NA,NA,NA,NA,NA,NA,NA,"2018_Apr_10_1419","test_session",120.053100827,"ptt_a_003",NA
"312","","","","","","",NA,"3C.wav","2B.wav","1A.wav","3C.wav","3B.wav","3A.wav",3,NA,"","","","","","","","",NA,"","","","",NA,NA,NA,NA,0,21,21,31,NA,NA,NA,NA,NA,NA,NA,NA,NA,NA,NA,3,1,0.650474752299,NA,NA,NA,NA,NA,NA,NA,NA,"2018_Apr_10_1419","test_session",120.053100827,"ptt_a_003",NA
"313","","","","","","",NA,"1C.wav","1B.wav","1A.wav","1C.wav","4B.wav","3A.wav",4,NA,"","","","","","","","",NA,"","","","",NA,NA,NA,NA,0,22,22,21,NA,NA,NA,NA,NA,NA,NA,NA,NA,NA,NA,3,0,0.825425820658,NA,NA,NA,NA,NA,NA,NA,NA,"2018_Apr_10_1419","test_session",120.053100827,"ptt_a_003",NA
"314","","","","","","",NA,"4C.wav","4B.wav","4A.wav","4C.wav","3B.wav","2A.wav",4,NA,"","","","","","","","",NA,"","","","",NA,NA,NA,NA,0,23,23,2,NA,NA,NA,NA,NA,NA,NA,NA,NA,NA,NA,3,0,1.04233901075,NA,NA,NA,NA,NA,NA,NA,NA,"2018_Apr_10_1419","test_session",120.053100827,"ptt_a_003",NA
"315","","","","","","",NA,"3C.wav","3B.wav","3A.wav","4C.wav","3B.wav","2A.wav",4,NA,"","","","","","","","",NA,"","","","",NA,NA,NA,NA,0,24,24,9,NA,NA,NA,NA,NA,NA,NA,NA,NA,NA,NA,3,0,0.967259288067,NA,NA,NA,NA,NA,NA,NA,NA,"2018_Apr_10_1419","test_session",120.053100827,"ptt_a_003",NA
"316","","","","","","",NA,"1C.wav","4B.wav","3A.wav","4C.wav","4B.wav","4A.wav",3,NA,"","","","","","","","",NA,"","","","",NA,NA,NA,NA,0,25,25,12,NA,NA,NA,NA,NA,NA,NA,NA,NA,NA,NA,3,1,0.400552050094,NA,NA,NA,NA,NA,NA,NA,NA,"2018_Apr_10_1419","test_session",120.053100827,"ptt_a_003",NA
"317","","","","","","",NA,"2C.wav","2B.wav","2A.wav","3C.wav","2B.wav","1A.wav",4,NA,"","","","","","","","",NA,"","","","",NA,NA,NA,NA,0,26,26,30,NA,NA,NA,NA,NA,NA,NA,NA,NA,NA,NA,4,1,0.125311217969,NA,NA,NA,NA,NA,NA,NA,NA,"2018_Apr_10_1419","test_session",120.053100827,"ptt_a_003",NA
"318","","","","","","",NA,"1C.wav","4B.wav","3A.wav","2C.wav","2B.wav","2A.wav",3,NA,"","","","","","","","",NA,"","","","",NA,NA,NA,NA,0,27,27,14,NA,NA,NA,NA,NA,NA,NA,NA,NA,NA,NA,3,1,0.517084454186,NA,NA,NA,NA,NA,NA,NA,NA,"2018_Apr_10_1419","test_session",120.053100827,"ptt_a_003",NA
"319","","","","","","",NA,"1C.wav","1B.wav","1A.wav","4C.wav","3B.wav","2A.wav",4,NA,"","","","","","","","",NA,"","","","",NA,NA,NA,NA,0,28,28,20,NA,NA,NA,NA,NA,NA,NA,NA,NA,NA,NA,3,0,0.417093357304,NA,NA,NA,NA,NA,NA,NA,NA,"2018_Apr_10_1419","test_session",120.053100827,"ptt_a_003",NA
"320","","","","","","",NA,"3C.wav","3B.wav","3A.wav","2C.wav","1B.wav","4A.wav",4,NA,"","","","","","","","",NA,"","","","",NA,NA,NA,NA,0,29,29,11,NA,NA,NA,NA,NA,NA,NA,NA,NA,NA,NA,3,0,1.55056557548,NA,NA,NA,NA,NA,NA,NA,NA,"2018_Apr_10_1419","test_session",120.053100827,"ptt_a_003",NA
"321","","","","","","",NA,"1C.wav","1B.wav","1A.wav","3C.wav","2B.wav","1A.wav",4,NA,"","","","","","","","",NA,"","","","",NA,NA,NA,NA,0,30,30,7,NA,NA,NA,NA,NA,NA,NA,NA,NA,NA,NA,3,0,1.07568530529,NA,NA,NA,NA,NA,NA,NA,NA,"2018_Apr_10_1419","test_session",120.053100827,"ptt_a_003",NA
"322","","","","","","",NA,"4C.wav","3B.wav","2A.wav","1C.wav","1B.wav","1A.wav",3,NA,"","","","","","","","",NA,"","","","",NA,NA,NA,NA,0,31,31,29,NA,NA,NA,NA,NA,NA,NA,NA,NA,NA,NA,4,0,0.525500032236,NA,NA,NA,NA,NA,NA,NA,NA,"2018_Apr_10_1419","test_session",120.053100827,"ptt_a_003",NA
"323","","","","","","",NA,"","","","","","",NA,NA,"","","","","","","","",NA,"","","","",NA,NA,NA,NA,NA,NA,NA,NA,NA,NA,NA,NA,NA,NA,NA,NA,NA,NA,NA,NA,NA,NA,NA,NA,NA,3,25.3882998831,NA,NA,NA,"2018_Apr_10_1419","test_session",120.053100827,"ptt_a_003",NA
"324","","","","","","",NA,"","","","","","",NA,NA,"","","","","","","ba.wav","da.wav",4,"ta.wav","du.wav","ta.wav","ti.wav",NA,NA,NA,NA,NA,NA,NA,NA,NA,NA,NA,NA,0,0,0,11,NA,NA,NA,NA,NA,NA,NA,NA,NA,NA,NA,4,1,2.15578206198,"2018_Apr_10_1419","test_session",120.053100827,"ptt_a_003",NA
"325","","","","","","",NA,"","","","","","",NA,NA,"","","","","","","ba.wav","da.wav",4,"ta.wav","pu.wav","di.wav","ba.wav",NA,NA,NA,NA,NA,NA,NA,NA,NA,NA,NA,NA,0,1,1,24,NA,NA,NA,NA,NA,NA,NA,NA,NA,NA,NA,4,1,0.767117520794,"2018_Apr_10_1419","test_session",120.053100827,"ptt_a_003",NA
"326","","","","","","",NA,"","","","","","",NA,NA,"","","","","","","tu.wav","du.wav",4,"bu.wav","bi.wav","pi.wav","tu.wav",NA,NA,NA,NA,NA,NA,NA,NA,NA,NA,NA,NA,0,2,2,25,NA,NA,NA,NA,NA,NA,NA,NA,NA,NA,NA,3,0,2.13419925864,"2018_Apr_10_1419","test_session",120.053100827,"ptt_a_003",NA
"327","","","","","","",NA,"","","","","","",NA,NA,"","","","","","","pa.wav","bi.wav",4,"di.wav","da.wav","bu.wav","pa.wav",NA,NA,NA,NA,NA,NA,NA,NA,NA,NA,NA,NA,0,3,3,23,NA,NA,NA,NA,NA,NA,NA,NA,NA,NA,NA,4,1,0.400366876624,"2018_Apr_10_1419","test_session",120.053100827,"ptt_a_003",NA
"328","","","","","","",NA,"","","","","","",NA,NA,"","","","","","","ba.wav","pu.wav",3,"di.wav","du.wav","bu.wav","tu.wav",NA,NA,NA,NA,NA,NA,NA,NA,NA,NA,NA,NA,0,4,4,1,NA,NA,NA,NA,NA,NA,NA,NA,NA,NA,NA,4,0,0.650539890165,"2018_Apr_10_1419","test_session",120.053100827,"ptt_a_003",NA
"329","","","","","","",NA,"","","","","","",NA,NA,"","","","","","","ba.wav","da.wav",4,"ta.wav","da.wav","bu.wav","pa.wav",NA,NA,NA,NA,NA,NA,NA,NA,NA,NA,NA,NA,0,5,5,30,NA,NA,NA,NA,NA,NA,NA,NA,NA,NA,NA,3,0,0.750529564801,"2018_Apr_10_1419","test_session",120.053100827,"ptt_a_003",NA
"330","","","","","","",NA,"","","","","","",NA,NA,"","","","","","","ti.wav","du.wav",3,"ta.wav","du.wav","bu.wav","tu.wav",NA,NA,NA,NA,NA,NA,NA,NA,NA,NA,NA,NA,0,6,6,18,NA,NA,NA,NA,NA,NA,NA,NA,NA,NA,NA,4,0,0.375407146988,"2018_Apr_10_1419","test_session",120.053100827,"ptt_a_003",NA
"331","","","","","","",NA,"","","","","","",NA,NA,"","","","","","","ti.wav","pu.wav",4,"pi.wav","du.wav","ta.wav","ti.wav",NA,NA,NA,NA,NA,NA,NA,NA,NA,NA,NA,NA,0,7,7,22,NA,NA,NA,NA,NA,NA,NA,NA,NA,NA,NA,3,0,0.617110253312,"2018_Apr_10_1419","test_session",120.053100827,"ptt_a_003",NA
"332","","","","","","",NA,"","","","","","",NA,NA,"","","","","","","pa.wav","bi.wav",4,"di.wav","du.wav","ta.wav","ti.wav",NA,NA,NA,NA,NA,NA,NA,NA,NA,NA,NA,NA,0,8,8,28,NA,NA,NA,NA,NA,NA,NA,NA,NA,NA,NA,4,1,0.526161081507,"2018_Apr_10_1419","test_session",120.053100827,"ptt_a_003",NA
"333","","","","","","",NA,"","","","","","",NA,NA,"","","","","","","ba.wav","pu.wav",3,"di.wav","da.wav","ta.wav","ba.wav",NA,NA,NA,NA,NA,NA,NA,NA,NA,NA,NA,NA,0,9,9,4,NA,NA,NA,NA,NA,NA,NA,NA,NA,NA,NA,3,1,0.533780499245,"2018_Apr_10_1419","test_session",120.053100827,"ptt_a_003",NA
"334","","","","","","",NA,"","","","","","",NA,NA,"","","","","","","tu.wav","du.wav",4,"bu.wav","da.wav","bu.wav","pa.wav",NA,NA,NA,NA,NA,NA,NA,NA,NA,NA,NA,NA,0,10,10,31,NA,NA,NA,NA,NA,NA,NA,NA,NA,NA,NA,4,1,0.608799350797,"2018_Apr_10_1419","test_session",120.053100827,"ptt_a_003",NA
"335","","","","","","",NA,"","","","","","",NA,NA,"","","","","","","pa.wav","da.wav",3,"bu.wav","bi.wav","di.wav","pa.wav",NA,NA,NA,NA,NA,NA,NA,NA,NA,NA,NA,NA,0,11,11,27,NA,NA,NA,NA,NA,NA,NA,NA,NA,NA,NA,4,0,0.417139721802,"2018_Apr_10_1419","test_session",120.053100827,"ptt_a_003",NA
"336","","","","","","",NA,"","","","","","",NA,NA,"","","","","","","tu.wav","du.wav",4,"bu.wav","du.wav","ta.wav","ti.wav",NA,NA,NA,NA,NA,NA,NA,NA,NA,NA,NA,NA,0,12,12,12,NA,NA,NA,NA,NA,NA,NA,NA,NA,NA,NA,3,0,0.558688175515,"2018_Apr_10_1419","test_session",120.053100827,"ptt_a_003",NA
"337","","","","","","",NA,"","","","","","",NA,NA,"","","","","","","pa.wav","bi.wav",4,"di.wav","pu.wav","di.wav","ba.wav",NA,NA,NA,NA,NA,NA,NA,NA,NA,NA,NA,NA,0,13,13,14,NA,NA,NA,NA,NA,NA,NA,NA,NA,NA,NA,4,1,0.408597565838,"2018_Apr_10_1419","test_session",120.053100827,"ptt_a_003",NA
"338","","","","","","",NA,"","","","","","",NA,NA,"","","","","","","pa.wav","da.wav",3,"bu.wav","pu.wav","pi.wav","ti.wav",NA,NA,NA,NA,NA,NA,NA,NA,NA,NA,NA,NA,0,14,14,8,NA,NA,NA,NA,NA,NA,NA,NA,NA,NA,NA,4,0,0.758886262774,"2018_Apr_10_1419","test_session",120.053100827,"ptt_a_003",NA
"339","","","","","","",NA,"","","","","","",NA,NA,"","","","","","","tu.wav","du.wav",4,"bu.wav","pu.wav","di.wav","ba.wav",NA,NA,NA,NA,NA,NA,NA,NA,NA,NA,NA,NA,0,15,15,2,NA,NA,NA,NA,NA,NA,NA,NA,NA,NA,NA,3,0,0.917127063964,"2018_Apr_10_1419","test_session",120.053100827,"ptt_a_003",NA
"340","","","","","","",NA,"","","","","","",NA,NA,"","","","","","","tu.wav","bi.wav",3,"pi.wav","da.wav","ta.wav","ba.wav",NA,NA,NA,NA,NA,NA,NA,NA,NA,NA,NA,NA,0,16,16,13,NA,NA,NA,NA,NA,NA,NA,NA,NA,NA,NA,3,1,0.792092610616,"2018_Apr_10_1419","test_session",120.053100827,"ptt_a_003",NA
