"","X","image","trialnum","condition","l_block_trial_key_resp.keys","l_block_trial_key_resp.rt","v_block_trial_key_resp.keys","v_block_trial_key_resp.rt","vtarget","Run","PartID","ltarget"
"1",1,"Alien7.bmp",49,"R","",NA,"None",NA,6,1,"ptt_a_001","H"
"2",2,"Alien1.bmp",50,"R","",NA,"None",NA,6,1,"ptt_a_001","H"
"3",3,"Alien3.bmp",51,"R","",NA,"None",NA,6,1,"ptt_a_001","H"
"4",4,"Alien10.bmp",52,"R","",NA,"None",NA,6,1,"ptt_a_001","H"
"5",5,"Alien4.bmp",53,"R","",NA,"None",NA,6,1,"ptt_a_001","H"
"6",6,"Alien5.bmp",54,"R","",NA,"None",NA,6,1,"ptt_a_001","H"
"7",7,"Alien12.bmp",55,"R","",NA,"None",NA,6,1,"ptt_a_001","H"
"8",8,"Alien11.bmp",56,"R","",NA,"None",NA,6,1,"ptt_a_001","H"
"9",9,"Alien9.bmp",57,"R","",NA,"None",NA,6,1,"ptt_a_001","H"
"10",10,"Alien10.bmp",58,"R","",NA,"None",NA,6,1,"ptt_a_001","H"
"11",11,"Alien2.bmp",59,"R","",NA,"None",NA,6,1,"ptt_a_001","H"
"12",12,"Alien8.bmp",60,"R","",NA,"None",NA,6,1,"ptt_a_001","H"
"13",13,"Alien7.bmp",61,"R","",NA,"None",NA,6,1,"ptt_a_001","H"
"14",14,"Alien5.bmp",62,"R","",NA,"None",NA,6,1,"ptt_a_001","H"
"15",15,"Alien11.bmp",63,"R","",NA,"None",NA,6,1,"ptt_a_001","H"
"16",16,"Alien12.bmp",64,"R","",NA,"None",NA,6,1,"ptt_a_001","H"
"17",17,"Alien1.bmp",65,"R","",NA,"None",NA,6,1,"ptt_a_001","H"
"18",18,"Alien4.bmp",66,"R","",NA,"None",NA,6,1,"ptt_a_001","H"
"19",19,"Alien9.bmp",67,"R","",NA,"None",NA,6,1,"ptt_a_001","H"
"20",20,"Alien6.bmp",68,"R","",NA,"4",0.558752176,6,1,"ptt_a_001","H"
"21",21,"Alien8.bmp",69,"R","",NA,"None",NA,6,1,"ptt_a_001","H"
"22",22,"Alien2.bmp",70,"R","",NA,"None",NA,6,1,"ptt_a_001","H"
"23",23,"Alien3.bmp",71,"R","",NA,"None",NA,6,1,"ptt_a_001","H"
"24",24,"Alien6.bmp",72,"R","",NA,"4",0.492064991,6,1,"ptt_a_001","H"
"25",25,"Alien7.bmp",73,"R","",NA,"None",NA,6,1,"ptt_a_001","H"
"26",26,"Alien6.bmp",74,"R","",NA,"4",0.400342983,6,1,"ptt_a_001","H"
"27",27,"Alien2.bmp",75,"R","",NA,"None",NA,6,1,"ptt_a_001","H"
"28",28,"Alien8.bmp",76,"R","",NA,"None",NA,6,1,"ptt_a_001","H"
"29",29,"Alien8.bmp",77,"R","",NA,"None",NA,6,1,"ptt_a_001","H"
"30",30,"Alien3.bmp",78,"R","",NA,"None",NA,6,1,"ptt_a_001","H"
"31",31,"Alien10.bmp",79,"R","",NA,"None",NA,6,1,"ptt_a_001","H"
"32",32,"Alien11.bmp",80,"R","",NA,"None",NA,6,1,"ptt_a_001","H"
"33",33,"Alien3.bmp",81,"R","",NA,"None",NA,6,1,"ptt_a_001","H"
"34",34,"Alien2.bmp",82,"R","",NA,"None",NA,6,1,"ptt_a_001","H"
"35",35,"Alien4.bmp",83,"R","",NA,"None",NA,6,1,"ptt_a_001","H"
"36",36,"Alien6.bmp",84,"R","",NA,"4",0.408436855,6,1,"ptt_a_001","H"
"37",37,"Alien11.bmp",85,"R","",NA,"None",NA,6,1,"ptt_a_001","H"
"38",38,"Alien9.bmp",86,"R","",NA,"None",NA,6,1,"ptt_a_001","H"
"39",39,"Alien9.bmp",87,"R","",NA,"None",NA,6,1,"ptt_a_001","H"
"40",40,"Alien7.bmp",88,"R","",NA,"None",NA,6,1,"ptt_a_001","H"
"41",41,"Alien12.bmp",89,"R","",NA,"None",NA,6,1,"ptt_a_001","H"
"42",42,"Alien1.bmp",90,"R","",NA,"None",NA,6,1,"ptt_a_001","H"
"43",43,"Alien4.bmp",91,"R","",NA,"None",NA,6,1,"ptt_a_001","H"
"44",44,"Alien10.bmp",92,"R","",NA,"None",NA,6,1,"ptt_a_001","H"
"45",45,"Alien12.bmp",93,"R","",NA,"None",NA,6,1,"ptt_a_001","H"
"46",46,"Alien5.bmp",94,"R","",NA,"None",NA,6,1,"ptt_a_001","H"
"47",47,"Alien5.bmp",95,"R","",NA,"None",NA,6,1,"ptt_a_001","H"
"48",48,"Alien1.bmp",96,"R","",NA,"None",NA,6,1,"ptt_a_001","H"
"49",49,"blank.png",0,"B","",NA,"None",NA,6,1,"ptt_a_001","H"
"50",50,"blank.png",0,"B","",NA,"None",NA,6,1,"ptt_a_001","H"
"51",51,"blank.png",0,"B","",NA,"None",NA,6,1,"ptt_a_001","H"
"52",52,"blank.png",0,"B","",NA,"None",NA,6,1,"ptt_a_001","H"
"53",53,"blank.png",0,"B","",NA,"None",NA,6,1,"ptt_a_001","H"
"54",54,"blank.png",0,"B","",NA,"None",NA,6,1,"ptt_a_001","H"
"55",55,"blank.png",0,"B","",NA,"None",NA,6,1,"ptt_a_001","H"
"56",56,"blank.png",0,"B","",NA,"None",NA,6,1,"ptt_a_001","H"
"57",57,"blank.png",0,"B","",NA,"None",NA,6,1,"ptt_a_001","H"
"58",58,"blank.png",0,"B","",NA,"None",NA,6,1,"ptt_a_001","H"
"59",59,"blank.png",0,"B","",NA,"None",NA,6,1,"ptt_a_001","H"
"60",60,"blank.png",0,"B","",NA,"None",NA,6,1,"ptt_a_001","H"
"61",61,"blank.png",0,"B","None",0.425375246,"",NA,6,1,"ptt_a_001","H"
"62",62,"blank.png",0,"B","",NA,"",NA,6,1,"ptt_a_001","H"
"63",63,"blank.png",0,"B","",NA,"",NA,6,1,"ptt_a_001","H"
"64",64,"blank.png",0,"B","",NA,"",NA,6,1,"ptt_a_001","H"
"65",65,"blank.png",0,"B","",NA,"",NA,6,1,"ptt_a_001","H"
"66",66,"blank.png",0,"B","",NA,"",NA,6,1,"ptt_a_001","H"
"67",67,"blank.png",0,"B","",NA,"",NA,6,1,"ptt_a_001","H"
"68",68,"blank.png",0,"B","",NA,"",NA,6,1,"ptt_a_001","H"
"69",69,"blank.png",0,"B","",NA,"",NA,6,1,"ptt_a_001","H"
"70",70,"blank.png",0,"B","",NA,"",NA,6,1,"ptt_a_001","H"
"71",71,"blank.png",0,"B","",NA,"",NA,6,1,"ptt_a_001","H"
"72",72,"blank.png",0,"B","",NA,"",NA,6,1,"ptt_a_001","H"
"73",73,"blank.png",0,"B","4",0.358603013,"",NA,6,1,"ptt_a_001","H"
"74",74,"blank.png",0,"B","",NA,"",NA,6,1,"ptt_a_001","H"
"75",75,"blank.png",0,"B","",NA,"",NA,6,1,"ptt_a_001","H"
"76",76,"blank.png",0,"B","",NA,"",NA,6,1,"ptt_a_001","H"
"77",77,"blank.png",0,"B","",NA,"",NA,6,1,"ptt_a_001","H"
"78",78,"blank.png",0,"B","",NA,"",NA,6,1,"ptt_a_001","H"
"79",79,"blank.png",0,"B","",NA,"",NA,6,1,"ptt_a_001","H"
"80",80,"blank.png",0,"B","",NA,"",NA,6,1,"ptt_a_001","H"
"81",81,"blank.png",0,"B","",NA,"",NA,6,1,"ptt_a_001","H"
"82",82,"blank.png",0,"B","",NA,"",NA,6,1,"ptt_a_001","H"
"83",83,"blank.png",0,"B","",NA,"",NA,6,1,"ptt_a_001","H"
"84",84,"blank.png",0,"B","",NA,"",NA,6,1,"ptt_a_001","H"
"85",85,"Alien7.bmp",97,"R","",NA,"None",NA,6,1,"ptt_a_001","H"
"86",86,"Alien4.bmp",98,"R","",NA,"None",NA,6,1,"ptt_a_001","H"
"87",87,"Alien9.bmp",99,"R","",NA,"None",NA,6,1,"ptt_a_001","H"
"88",88,"Alien11.bmp",100,"R","",NA,"None",NA,6,1,"ptt_a_001","H"
"89",89,"Alien3.bmp",101,"R","",NA,"None",NA,6,1,"ptt_a_001","H"
"90",90,"Alien5.bmp",102,"R","",NA,"None",NA,6,1,"ptt_a_001","H"
"91",91,"Alien8.bmp",103,"R","",NA,"None",NA,6,1,"ptt_a_001","H"
"92",92,"Alien12.bmp",104,"R","",NA,"None",NA,6,1,"ptt_a_001","H"
"93",93,"Alien9.bmp",105,"R","",NA,"None",NA,6,1,"ptt_a_001","H"
"94",94,"Alien8.bmp",106,"R","",NA,"None",NA,6,1,"ptt_a_001","H"
"95",95,"Alien5.bmp",107,"R","",NA,"None",NA,6,1,"ptt_a_001","H"
"96",96,"Alien1.bmp",108,"R","",NA,"None",NA,6,1,"ptt_a_001","H"
"97",97,"Alien10.bmp",109,"R","",NA,"None",NA,6,1,"ptt_a_001","H"
"98",98,"Alien12.bmp",110,"R","",NA,"None",NA,6,1,"ptt_a_001","H"
"99",99,"Alien2.bmp",111,"R","",NA,"None",NA,6,1,"ptt_a_001","H"
"100",100,"Alien10.bmp",112,"R","",NA,"None",NA,6,1,"ptt_a_001","H"
"101",101,"Alien7.bmp",113,"R","",NA,"None",NA,6,1,"ptt_a_001","H"
"102",102,"Alien6.bmp",114,"R","",NA,"4",0.45054575,6,1,"ptt_a_001","H"
"103",103,"Alien2.bmp",115,"R","",NA,"None",NA,6,1,"ptt_a_001","H"
"104",104,"Alien4.bmp",116,"R","",NA,"None",NA,6,1,"ptt_a_001","H"
"105",105,"Alien6.bmp",117,"R","",NA,"4",0.350368341,6,1,"ptt_a_001","H"
"106",106,"Alien3.bmp",118,"R","",NA,"None",NA,6,1,"ptt_a_001","H"
"107",107,"Alien1.bmp",119,"R","",NA,"None",NA,6,1,"ptt_a_001","H"
"108",108,"Alien11.bmp",120,"R","",NA,"None",NA,6,1,"ptt_a_001","H"
"109",109,"Alien1.bmp",121,"R","",NA,"None",NA,6,1,"ptt_a_001","H"
"110",110,"Alien7.bmp",122,"R","",NA,"4",0.375427058,6,1,"ptt_a_001","H"
"111",111,"Alien12.bmp",123,"R","",NA,"None",NA,6,1,"ptt_a_001","H"
"112",112,"Alien4.bmp",124,"R","",NA,"None",NA,6,1,"ptt_a_001","H"
"113",113,"Alien1.bmp",125,"R","",NA,"None",NA,6,1,"ptt_a_001","H"
"114",114,"Alien5.bmp",126,"R","",NA,"None",NA,6,1,"ptt_a_001","H"
"115",115,"Alien3.bmp",127,"R","",NA,"None",NA,6,1,"ptt_a_001","H"
"116",116,"Alien7.bmp",128,"R","",NA,"None",NA,6,1,"ptt_a_001","H"
"117",117,"Alien8.bmp",129,"R","",NA,"None",NA,6,1,"ptt_a_001","H"
"118",118,"Alien6.bmp",130,"R","",NA,"4",0.483704311,6,1,"ptt_a_001","H"
"119",119,"Alien3.bmp",131,"R","",NA,"None",NA,6,1,"ptt_a_001","H"
"120",120,"Alien2.bmp",132,"R","",NA,"None",NA,6,1,"ptt_a_001","H"
"121",121,"Alien10.bmp",133,"R","",NA,"None",NA,6,1,"ptt_a_001","H"
"122",122,"Alien2.bmp",134,"R","",NA,"None",NA,6,1,"ptt_a_001","H"
"123",123,"Alien9.bmp",135,"R","",NA,"None",NA,6,1,"ptt_a_001","H"
"124",124,"Alien2.bmp",136,"R","",NA,"None",NA,6,1,"ptt_a_001","H"
"125",125,"Alien9.bmp",137,"R","",NA,"None",NA,6,1,"ptt_a_001","H"
"126",126,"Alien1.bmp",138,"R","",NA,"None",NA,6,1,"ptt_a_001","H"
"127",127,"Alien11.bmp",139,"R","",NA,"None",NA,6,1,"ptt_a_001","H"
"128",128,"Alien8.bmp",140,"R","",NA,"None",NA,6,1,"ptt_a_001","H"
"129",129,"Alien11.bmp",141,"R","",NA,"None",NA,6,1,"ptt_a_001","H"
"130",130,"Alien6.bmp",142,"R","",NA,"4",0.583740919,6,1,"ptt_a_001","H"
"131",131,"Alien12.bmp",143,"R","",NA,"None",NA,6,1,"ptt_a_001","H"
"132",132,"Alien10.bmp",144,"R","",NA,"None",NA,6,1,"ptt_a_001","H"
"133",133,"blank.png",0,"B","",NA,"None",NA,6,1,"ptt_a_001","H"
"134",134,"blank.png",0,"B","",NA,"None",NA,6,1,"ptt_a_001","H"
"135",135,"blank.png",0,"B","",NA,"None",NA,6,1,"ptt_a_001","H"
"136",136,"blank.png",0,"B","",NA,"None",NA,6,1,"ptt_a_001","H"
"137",137,"blank.png",0,"B","",NA,"None",NA,6,1,"ptt_a_001","H"
"138",138,"blank.png",0,"B","",NA,"None",NA,6,1,"ptt_a_001","H"
"139",139,"blank.png",0,"B","",NA,"None",NA,6,1,"ptt_a_001","H"
"140",140,"blank.png",0,"B","",NA,"None",NA,6,1,"ptt_a_001","H"
"141",141,"blank.png",0,"B","",NA,"None",NA,6,1,"ptt_a_001","H"
"142",142,"blank.png",0,"B","",NA,"None",NA,6,1,"ptt_a_001","H"
"143",143,"blank.png",0,"B","",NA,"None",NA,6,1,"ptt_a_001","H"
"144",144,"blank.png",0,"B","",NA,"None",NA,6,1,"ptt_a_001","H"
"145",145,"blank.png",0,"B","None",0.375281138,"",NA,6,1,"ptt_a_001","H"
"146",146,"blank.png",0,"B","",NA,"",NA,6,1,"ptt_a_001","H"
"147",147,"blank.png",0,"B","",NA,"",NA,6,1,"ptt_a_001","H"
"148",148,"blank.png",0,"B","",NA,"",NA,6,1,"ptt_a_001","H"
"149",149,"blank.png",0,"B","",NA,"",NA,6,1,"ptt_a_001","H"
"150",150,"blank.png",0,"B","",NA,"",NA,6,1,"ptt_a_001","H"
"151",151,"blank.png",0,"B","",NA,"",NA,6,1,"ptt_a_001","H"
"152",152,"blank.png",0,"B","",NA,"",NA,6,1,"ptt_a_001","H"
"153",153,"blank.png",0,"B","",NA,"",NA,6,1,"ptt_a_001","H"
"154",154,"blank.png",0,"B","",NA,"",NA,6,1,"ptt_a_001","H"
"155",155,"blank.png",0,"B","",NA,"",NA,6,1,"ptt_a_001","H"
"156",156,"blank.png",0,"B","",NA,"",NA,6,1,"ptt_a_001","H"
"157",157,"Alien9.bmp",1,"R","",NA,"None",NA,6,1,"ptt_a_001","H"
"158",158,"Alien6.bmp",2,"R","",NA,"4",0.400414948,6,1,"ptt_a_001","H"
"159",159,"Alien5.bmp",3,"R","",NA,"None",NA,6,1,"ptt_a_001","H"
"160",160,"Alien12.bmp",4,"R","",NA,"None",NA,6,1,"ptt_a_001","H"
"161",161,"Alien2.bmp",5,"R","",NA,"None",NA,6,1,"ptt_a_001","H"
"162",162,"Alien3.bmp",6,"R","",NA,"None",NA,6,1,"ptt_a_001","H"
"163",163,"Alien5.bmp",7,"R","",NA,"None",NA,6,1,"ptt_a_001","H"
"164",164,"Alien11.bmp",8,"R","",NA,"None",NA,6,1,"ptt_a_001","H"
"165",165,"Alien8.bmp",9,"R","",NA,"None",NA,6,1,"ptt_a_001","H"
"166",166,"Alien4.bmp",10,"R","",NA,"None",NA,6,1,"ptt_a_001","H"
"167",167,"Alien12.bmp",11,"R","",NA,"None",NA,6,1,"ptt_a_001","H"
"168",168,"Alien10.bmp",12,"R","",NA,"None",NA,6,1,"ptt_a_001","H"
"169",169,"Alien6.bmp",13,"R","",NA,"4",0.44220498,6,1,"ptt_a_001","H"
"170",170,"Alien5.bmp",14,"R","",NA,"None",NA,6,1,"ptt_a_001","H"
"171",171,"Alien1.bmp",15,"R","",NA,"None",NA,6,1,"ptt_a_001","H"
"172",172,"Alien1.bmp",16,"R","",NA,"None",NA,6,1,"ptt_a_001","H"
"173",173,"Alien11.bmp",17,"R","",NA,"None",NA,6,1,"ptt_a_001","H"
"174",174,"Alien10.bmp",18,"R","",NA,"None",NA,6,1,"ptt_a_001","H"
"175",175,"Alien3.bmp",19,"R","",NA,"None",NA,6,1,"ptt_a_001","H"
"176",176,"Alien2.bmp",20,"R","",NA,"None",NA,6,1,"ptt_a_001","H"
"177",177,"Alien6.bmp",21,"R","",NA,"4",0.455931139,6,1,"ptt_a_001","H"
"178",178,"Alien4.bmp",22,"R","",NA,"None",NA,6,1,"ptt_a_001","H"
"179",179,"Alien7.bmp",23,"R","",NA,"None",NA,6,1,"ptt_a_001","H"
"180",180,"Alien4.bmp",24,"R","",NA,"None",NA,6,1,"ptt_a_001","H"
"181",181,"Alien8.bmp",25,"R","",NA,"None",NA,6,1,"ptt_a_001","H"
"182",182,"Alien6.bmp",26,"R","",NA,"4",0.450398976,6,1,"ptt_a_001","H"
"183",183,"Alien5.bmp",27,"R","",NA,"None",NA,6,1,"ptt_a_001","H"
"184",184,"Alien8.bmp",28,"R","",NA,"None",NA,6,1,"ptt_a_001","H"
"185",185,"Alien6.bmp",29,"R","",NA,"4",0.383722032,6,1,"ptt_a_001","H"
"186",186,"Alien5.bmp",30,"R","",NA,"None",NA,6,1,"ptt_a_001","H"
"187",187,"Alien10.bmp",31,"R","",NA,"None",NA,6,1,"ptt_a_001","H"
"188",188,"Alien12.bmp",32,"R","",NA,"None",NA,6,1,"ptt_a_001","H"
"189",189,"Alien2.bmp",33,"R","",NA,"None",NA,6,1,"ptt_a_001","H"
"190",190,"Alien11.bmp",34,"R","",NA,"None",NA,6,1,"ptt_a_001","H"
"191",191,"Alien7.bmp",35,"R","",NA,"None",NA,6,1,"ptt_a_001","H"
"192",192,"Alien9.bmp",36,"R","",NA,"None",NA,6,1,"ptt_a_001","H"
"193",193,"Alien4.bmp",37,"R","",NA,"None",NA,6,1,"ptt_a_001","H"
"194",194,"Alien12.bmp",38,"R","",NA,"None",NA,6,1,"ptt_a_001","H"
"195",195,"Alien8.bmp",39,"R","",NA,"None",NA,6,1,"ptt_a_001","H"
"196",196,"Alien11.bmp",40,"R","",NA,"None",NA,6,1,"ptt_a_001","H"
"197",197,"Alien3.bmp",41,"R","",NA,"None",NA,6,1,"ptt_a_001","H"
"198",198,"Alien9.bmp",42,"R","",NA,"None",NA,6,1,"ptt_a_001","H"
"199",199,"Alien4.bmp",43,"R","",NA,"None",NA,6,1,"ptt_a_001","H"
"200",200,"Alien1.bmp",44,"R","",NA,"None",NA,6,1,"ptt_a_001","H"
"201",201,"Alien10.bmp",45,"R","",NA,"None",NA,6,1,"ptt_a_001","H"
"202",202,"Alien7.bmp",46,"R","",NA,"None",NA,6,1,"ptt_a_001","H"
"203",203,"Alien7.bmp",47,"R","",NA,"None",NA,6,1,"ptt_a_001","H"
"204",204,"Alien9.bmp",48,"R","",NA,"None",NA,6,1,"ptt_a_001","H"
"205",205,"blank.png",0,"B","",NA,"None",NA,6,1,"ptt_a_001","H"
"206",206,"blank.png",0,"B","",NA,"None",NA,6,1,"ptt_a_001","H"
"207",207,"blank.png",0,"B","",NA,"None",NA,6,1,"ptt_a_001","H"
"208",208,"blank.png",0,"B","",NA,"None",NA,6,1,"ptt_a_001","H"
"209",209,"blank.png",0,"B","",NA,"None",NA,6,1,"ptt_a_001","H"
"210",210,"blank.png",0,"B","",NA,"None",NA,6,1,"ptt_a_001","H"
"211",211,"blank.png",0,"B","",NA,"None",NA,6,1,"ptt_a_001","H"
"212",212,"blank.png",0,"B","",NA,"None",NA,6,1,"ptt_a_001","H"
"213",213,"blank.png",0,"B","",NA,"None",NA,6,1,"ptt_a_001","H"
"214",214,"blank.png",0,"B","",NA,"None",NA,6,1,"ptt_a_001","H"
"215",215,"blank.png",0,"B","",NA,"None",NA,6,1,"ptt_a_001","H"
"216",216,"blank.png",0,"B","",NA,"None",NA,6,1,"ptt_a_001","H"
"217",1,"blank.png",0,"B","4",0.575497998449,"",NA,6,2,"ptt_a_001","H"
"218",2,"blank.png",0,"B","",NA,"",NA,6,2,"ptt_a_001","H"
"219",3,"blank.png",0,"B","",NA,"",NA,6,2,"ptt_a_001","H"
"220",4,"blank.png",0,"B","",NA,"",NA,6,2,"ptt_a_001","H"
"221",5,"blank.png",0,"B","",NA,"",NA,6,2,"ptt_a_001","H"
"222",6,"blank.png",0,"B","",NA,"",NA,6,2,"ptt_a_001","H"
"223",7,"blank.png",0,"B","",NA,"",NA,6,2,"ptt_a_001","H"
"224",8,"blank.png",0,"B","",NA,"",NA,6,2,"ptt_a_001","H"
"225",9,"blank.png",0,"B","",NA,"",NA,6,2,"ptt_a_001","H"
"226",10,"blank.png",0,"B","",NA,"",NA,6,2,"ptt_a_001","H"
"227",11,"blank.png",0,"B","",NA,"",NA,6,2,"ptt_a_001","H"
"228",12,"blank.png",0,"B","",NA,"",NA,6,2,"ptt_a_001","H"
"229",13,"Alien10.bmp",241,"R","",NA,"None",NA,6,2,"ptt_a_001","H"
"230",14,"Alien8.bmp",242,"R","",NA,"None",NA,6,2,"ptt_a_001","H"
"231",15,"Alien9.bmp",243,"R","",NA,"None",NA,6,2,"ptt_a_001","H"
"232",16,"Alien8.bmp",244,"R","",NA,"None",NA,6,2,"ptt_a_001","H"
"233",17,"Alien4.bmp",245,"R","",NA,"None",NA,6,2,"ptt_a_001","H"
"234",18,"Alien7.bmp",246,"R","",NA,"None",NA,6,2,"ptt_a_001","H"
"235",19,"Alien5.bmp",247,"R","",NA,"None",NA,6,2,"ptt_a_001","H"
"236",20,"Alien4.bmp",248,"R","",NA,"None",NA,6,2,"ptt_a_001","H"
"237",21,"Alien8.bmp",249,"R","",NA,"None",NA,6,2,"ptt_a_001","H"
"238",22,"Alien2.bmp",250,"R","",NA,"None",NA,6,2,"ptt_a_001","H"
"239",23,"Alien12.bmp",251,"R","",NA,"None",NA,6,2,"ptt_a_001","H"
"240",24,"Alien12.bmp",252,"R","",NA,"None",NA,6,2,"ptt_a_001","H"
"241",25,"Alien6.bmp",253,"R","",NA,"4",0.442221762729,6,2,"ptt_a_001","H"
"242",26,"Alien7.bmp",254,"R","",NA,"None",NA,6,2,"ptt_a_001","H"
"243",27,"Alien9.bmp",255,"R","",NA,"None",NA,6,2,"ptt_a_001","H"
"244",28,"Alien10.bmp",256,"R","",NA,"None",NA,6,2,"ptt_a_001","H"
"245",29,"Alien3.bmp",257,"R","",NA,"None",NA,6,2,"ptt_a_001","H"
"246",30,"Alien11.bmp",258,"R","",NA,"None",NA,6,2,"ptt_a_001","H"
"247",31,"Alien9.bmp",259,"R","",NA,"None",NA,6,2,"ptt_a_001","H"
"248",32,"Alien6.bmp",260,"R","",NA,"4",0.492315586715,6,2,"ptt_a_001","H"
"249",33,"Alien7.bmp",261,"R","",NA,"None",NA,6,2,"ptt_a_001","H"
"250",34,"Alien1.bmp",262,"R","",NA,"None",NA,6,2,"ptt_a_001","H"
"251",35,"Alien11.bmp",263,"R","",NA,"None",NA,6,2,"ptt_a_001","H"
"252",36,"Alien5.bmp",264,"R","",NA,"None",NA,6,2,"ptt_a_001","H"
"253",37,"Alien11.bmp",265,"R","",NA,"None",NA,6,2,"ptt_a_001","H"
"254",38,"Alien6.bmp",266,"R","",NA,"4",0.767141698627,6,2,"ptt_a_001","H"
"255",39,"Alien10.bmp",267,"R","",NA,"None",NA,6,2,"ptt_a_001","H"
"256",40,"Alien4.bmp",268,"R","",NA,"None",NA,6,2,"ptt_a_001","H"
"257",41,"Alien11.bmp",269,"R","",NA,"None",NA,6,2,"ptt_a_001","H"
"258",42,"Alien6.bmp",270,"R","",NA,"4",0.483712844085,6,2,"ptt_a_001","H"
"259",43,"Alien2.bmp",271,"R","",NA,"None",NA,6,2,"ptt_a_001","H"
"260",44,"Alien12.bmp",272,"R","",NA,"None",NA,6,2,"ptt_a_001","H"
"261",45,"Alien12.bmp",273,"R","",NA,"None",NA,6,2,"ptt_a_001","H"
"262",46,"Alien4.bmp",274,"R","",NA,"None",NA,6,2,"ptt_a_001","H"
"263",47,"Alien3.bmp",275,"R","",NA,"None",NA,6,2,"ptt_a_001","H"
"264",48,"Alien9.bmp",276,"R","",NA,"None",NA,6,2,"ptt_a_001","H"
"265",49,"Alien2.bmp",277,"R","",NA,"None",NA,6,2,"ptt_a_001","H"
"266",50,"Alien8.bmp",278,"R","",NA,"None",NA,6,2,"ptt_a_001","H"
"267",51,"Alien5.bmp",279,"R","",NA,"None",NA,6,2,"ptt_a_001","H"
"268",52,"Alien4.bmp",280,"R","",NA,"None",NA,6,2,"ptt_a_001","H"
"269",53,"Alien3.bmp",281,"R","",NA,"None",NA,6,2,"ptt_a_001","H"
"270",54,"Alien1.bmp",282,"R","",NA,"None",NA,6,2,"ptt_a_001","H"
"271",55,"Alien1.bmp",283,"R","",NA,"None",NA,6,2,"ptt_a_001","H"
"272",56,"Alien7.bmp",284,"R","",NA,"None",NA,6,2,"ptt_a_001","H"
"273",57,"Alien6.bmp",285,"R","",NA,"4",0.517403032107,6,2,"ptt_a_001","H"
"274",58,"Alien5.bmp",286,"R","",NA,"None",NA,6,2,"ptt_a_001","H"
"275",59,"Alien10.bmp",287,"R","",NA,"None",NA,6,2,"ptt_a_001","H"
"276",60,"Alien5.bmp",288,"R","",NA,"None",NA,6,2,"ptt_a_001","H"
"277",61,"blank.png",0,"B","",NA,"None",NA,6,2,"ptt_a_001","H"
"278",62,"blank.png",0,"B","",NA,"None",NA,6,2,"ptt_a_001","H"
"279",63,"blank.png",0,"B","",NA,"None",NA,6,2,"ptt_a_001","H"
"280",64,"blank.png",0,"B","",NA,"None",NA,6,2,"ptt_a_001","H"
"281",65,"blank.png",0,"B","",NA,"None",NA,6,2,"ptt_a_001","H"
"282",66,"blank.png",0,"B","",NA,"None",NA,6,2,"ptt_a_001","H"
"283",67,"blank.png",0,"B","",NA,"None",NA,6,2,"ptt_a_001","H"
"284",68,"blank.png",0,"B","",NA,"None",NA,6,2,"ptt_a_001","H"
"285",69,"blank.png",0,"B","",NA,"None",NA,6,2,"ptt_a_001","H"
"286",70,"blank.png",0,"B","",NA,"None",NA,6,2,"ptt_a_001","H"
"287",71,"blank.png",0,"B","",NA,"None",NA,6,2,"ptt_a_001","H"
"288",72,"blank.png",0,"B","",NA,"None",NA,6,2,"ptt_a_001","H"
"289",73,"blank.png",0,"B","None",0.341941385646,"",NA,6,2,"ptt_a_001","H"
"290",74,"blank.png",0,"B","",NA,"",NA,6,2,"ptt_a_001","H"
"291",75,"blank.png",0,"B","",NA,"",NA,6,2,"ptt_a_001","H"
"292",76,"blank.png",0,"B","",NA,"",NA,6,2,"ptt_a_001","H"
"293",77,"blank.png",0,"B","",NA,"",NA,6,2,"ptt_a_001","H"
"294",78,"blank.png",0,"B","",NA,"",NA,6,2,"ptt_a_001","H"
"295",79,"blank.png",0,"B","",NA,"",NA,6,2,"ptt_a_001","H"
"296",80,"blank.png",0,"B","",NA,"",NA,6,2,"ptt_a_001","H"
"297",81,"blank.png",0,"B","",NA,"",NA,6,2,"ptt_a_001","H"
"298",82,"blank.png",0,"B","",NA,"",NA,6,2,"ptt_a_001","H"
"299",83,"blank.png",0,"B","",NA,"",NA,6,2,"ptt_a_001","H"
"300",84,"blank.png",0,"B","",NA,"",NA,6,2,"ptt_a_001","H"
"301",85,"Alien12.bmp",193,"R","",NA,"None",NA,6,2,"ptt_a_001","H"
"302",86,"Alien1.bmp",194,"R","",NA,"None",NA,6,2,"ptt_a_001","H"
"303",87,"Alien1.bmp",195,"R","",NA,"None",NA,6,2,"ptt_a_001","H"
"304",88,"Alien2.bmp",196,"R","",NA,"None",NA,6,2,"ptt_a_001","H"
"305",89,"Alien7.bmp",197,"R","",NA,"None",NA,6,2,"ptt_a_001","H"
"306",90,"Alien8.bmp",198,"R","",NA,"None",NA,6,2,"ptt_a_001","H"
"307",91,"Alien3.bmp",199,"R","",NA,"None",NA,6,2,"ptt_a_001","H"
"308",92,"Alien5.bmp",200,"R","",NA,"None",NA,6,2,"ptt_a_001","H"
"309",93,"Alien2.bmp",201,"R","",NA,"None",NA,6,2,"ptt_a_001","H"
"310",94,"Alien4.bmp",202,"R","",NA,"None",NA,6,2,"ptt_a_001","H"
"311",95,"Alien9.bmp",203,"R","",NA,"None",NA,6,2,"ptt_a_001","H"
"312",96,"Alien6.bmp",204,"R","",NA,"4",0.542129801703,6,2,"ptt_a_001","H"
"313",97,"Alien3.bmp",205,"R","",NA,"None",NA,6,2,"ptt_a_001","H"
"314",98,"Alien11.bmp",206,"R","",NA,"None",NA,6,2,"ptt_a_001","H"
"315",99,"Alien10.bmp",207,"R","",NA,"None",NA,6,2,"ptt_a_001","H"
"316",100,"Alien4.bmp",208,"R","",NA,"None",NA,6,2,"ptt_a_001","H"
"317",101,"Alien8.bmp",209,"R","",NA,"None",NA,6,2,"ptt_a_001","H"
"318",102,"Alien5.bmp",210,"R","",NA,"None",NA,6,2,"ptt_a_001","H"
"319",103,"Alien9.bmp",211,"R","",NA,"None",NA,6,2,"ptt_a_001","H"
"320",104,"Alien11.bmp",212,"R","",NA,"None",NA,6,2,"ptt_a_001","H"
"321",105,"Alien7.bmp",213,"R","",NA,"None",NA,6,2,"ptt_a_001","H"
"322",106,"Alien10.bmp",214,"R","",NA,"None",NA,6,2,"ptt_a_001","H"
"323",107,"Alien6.bmp",215,"R","",NA,"4",0.475423843774,6,2,"ptt_a_001","H"
"324",108,"Alien12.bmp",216,"R","",NA,"None",NA,6,2,"ptt_a_001","H"
"325",109,"Alien7.bmp",217,"R","",NA,"None",NA,6,2,"ptt_a_001","H"
"326",110,"Alien5.bmp",218,"R","",NA,"None",NA,6,2,"ptt_a_001","H"
"327",111,"Alien2.bmp",219,"R","",NA,"None",NA,6,2,"ptt_a_001","H"
"328",112,"Alien4.bmp",220,"R","",NA,"None",NA,6,2,"ptt_a_001","H"
"329",113,"Alien5.bmp",221,"R","",NA,"None",NA,6,2,"ptt_a_001","H"
"330",114,"Alien11.bmp",222,"R","",NA,"None",NA,6,2,"ptt_a_001","H"
"331",115,"Alien11.bmp",223,"R","",NA,"None",NA,6,2,"ptt_a_001","H"
"332",116,"Alien12.bmp",224,"R","",NA,"None",NA,6,2,"ptt_a_001","H"
"333",117,"Alien9.bmp",225,"R","",NA,"None",NA,6,2,"ptt_a_001","H"
"334",118,"Alien4.bmp",226,"R","",NA,"None",NA,6,2,"ptt_a_001","H"
"335",119,"Alien8.bmp",227,"R","",NA,"None",NA,6,2,"ptt_a_001","H"
"336",120,"Alien9.bmp",228,"R","",NA,"None",NA,6,2,"ptt_a_001","H"
"337",121,"Alien6.bmp",229,"R","",NA,"4",0.541977339424,6,2,"ptt_a_001","H"
"338",122,"Alien10.bmp",230,"R","",NA,"None",NA,6,2,"ptt_a_001","H"
"339",123,"Alien3.bmp",231,"R","",NA,"None",NA,6,2,"ptt_a_001","H"
"340",124,"Alien12.bmp",232,"R","",NA,"None",NA,6,2,"ptt_a_001","H"
"341",125,"Alien6.bmp",233,"R","",NA,"4",0.475395114918,6,2,"ptt_a_001","H"
"342",126,"Alien3.bmp",234,"R","",NA,"None",NA,6,2,"ptt_a_001","H"
"343",127,"Alien8.bmp",235,"R","",NA,"None",NA,6,2,"ptt_a_001","H"
"344",128,"Alien2.bmp",236,"R","",NA,"None",NA,6,2,"ptt_a_001","H"
"345",129,"Alien7.bmp",237,"R","",NA,"None",NA,6,2,"ptt_a_001","H"
"346",130,"Alien1.bmp",238,"R","",NA,"None",NA,6,2,"ptt_a_001","H"
"347",131,"Alien1.bmp",239,"R","",NA,"None",NA,6,2,"ptt_a_001","H"
"348",132,"Alien10.bmp",240,"R","",NA,"None",NA,6,2,"ptt_a_001","H"
"349",133,"blank.png",0,"B","",NA,"None",NA,6,2,"ptt_a_001","H"
"350",134,"blank.png",0,"B","",NA,"None",NA,6,2,"ptt_a_001","H"
"351",135,"blank.png",0,"B","",NA,"None",NA,6,2,"ptt_a_001","H"
"352",136,"blank.png",0,"B","",NA,"None",NA,6,2,"ptt_a_001","H"
"353",137,"blank.png",0,"B","",NA,"None",NA,6,2,"ptt_a_001","H"
"354",138,"blank.png",0,"B","",NA,"None",NA,6,2,"ptt_a_001","H"
"355",139,"blank.png",0,"B","",NA,"None",NA,6,2,"ptt_a_001","H"
"356",140,"blank.png",0,"B","",NA,"None",NA,6,2,"ptt_a_001","H"
"357",141,"blank.png",0,"B","",NA,"None",NA,6,2,"ptt_a_001","H"
"358",142,"blank.png",0,"B","",NA,"None",NA,6,2,"ptt_a_001","H"
"359",143,"blank.png",0,"B","",NA,"None",NA,6,2,"ptt_a_001","H"
"360",144,"blank.png",0,"B","",NA,"None",NA,6,2,"ptt_a_001","H"
"361",145,"Alien1.bmp",145,"R","",NA,"None",NA,6,2,"ptt_a_001","H"
"362",146,"Alien6.bmp",146,"R","",NA,"4",0.425324615266,6,2,"ptt_a_001","H"
"363",147,"Alien6.bmp",147,"R","",NA,"4",0.508750227222,6,2,"ptt_a_001","H"
"364",148,"Alien2.bmp",148,"R","",NA,"None",NA,6,2,"ptt_a_001","H"
"365",149,"Alien3.bmp",149,"R","",NA,"None",NA,6,2,"ptt_a_001","H"
"366",150,"Alien11.bmp",150,"R","",NA,"None",NA,6,2,"ptt_a_001","H"
"367",151,"Alien7.bmp",151,"R","",NA,"None",NA,6,2,"ptt_a_001","H"
"368",152,"Alien5.bmp",152,"R","",NA,"None",NA,6,2,"ptt_a_001","H"
"369",153,"Alien5.bmp",153,"R","",NA,"None",NA,6,2,"ptt_a_001","H"
"370",154,"Alien5.bmp",154,"R","",NA,"None",NA,6,2,"ptt_a_001","H"
"371",155,"Alien8.bmp",155,"R","",NA,"None",NA,6,2,"ptt_a_001","H"
"372",156,"Alien7.bmp",156,"R","",NA,"None",NA,6,2,"ptt_a_001","H"
"373",157,"Alien3.bmp",157,"R","",NA,"None",NA,6,2,"ptt_a_001","H"
"374",158,"Alien6.bmp",158,"R","",NA,"4",0.392046871944,6,2,"ptt_a_001","H"
"375",159,"Alien4.bmp",159,"R","",NA,"None",NA,6,2,"ptt_a_001","H"
"376",160,"Alien10.bmp",160,"R","",NA,"None",NA,6,2,"ptt_a_001","H"
"377",161,"Alien1.bmp",161,"R","",NA,"None",NA,6,2,"ptt_a_001","H"
"378",162,"Alien8.bmp",162,"R","",NA,"4",0.492185880023,6,2,"ptt_a_001","H"
"379",163,"Alien9.bmp",163,"R","",NA,"None",NA,6,2,"ptt_a_001","H"
"380",164,"Alien9.bmp",164,"R","",NA,"None",NA,6,2,"ptt_a_001","H"
"381",165,"Alien2.bmp",165,"R","",NA,"None",NA,6,2,"ptt_a_001","H"
"382",166,"Alien4.bmp",166,"R","",NA,"None",NA,6,2,"ptt_a_001","H"
"383",167,"Alien12.bmp",167,"R","",NA,"None",NA,6,2,"ptt_a_001","H"
"384",168,"Alien4.bmp",168,"R","",NA,"None",NA,6,2,"ptt_a_001","H"
"385",169,"Alien12.bmp",169,"R","",NA,"None",NA,6,2,"ptt_a_001","H"
"386",170,"Alien1.bmp",170,"R","",NA,"None",NA,6,2,"ptt_a_001","H"
"387",171,"Alien7.bmp",171,"R","",NA,"None",NA,6,2,"ptt_a_001","H"
"388",172,"Alien5.bmp",172,"R","",NA,"None",NA,6,2,"ptt_a_001","H"
"389",173,"Alien12.bmp",173,"R","",NA,"None",NA,6,2,"ptt_a_001","H"
"390",174,"Alien4.bmp",174,"R","",NA,"None",NA,6,2,"ptt_a_001","H"
"391",175,"Alien8.bmp",175,"R","",NA,"None",NA,6,2,"ptt_a_001","H"
"392",176,"Alien6.bmp",176,"R","",NA,"4",0.433761526772,6,2,"ptt_a_001","H"
"393",177,"Alien11.bmp",177,"R","",NA,"None",NA,6,2,"ptt_a_001","H"
"394",178,"Alien7.bmp",178,"R","",NA,"None",NA,6,2,"ptt_a_001","H"
"395",179,"Alien1.bmp",179,"R","",NA,"None",NA,6,2,"ptt_a_001","H"
"396",180,"Alien11.bmp",180,"R","",NA,"None",NA,6,2,"ptt_a_001","H"
"397",181,"Alien9.bmp",181,"R","",NA,"None",NA,6,2,"ptt_a_001","H"
"398",182,"Alien10.bmp",182,"R","",NA,"None",NA,6,2,"ptt_a_001","H"
"399",183,"Alien2.bmp",183,"R","",NA,"None",NA,6,2,"ptt_a_001","H"
"400",184,"Alien2.bmp",184,"R","",NA,"None",NA,6,2,"ptt_a_001","H"
"401",185,"Alien8.bmp",185,"R","",NA,"None",NA,6,2,"ptt_a_001","H"
"402",186,"Alien11.bmp",186,"R","",NA,"None",NA,6,2,"ptt_a_001","H"
"403",187,"Alien3.bmp",187,"R","",NA,"None",NA,6,2,"ptt_a_001","H"
"404",188,"Alien3.bmp",188,"R","",NA,"None",NA,6,2,"ptt_a_001","H"
"405",189,"Alien9.bmp",189,"R","",NA,"None",NA,6,2,"ptt_a_001","H"
"406",190,"Alien10.bmp",190,"R","",NA,"None",NA,6,2,"ptt_a_001","H"
"407",191,"Alien10.bmp",191,"R","",NA,"None",NA,6,2,"ptt_a_001","H"
"408",192,"Alien12.bmp",192,"R","",NA,"None",NA,6,2,"ptt_a_001","H"
"409",193,"blank.png",0,"B","",NA,"None",NA,6,2,"ptt_a_001","H"
"410",194,"blank.png",0,"B","",NA,"None",NA,6,2,"ptt_a_001","H"
"411",195,"blank.png",0,"B","",NA,"None",NA,6,2,"ptt_a_001","H"
"412",196,"blank.png",0,"B","",NA,"None",NA,6,2,"ptt_a_001","H"
"413",197,"blank.png",0,"B","",NA,"None",NA,6,2,"ptt_a_001","H"
"414",198,"blank.png",0,"B","",NA,"None",NA,6,2,"ptt_a_001","H"
"415",199,"blank.png",0,"B","",NA,"None",NA,6,2,"ptt_a_001","H"
"416",200,"blank.png",0,"B","",NA,"None",NA,6,2,"ptt_a_001","H"
"417",201,"blank.png",0,"B","",NA,"None",NA,6,2,"ptt_a_001","H"
"418",202,"blank.png",0,"B","",NA,"None",NA,6,2,"ptt_a_001","H"
"419",203,"blank.png",0,"B","",NA,"None",NA,6,2,"ptt_a_001","H"
"420",204,"blank.png",0,"B","",NA,"None",NA,6,2,"ptt_a_001","H"
"421",205,"blank.png",0,"B","None",0.417277677392,"",NA,6,2,"ptt_a_001","H"
"422",206,"blank.png",0,"B","",NA,"",NA,6,2,"ptt_a_001","H"
"423",207,"blank.png",0,"B","",NA,"",NA,6,2,"ptt_a_001","H"
"424",208,"blank.png",0,"B","",NA,"",NA,6,2,"ptt_a_001","H"
"425",209,"blank.png",0,"B","",NA,"",NA,6,2,"ptt_a_001","H"
"426",210,"blank.png",0,"B","",NA,"",NA,6,2,"ptt_a_001","H"
"427",211,"blank.png",0,"B","",NA,"",NA,6,2,"ptt_a_001","H"
"428",212,"blank.png",0,"B","",NA,"",NA,6,2,"ptt_a_001","H"
"429",213,"blank.png",0,"B","",NA,"",NA,6,2,"ptt_a_001","H"
"430",214,"blank.png",0,"B","",NA,"",NA,6,2,"ptt_a_001","H"
"431",215,"blank.png",0,"B","",NA,"",NA,6,2,"ptt_a_001","H"
"432",216,"blank.png",0,"B","",NA,"",NA,6,2,"ptt_a_001","H"
"433",1,"blank.png",0,"B","None",0.64929345384,"",NA,6,3,"ptt_a_001","H"
"434",2,"blank.png",0,"B","",NA,"",NA,6,3,"ptt_a_001","H"
"435",3,"blank.png",0,"B","",NA,"",NA,6,3,"ptt_a_001","H"
"436",4,"blank.png",0,"B","",NA,"",NA,6,3,"ptt_a_001","H"
"437",5,"blank.png",0,"B","",NA,"",NA,6,3,"ptt_a_001","H"
"438",6,"blank.png",0,"B","",NA,"",NA,6,3,"ptt_a_001","H"
"439",7,"blank.png",0,"B","",NA,"",NA,6,3,"ptt_a_001","H"
"440",8,"blank.png",0,"B","",NA,"",NA,6,3,"ptt_a_001","H"
"441",9,"blank.png",0,"B","",NA,"",NA,6,3,"ptt_a_001","H"
"442",10,"blank.png",0,"B","",NA,"",NA,6,3,"ptt_a_001","H"
"443",11,"blank.png",0,"B","",NA,"",NA,6,3,"ptt_a_001","H"
"444",12,"blank.png",0,"B","",NA,"",NA,6,3,"ptt_a_001","H"
"445",13,"Alien1.bmp",49,"S","",NA,"None",NA,6,3,"ptt_a_001","H"
"446",14,"Alien2.bmp",50,"S","",NA,"None",NA,6,3,"ptt_a_001","H"
"447",15,"Alien3.bmp",51,"S","",NA,"None",NA,6,3,"ptt_a_001","H"
"448",16,"Alien10.bmp",52,"S","",NA,"None",NA,6,3,"ptt_a_001","H"
"449",17,"Alien11.bmp",53,"S","",NA,"None",NA,6,3,"ptt_a_001","H"
"450",18,"Alien12.bmp",54,"S","",NA,"None",NA,6,3,"ptt_a_001","H"
"451",19,"Alien4.bmp",55,"S","",NA,"None",NA,6,3,"ptt_a_001","H"
"452",20,"Alien5.bmp",56,"S","",NA,"None",NA,6,3,"ptt_a_001","H"
"453",21,"Alien6.bmp",57,"S","",NA,"4",0.458683425386,6,3,"ptt_a_001","H"
"454",22,"Alien7.bmp",58,"S","",NA,"None",NA,6,3,"ptt_a_001","H"
"455",23,"Alien8.bmp",59,"S","",NA,"None",NA,6,3,"ptt_a_001","H"
"456",24,"Alien9.bmp",60,"S","",NA,"None",NA,6,3,"ptt_a_001","H"
"457",25,"Alien1.bmp",61,"S","",NA,"None",NA,6,3,"ptt_a_001","H"
"458",26,"Alien2.bmp",62,"S","",NA,"None",NA,6,3,"ptt_a_001","H"
"459",27,"Alien3.bmp",63,"S","",NA,"None",NA,6,3,"ptt_a_001","H"
"460",28,"Alien7.bmp",64,"S","",NA,"None",NA,6,3,"ptt_a_001","H"
"461",29,"Alien8.bmp",65,"S","",NA,"None",NA,6,3,"ptt_a_001","H"
"462",30,"Alien9.bmp",66,"S","",NA,"None",NA,6,3,"ptt_a_001","H"
"463",31,"Alien4.bmp",67,"S","",NA,"None",NA,6,3,"ptt_a_001","H"
"464",32,"Alien5.bmp",68,"S","",NA,"None",NA,6,3,"ptt_a_001","H"
"465",33,"Alien6.bmp",69,"S","",NA,"4",0.475343061553,6,3,"ptt_a_001","H"
"466",34,"Alien10.bmp",70,"S","",NA,"None",NA,6,3,"ptt_a_001","H"
"467",35,"Alien11.bmp",71,"S","",NA,"None",NA,6,3,"ptt_a_001","H"
"468",36,"Alien12.bmp",72,"S","",NA,"None",NA,6,3,"ptt_a_001","H"
"469",37,"Alien1.bmp",73,"S","",NA,"None",NA,6,3,"ptt_a_001","H"
"470",38,"Alien2.bmp",74,"S","",NA,"None",NA,6,3,"ptt_a_001","H"
"471",39,"Alien3.bmp",75,"S","",NA,"None",NA,6,3,"ptt_a_001","H"
"472",40,"Alien4.bmp",76,"S","",NA,"None",NA,6,3,"ptt_a_001","H"
"473",41,"Alien5.bmp",77,"S","",NA,"None",NA,6,3,"ptt_a_001","H"
"474",42,"Alien6.bmp",78,"S","",NA,"4",0.525732707989,6,3,"ptt_a_001","H"
"475",43,"Alien7.bmp",79,"S","",NA,"None",NA,6,3,"ptt_a_001","H"
"476",44,"Alien8.bmp",80,"S","",NA,"None",NA,6,3,"ptt_a_001","H"
"477",45,"Alien9.bmp",81,"S","",NA,"None",NA,6,3,"ptt_a_001","H"
"478",46,"Alien10.bmp",82,"S","",NA,"None",NA,6,3,"ptt_a_001","H"
"479",47,"Alien11.bmp",83,"S","",NA,"None",NA,6,3,"ptt_a_001","H"
"480",48,"Alien12.bmp",84,"S","",NA,"None",NA,6,3,"ptt_a_001","H"
"481",49,"Alien1.bmp",85,"S","",NA,"None",NA,6,3,"ptt_a_001","H"
"482",50,"Alien2.bmp",86,"S","",NA,"None",NA,6,3,"ptt_a_001","H"
"483",51,"Alien3.bmp",87,"S","",NA,"None",NA,6,3,"ptt_a_001","H"
"484",52,"Alien7.bmp",88,"S","",NA,"None",NA,6,3,"ptt_a_001","H"
"485",53,"Alien8.bmp",89,"S","",NA,"None",NA,6,3,"ptt_a_001","H"
"486",54,"Alien9.bmp",90,"S","",NA,"None",NA,6,3,"ptt_a_001","H"
"487",55,"Alien4.bmp",91,"S","",NA,"None",NA,6,3,"ptt_a_001","H"
"488",56,"Alien5.bmp",92,"S","",NA,"None",NA,6,3,"ptt_a_001","H"
"489",57,"Alien6.bmp",93,"S","",NA,"4",0.608638639562,6,3,"ptt_a_001","H"
"490",58,"Alien10.bmp",94,"S","",NA,"None",NA,6,3,"ptt_a_001","H"
"491",59,"Alien11.bmp",95,"S","",NA,"None",NA,6,3,"ptt_a_001","H"
"492",60,"Alien12.bmp",96,"S","",NA,"None",NA,6,3,"ptt_a_001","H"
"493",61,"blank.png",0,"B","",NA,"None",NA,6,3,"ptt_a_001","H"
"494",62,"blank.png",0,"B","",NA,"None",NA,6,3,"ptt_a_001","H"
"495",63,"blank.png",0,"B","",NA,"None",NA,6,3,"ptt_a_001","H"
"496",64,"blank.png",0,"B","",NA,"None",NA,6,3,"ptt_a_001","H"
"497",65,"blank.png",0,"B","",NA,"None",NA,6,3,"ptt_a_001","H"
"498",66,"blank.png",0,"B","",NA,"None",NA,6,3,"ptt_a_001","H"
"499",67,"blank.png",0,"B","",NA,"None",NA,6,3,"ptt_a_001","H"
"500",68,"blank.png",0,"B","",NA,"None",NA,6,3,"ptt_a_001","H"
"501",69,"blank.png",0,"B","",NA,"None",NA,6,3,"ptt_a_001","H"
"502",70,"blank.png",0,"B","",NA,"None",NA,6,3,"ptt_a_001","H"
"503",71,"blank.png",0,"B","",NA,"4",0.425962909008,6,3,"ptt_a_001","H"
"504",72,"blank.png",0,"B","",NA,"None",NA,6,3,"ptt_a_001","H"
"505",73,"Alien4.bmp",97,"S","",NA,"None",NA,6,3,"ptt_a_001","H"
"506",74,"Alien5.bmp",98,"S","",NA,"None",NA,6,3,"ptt_a_001","H"
"507",75,"Alien6.bmp",99,"S","",NA,"4",0.467220745806,6,3,"ptt_a_001","H"
"508",76,"Alien1.bmp",100,"S","",NA,"None",NA,6,3,"ptt_a_001","H"
"509",77,"Alien2.bmp",101,"S","",NA,"None",NA,6,3,"ptt_a_001","H"
"510",78,"Alien3.bmp",102,"S","",NA,"None",NA,6,3,"ptt_a_001","H"
"511",79,"Alien7.bmp",103,"S","",NA,"None",NA,6,3,"ptt_a_001","H"
"512",80,"Alien8.bmp",104,"S","",NA,"None",NA,6,3,"ptt_a_001","H"
"513",81,"Alien9.bmp",105,"S","",NA,"None",NA,6,3,"ptt_a_001","H"
"514",82,"Alien10.bmp",106,"S","",NA,"None",NA,6,3,"ptt_a_001","H"
"515",83,"Alien11.bmp",107,"S","",NA,"None",NA,6,3,"ptt_a_001","H"
"516",84,"Alien12.bmp",108,"S","",NA,"None",NA,6,3,"ptt_a_001","H"
"517",85,"Alien1.bmp",109,"S","",NA,"None",NA,6,3,"ptt_a_001","H"
"518",86,"Alien2.bmp",110,"S","",NA,"None",NA,6,3,"ptt_a_001","H"
"519",87,"Alien3.bmp",111,"S","",NA,"None",NA,6,3,"ptt_a_001","H"
"520",88,"Alien4.bmp",112,"S","",NA,"None",NA,6,3,"ptt_a_001","H"
"521",89,"Alien5.bmp",113,"S","",NA,"None",NA,6,3,"ptt_a_001","H"
"522",90,"Alien6.bmp",114,"S","",NA,"4",0.46704296791,6,3,"ptt_a_001","H"
"523",91,"Alien10.bmp",115,"S","",NA,"None",NA,6,3,"ptt_a_001","H"
"524",92,"Alien11.bmp",116,"S","",NA,"None",NA,6,3,"ptt_a_001","H"
"525",93,"Alien12.bmp",117,"S","",NA,"None",NA,6,3,"ptt_a_001","H"
"526",94,"Alien7.bmp",118,"S","",NA,"None",NA,6,3,"ptt_a_001","H"
"527",95,"Alien8.bmp",119,"S","",NA,"None",NA,6,3,"ptt_a_001","H"
"528",96,"Alien9.bmp",120,"S","",NA,"None",NA,6,3,"ptt_a_001","H"
"529",97,"Alien1.bmp",121,"S","",NA,"None",NA,6,3,"ptt_a_001","H"
"530",98,"Alien2.bmp",122,"S","",NA,"None",NA,6,3,"ptt_a_001","H"
"531",99,"Alien3.bmp",123,"S","",NA,"None",NA,6,3,"ptt_a_001","H"
"532",100,"Alien4.bmp",124,"S","",NA,"None",NA,6,3,"ptt_a_001","H"
"533",101,"Alien5.bmp",125,"S","",NA,"None",NA,6,3,"ptt_a_001","H"
"534",102,"Alien6.bmp",126,"S","",NA,"4",0.425633237697,6,3,"ptt_a_001","H"
"535",103,"Alien1.bmp",127,"S","",NA,"None",NA,6,3,"ptt_a_001","H"
"536",104,"Alien2.bmp",128,"S","",NA,"None",NA,6,3,"ptt_a_001","H"
"537",105,"Alien3.bmp",129,"S","",NA,"None",NA,6,3,"ptt_a_001","H"
"538",106,"Alien7.bmp",130,"S","",NA,"None",NA,6,3,"ptt_a_001","H"
"539",107,"Alien8.bmp",131,"S","",NA,"None",NA,6,3,"ptt_a_001","H"
"540",108,"Alien9.bmp",132,"S","",NA,"None",NA,6,3,"ptt_a_001","H"
"541",109,"Alien10.bmp",133,"S","",NA,"None",NA,6,3,"ptt_a_001","H"
"542",110,"Alien11.bmp",134,"S","",NA,"None",NA,6,3,"ptt_a_001","H"
"543",111,"Alien12.bmp",135,"S","",NA,"None",NA,6,3,"ptt_a_001","H"
"544",112,"Alien7.bmp",136,"S","",NA,"None",NA,6,3,"ptt_a_001","H"
"545",113,"Alien8.bmp",137,"S","",NA,"None",NA,6,3,"ptt_a_001","H"
"546",114,"Alien9.bmp",138,"S","",NA,"None",NA,6,3,"ptt_a_001","H"
"547",115,"Alien10.bmp",139,"S","",NA,"None",NA,6,3,"ptt_a_001","H"
"548",116,"Alien11.bmp",140,"S","",NA,"None",NA,6,3,"ptt_a_001","H"
"549",117,"Alien12.bmp",141,"S","",NA,"None",NA,6,3,"ptt_a_001","H"
"550",118,"Alien1.bmp",142,"S","",NA,"None",NA,6,3,"ptt_a_001","H"
"551",119,"Alien2.bmp",143,"S","",NA,"None",NA,6,3,"ptt_a_001","H"
"552",120,"Alien3.bmp",144,"S","",NA,"None",NA,6,3,"ptt_a_001","H"
"553",121,"blank.png",0,"B","",NA,"None",NA,6,3,"ptt_a_001","H"
"554",122,"blank.png",0,"B","",NA,"None",NA,6,3,"ptt_a_001","H"
"555",123,"blank.png",0,"B","",NA,"None",NA,6,3,"ptt_a_001","H"
"556",124,"blank.png",0,"B","",NA,"None",NA,6,3,"ptt_a_001","H"
"557",125,"blank.png",0,"B","",NA,"None",NA,6,3,"ptt_a_001","H"
"558",126,"blank.png",0,"B","",NA,"None",NA,6,3,"ptt_a_001","H"
"559",127,"blank.png",0,"B","",NA,"None",NA,6,3,"ptt_a_001","H"
"560",128,"blank.png",0,"B","",NA,"None",NA,6,3,"ptt_a_001","H"
"561",129,"blank.png",0,"B","",NA,"None",NA,6,3,"ptt_a_001","H"
"562",130,"blank.png",0,"B","",NA,"None",NA,6,3,"ptt_a_001","H"
"563",131,"blank.png",0,"B","",NA,"None",NA,6,3,"ptt_a_001","H"
"564",132,"blank.png",0,"B","",NA,"None",NA,6,3,"ptt_a_001","H"
"565",133,"blank.png",0,"B","None",0.400349525502,"",NA,6,3,"ptt_a_001","H"
"566",134,"blank.png",0,"B","",NA,"",NA,6,3,"ptt_a_001","H"
"567",135,"blank.png",0,"B","",NA,"",NA,6,3,"ptt_a_001","H"
"568",136,"blank.png",0,"B","",NA,"",NA,6,3,"ptt_a_001","H"
"569",137,"blank.png",0,"B","",NA,"",NA,6,3,"ptt_a_001","H"
"570",138,"blank.png",0,"B","",NA,"",NA,6,3,"ptt_a_001","H"
"571",139,"blank.png",0,"B","",NA,"",NA,6,3,"ptt_a_001","H"
"572",140,"blank.png",0,"B","",NA,"",NA,6,3,"ptt_a_001","H"
"573",141,"blank.png",0,"B","",NA,"",NA,6,3,"ptt_a_001","H"
"574",142,"blank.png",0,"B","",NA,"",NA,6,3,"ptt_a_001","H"
"575",143,"blank.png",0,"B","",NA,"",NA,6,3,"ptt_a_001","H"
"576",144,"blank.png",0,"B","",NA,"",NA,6,3,"ptt_a_001","H"
"577",145,"Alien4.bmp",1,"S","",NA,"None",NA,6,3,"ptt_a_001","H"
"578",146,"Alien5.bmp",2,"S","",NA,"None",NA,6,3,"ptt_a_001","H"
"579",147,"Alien6.bmp",3,"S","",NA,"4",0.442173122661,6,3,"ptt_a_001","H"
"580",148,"Alien1.bmp",4,"S","",NA,"None",NA,6,3,"ptt_a_001","H"
"581",149,"Alien2.bmp",5,"S","",NA,"None",NA,6,3,"ptt_a_001","H"
"582",150,"Alien3.bmp",6,"S","",NA,"None",NA,6,3,"ptt_a_001","H"
"583",151,"Alien10.bmp",7,"S","",NA,"None",NA,6,3,"ptt_a_001","H"
"584",152,"Alien11.bmp",8,"S","",NA,"None",NA,6,3,"ptt_a_001","H"
"585",153,"Alien12.bmp",9,"S","",NA,"None",NA,6,3,"ptt_a_001","H"
"586",154,"Alien4.bmp",10,"S","",NA,"None",NA,6,3,"ptt_a_001","H"
"587",155,"Alien5.bmp",11,"S","",NA,"None",NA,6,3,"ptt_a_001","H"
"588",156,"Alien6.bmp",12,"S","",NA,"4",0.442118793726,6,3,"ptt_a_001","H"
"589",157,"Alien7.bmp",13,"S","",NA,"None",NA,6,3,"ptt_a_001","H"
"590",158,"Alien8.bmp",14,"S","",NA,"None",NA,6,3,"ptt_a_001","H"
"591",159,"Alien9.bmp",15,"S","",NA,"None",NA,6,3,"ptt_a_001","H"
"592",160,"Alien1.bmp",16,"S","",NA,"None",NA,6,3,"ptt_a_001","H"
"593",161,"Alien2.bmp",17,"S","",NA,"None",NA,6,3,"ptt_a_001","H"
"594",162,"Alien3.bmp",18,"S","",NA,"None",NA,6,3,"ptt_a_001","H"
"595",163,"Alien10.bmp",19,"S","",NA,"None",NA,6,3,"ptt_a_001","H"
"596",164,"Alien11.bmp",20,"S","",NA,"None",NA,6,3,"ptt_a_001","H"
"597",165,"Alien12.bmp",21,"S","",NA,"None",NA,6,3,"ptt_a_001","H"
"598",166,"Alien4.bmp",22,"S","",NA,"None",NA,6,3,"ptt_a_001","H"
"599",167,"Alien5.bmp",23,"S","",NA,"None",NA,6,3,"ptt_a_001","H"
"600",168,"Alien6.bmp",24,"S","",NA,"4",0.441963202553,6,3,"ptt_a_001","H"
"601",169,"Alien7.bmp",25,"S","",NA,"None",NA,6,3,"ptt_a_001","H"
"602",170,"Alien8.bmp",26,"S","",NA,"None",NA,6,3,"ptt_a_001","H"
"603",171,"Alien9.bmp",27,"S","",NA,"None",NA,6,3,"ptt_a_001","H"
"604",172,"Alien1.bmp",28,"S","",NA,"None",NA,6,3,"ptt_a_001","H"
"605",173,"Alien2.bmp",29,"S","",NA,"None",NA,6,3,"ptt_a_001","H"
"606",174,"Alien3.bmp",30,"S","",NA,"None",NA,6,3,"ptt_a_001","H"
"607",175,"Alien7.bmp",31,"S","",NA,"None",NA,6,3,"ptt_a_001","H"
"608",176,"Alien8.bmp",32,"S","",NA,"None",NA,6,3,"ptt_a_001","H"
"609",177,"Alien9.bmp",33,"S","",NA,"None",NA,6,3,"ptt_a_001","H"
"610",178,"Alien10.bmp",34,"S","",NA,"None",NA,6,3,"ptt_a_001","H"
"611",179,"Alien11.bmp",35,"S","",NA,"None",NA,6,3,"ptt_a_001","H"
"612",180,"Alien12.bmp",36,"S","",NA,"None",NA,6,3,"ptt_a_001","H"
"613",181,"Alien4.bmp",37,"S","",NA,"None",NA,6,3,"ptt_a_001","H"
"614",182,"Alien5.bmp",38,"S","",NA,"None",NA,6,3,"ptt_a_001","H"
"615",183,"Alien6.bmp",39,"S","",NA,"4",0.483614995086,6,3,"ptt_a_001","H"
"616",184,"Alien10.bmp",40,"S","",NA,"None",NA,6,3,"ptt_a_001","H"
"617",185,"Alien11.bmp",41,"S","",NA,"None",NA,6,3,"ptt_a_001","H"
"618",186,"Alien12.bmp",42,"S","",NA,"None",NA,6,3,"ptt_a_001","H"
"619",187,"Alien4.bmp",43,"S","",NA,"None",NA,6,3,"ptt_a_001","H"
"620",188,"Alien5.bmp",44,"S","",NA,"None",NA,6,3,"ptt_a_001","H"
"621",189,"Alien6.bmp",45,"S","",NA,"4",0.533685210277,6,3,"ptt_a_001","H"
"622",190,"Alien7.bmp",46,"S","",NA,"None",NA,6,3,"ptt_a_001","H"
"623",191,"Alien8.bmp",47,"S","",NA,"None",NA,6,3,"ptt_a_001","H"
"624",192,"Alien9.bmp",48,"S","",NA,"None",NA,6,3,"ptt_a_001","H"
"625",193,"blank.png",0,"B","",NA,"None",NA,6,3,"ptt_a_001","H"
"626",194,"blank.png",0,"B","",NA,"None",NA,6,3,"ptt_a_001","H"
"627",195,"blank.png",0,"B","",NA,"None",NA,6,3,"ptt_a_001","H"
"628",196,"blank.png",0,"B","",NA,"None",NA,6,3,"ptt_a_001","H"
"629",197,"blank.png",0,"B","",NA,"None",NA,6,3,"ptt_a_001","H"
"630",198,"blank.png",0,"B","",NA,"None",NA,6,3,"ptt_a_001","H"
"631",199,"blank.png",0,"B","",NA,"None",NA,6,3,"ptt_a_001","H"
"632",200,"blank.png",0,"B","",NA,"None",NA,6,3,"ptt_a_001","H"
"633",201,"blank.png",0,"B","",NA,"None",NA,6,3,"ptt_a_001","H"
"634",202,"blank.png",0,"B","",NA,"None",NA,6,3,"ptt_a_001","H"
"635",203,"blank.png",0,"B","",NA,"None",NA,6,3,"ptt_a_001","H"
"636",204,"blank.png",0,"B","",NA,"None",NA,6,3,"ptt_a_001","H"
"637",205,"blank.png",0,"B","None",0.400264761061,"",NA,6,3,"ptt_a_001","H"
"638",206,"blank.png",0,"B","",NA,"",NA,6,3,"ptt_a_001","H"
"639",207,"blank.png",0,"B","",NA,"",NA,6,3,"ptt_a_001","H"
"640",208,"blank.png",0,"B","",NA,"",NA,6,3,"ptt_a_001","H"
"641",209,"blank.png",0,"B","",NA,"",NA,6,3,"ptt_a_001","H"
"642",210,"blank.png",0,"B","",NA,"",NA,6,3,"ptt_a_001","H"
"643",211,"blank.png",0,"B","",NA,"",NA,6,3,"ptt_a_001","H"
"644",212,"blank.png",0,"B","",NA,"",NA,6,3,"ptt_a_001","H"
"645",213,"blank.png",0,"B","",NA,"",NA,6,3,"ptt_a_001","H"
"646",214,"blank.png",0,"B","",NA,"",NA,6,3,"ptt_a_001","H"
"647",215,"blank.png",0,"B","",NA,"",NA,6,3,"ptt_a_001","H"
"648",216,"blank.png",0,"B","",NA,"",NA,6,3,"ptt_a_001","H"
"649",1,"Alien4.bmp",145,"S","",NA,"None",NA,6,4,"ptt_a_001","H"
"650",2,"Alien5.bmp",146,"S","",NA,"None",NA,6,4,"ptt_a_001","H"
"651",3,"Alien6.bmp",147,"S","",NA,"4",0.35889115528,6,4,"ptt_a_001","H"
"652",4,"Alien10.bmp",148,"S","",NA,"None",NA,6,4,"ptt_a_001","H"
"653",5,"Alien11.bmp",149,"S","",NA,"None",NA,6,4,"ptt_a_001","H"
"654",6,"Alien12.bmp",150,"S","",NA,"None",NA,6,4,"ptt_a_001","H"
"655",7,"Alien4.bmp",151,"S","",NA,"None",NA,6,4,"ptt_a_001","H"
"656",8,"Alien5.bmp",152,"S","",NA,"None",NA,6,4,"ptt_a_001","H"
"657",9,"Alien6.bmp",153,"S","",NA,"4",0.433732797857,6,4,"ptt_a_001","H"
"658",10,"Alien7.bmp",154,"S","",NA,"None",NA,6,4,"ptt_a_001","H"
"659",11,"Alien8.bmp",155,"S","",NA,"None",NA,6,4,"ptt_a_001","H"
"660",12,"Alien9.bmp",156,"S","",NA,"None",NA,6,4,"ptt_a_001","H"
"661",13,"Alien1.bmp",157,"S","",NA,"None",NA,6,4,"ptt_a_001","H"
"662",14,"Alien2.bmp",158,"S","",NA,"None",NA,6,4,"ptt_a_001","H"
"663",15,"Alien3.bmp",159,"S","",NA,"None",NA,6,4,"ptt_a_001","H"
"664",16,"Alien4.bmp",160,"S","",NA,"None",NA,6,4,"ptt_a_001","H"
"665",17,"Alien5.bmp",161,"S","",NA,"None",NA,6,4,"ptt_a_001","H"
"666",18,"Alien6.bmp",162,"S","",NA,"4",0.44245529169,6,4,"ptt_a_001","H"
"667",19,"Alien7.bmp",163,"S","",NA,"None",NA,6,4,"ptt_a_001","H"
"668",20,"Alien8.bmp",164,"S","",NA,"None",NA,6,4,"ptt_a_001","H"
"669",21,"Alien9.bmp",165,"S","",NA,"None",NA,6,4,"ptt_a_001","H"
"670",22,"Alien1.bmp",166,"S","",NA,"None",NA,6,4,"ptt_a_001","H"
"671",23,"Alien2.bmp",167,"S","",NA,"None",NA,6,4,"ptt_a_001","H"
"672",24,"Alien3.bmp",168,"S","",NA,"None",NA,6,4,"ptt_a_001","H"
"673",25,"Alien10.bmp",169,"S","",NA,"None",NA,6,4,"ptt_a_001","H"
"674",26,"Alien11.bmp",170,"S","",NA,"None",NA,6,4,"ptt_a_001","H"
"675",27,"Alien12.bmp",171,"S","",NA,"None",NA,6,4,"ptt_a_001","H"
"676",28,"Alien1.bmp",172,"S","",NA,"None",NA,6,4,"ptt_a_001","H"
"677",29,"Alien2.bmp",173,"S","",NA,"None",NA,6,4,"ptt_a_001","H"
"678",30,"Alien3.bmp",174,"S","",NA,"None",NA,6,4,"ptt_a_001","H"
"679",31,"Alien4.bmp",175,"S","",NA,"None",NA,6,4,"ptt_a_001","H"
"680",32,"Alien5.bmp",176,"S","",NA,"None",NA,6,4,"ptt_a_001","H"
"681",33,"Alien6.bmp",177,"S","",NA,"4",0.484204648819,6,4,"ptt_a_001","H"
"682",34,"Alien10.bmp",178,"S","",NA,"None",NA,6,4,"ptt_a_001","H"
"683",35,"Alien11.bmp",179,"S","",NA,"None",NA,6,4,"ptt_a_001","H"
"684",36,"Alien12.bmp",180,"S","",NA,"None",NA,6,4,"ptt_a_001","H"
"685",37,"Alien7.bmp",181,"S","",NA,"None",NA,6,4,"ptt_a_001","H"
"686",38,"Alien8.bmp",182,"S","",NA,"None",NA,6,4,"ptt_a_001","H"
"687",39,"Alien9.bmp",183,"S","",NA,"None",NA,6,4,"ptt_a_001","H"
"688",40,"Alien10.bmp",184,"S","",NA,"None",NA,6,4,"ptt_a_001","H"
"689",41,"Alien11.bmp",185,"S","",NA,"None",NA,6,4,"ptt_a_001","H"
"690",42,"Alien12.bmp",186,"S","",NA,"None",NA,6,4,"ptt_a_001","H"
"691",43,"Alien1.bmp",187,"S","",NA,"None",NA,6,4,"ptt_a_001","H"
"692",44,"Alien2.bmp",188,"S","",NA,"None",NA,6,4,"ptt_a_001","H"
"693",45,"Alien3.bmp",189,"S","",NA,"None",NA,6,4,"ptt_a_001","H"
"694",46,"Alien7.bmp",190,"S","",NA,"None",NA,6,4,"ptt_a_001","H"
"695",47,"Alien8.bmp",191,"S","",NA,"None",NA,6,4,"ptt_a_001","H"
"696",48,"Alien9.bmp",192,"S","",NA,"None",NA,6,4,"ptt_a_001","H"
"697",49,"blank.png",0,"B","",NA,"None",NA,6,4,"ptt_a_001","H"
"698",50,"blank.png",0,"B","",NA,"None",NA,6,4,"ptt_a_001","H"
"699",51,"blank.png",0,"B","",NA,"None",NA,6,4,"ptt_a_001","H"
"700",52,"blank.png",0,"B","",NA,"None",NA,6,4,"ptt_a_001","H"
"701",53,"blank.png",0,"B","",NA,"None",NA,6,4,"ptt_a_001","H"
"702",54,"blank.png",0,"B","",NA,"None",NA,6,4,"ptt_a_001","H"
"703",55,"blank.png",0,"B","",NA,"None",NA,6,4,"ptt_a_001","H"
"704",56,"blank.png",0,"B","",NA,"None",NA,6,4,"ptt_a_001","H"
"705",57,"blank.png",0,"B","",NA,"None",NA,6,4,"ptt_a_001","H"
"706",58,"blank.png",0,"B","",NA,"None",NA,6,4,"ptt_a_001","H"
"707",59,"blank.png",0,"B","",NA,"None",NA,6,4,"ptt_a_001","H"
"708",60,"blank.png",0,"B","",NA,"None",NA,6,4,"ptt_a_001","H"
"709",61,"blank.png",0,"B","None",0.397650430677,"",NA,6,4,"ptt_a_001","H"
"710",62,"blank.png",0,"B","",NA,"",NA,6,4,"ptt_a_001","H"
"711",63,"blank.png",0,"B","",NA,"",NA,6,4,"ptt_a_001","H"
"712",64,"blank.png",0,"B","",NA,"",NA,6,4,"ptt_a_001","H"
"713",65,"blank.png",0,"B","",NA,"",NA,6,4,"ptt_a_001","H"
"714",66,"blank.png",0,"B","",NA,"",NA,6,4,"ptt_a_001","H"
"715",67,"blank.png",0,"B","",NA,"",NA,6,4,"ptt_a_001","H"
"716",68,"blank.png",0,"B","",NA,"",NA,6,4,"ptt_a_001","H"
"717",69,"blank.png",0,"B","",NA,"",NA,6,4,"ptt_a_001","H"
"718",70,"blank.png",0,"B","",NA,"",NA,6,4,"ptt_a_001","H"
"719",71,"blank.png",0,"B","",NA,"",NA,6,4,"ptt_a_001","H"
"720",72,"blank.png",0,"B","",NA,"",NA,6,4,"ptt_a_001","H"
"721",73,"blank.png",0,"B","None",0.375019448868,"",NA,6,4,"ptt_a_001","H"
"722",74,"blank.png",0,"B","",NA,"",NA,6,4,"ptt_a_001","H"
"723",75,"blank.png",0,"B","",NA,"",NA,6,4,"ptt_a_001","H"
"724",76,"blank.png",0,"B","",NA,"",NA,6,4,"ptt_a_001","H"
"725",77,"blank.png",0,"B","",NA,"",NA,6,4,"ptt_a_001","H"
"726",78,"blank.png",0,"B","",NA,"",NA,6,4,"ptt_a_001","H"
"727",79,"blank.png",0,"B","",NA,"",NA,6,4,"ptt_a_001","H"
"728",80,"blank.png",0,"B","",NA,"",NA,6,4,"ptt_a_001","H"
"729",81,"blank.png",0,"B","",NA,"",NA,6,4,"ptt_a_001","H"
"730",82,"blank.png",0,"B","",NA,"",NA,6,4,"ptt_a_001","H"
"731",83,"blank.png",0,"B","",NA,"",NA,6,4,"ptt_a_001","H"
"732",84,"blank.png",0,"B","",NA,"",NA,6,4,"ptt_a_001","H"
"733",85,"Alien7.bmp",241,"S","",NA,"None",NA,6,4,"ptt_a_001","H"
"734",86,"Alien8.bmp",242,"S","",NA,"None",NA,6,4,"ptt_a_001","H"
"735",87,"Alien9.bmp",243,"S","",NA,"None",NA,6,4,"ptt_a_001","H"
"736",88,"Alien4.bmp",244,"S","",NA,"None",NA,6,4,"ptt_a_001","H"
"737",89,"Alien5.bmp",245,"S","",NA,"None",NA,6,4,"ptt_a_001","H"
"738",90,"Alien6.bmp",246,"S","",NA,"4",0.458628527587,6,4,"ptt_a_001","H"
"739",91,"Alien10.bmp",247,"S","",NA,"None",NA,6,4,"ptt_a_001","H"
"740",92,"Alien11.bmp",248,"S","",NA,"None",NA,6,4,"ptt_a_001","H"
"741",93,"Alien12.bmp",249,"S","",NA,"None",NA,6,4,"ptt_a_001","H"
"742",94,"Alien7.bmp",250,"S","",NA,"None",NA,6,4,"ptt_a_001","H"
"743",95,"Alien8.bmp",251,"S","",NA,"None",NA,6,4,"ptt_a_001","H"
"744",96,"Alien9.bmp",252,"S","",NA,"None",NA,6,4,"ptt_a_001","H"
"745",97,"Alien4.bmp",253,"S","",NA,"None",NA,6,4,"ptt_a_001","H"
"746",98,"Alien5.bmp",254,"S","",NA,"None",NA,6,4,"ptt_a_001","H"
"747",99,"Alien6.bmp",255,"S","",NA,"4",0.542143455066,6,4,"ptt_a_001","H"
"748",100,"Alien10.bmp",256,"S","",NA,"None",NA,6,4,"ptt_a_001","H"
"749",101,"Alien11.bmp",257,"S","",NA,"None",NA,6,4,"ptt_a_001","H"
"750",102,"Alien12.bmp",258,"S","",NA,"None",NA,6,4,"ptt_a_001","H"
"751",103,"Alien1.bmp",259,"S","",NA,"None",NA,6,4,"ptt_a_001","H"
"752",104,"Alien2.bmp",260,"S","",NA,"None",NA,6,4,"ptt_a_001","H"
"753",105,"Alien3.bmp",261,"S","",NA,"None",NA,6,4,"ptt_a_001","H"
"754",106,"Alien7.bmp",262,"S","",NA,"None",NA,6,4,"ptt_a_001","H"
"755",107,"Alien8.bmp",263,"S","",NA,"None",NA,6,4,"ptt_a_001","H"
"756",108,"Alien9.bmp",264,"S","",NA,"None",NA,6,4,"ptt_a_001","H"
"757",109,"Alien1.bmp",265,"S","",NA,"None",NA,6,4,"ptt_a_001","H"
"758",110,"Alien2.bmp",266,"S","",NA,"None",NA,6,4,"ptt_a_001","H"
"759",111,"Alien3.bmp",267,"S","",NA,"None",NA,6,4,"ptt_a_001","H"
"760",112,"Alien10.bmp",268,"S","",NA,"None",NA,6,4,"ptt_a_001","H"
"761",113,"Alien11.bmp",269,"S","",NA,"None",NA,6,4,"ptt_a_001","H"
"762",114,"Alien12.bmp",270,"S","",NA,"None",NA,6,4,"ptt_a_001","H"
"763",115,"Alien4.bmp",271,"S","",NA,"None",NA,6,4,"ptt_a_001","H"
"764",116,"Alien5.bmp",272,"S","",NA,"None",NA,6,4,"ptt_a_001","H"
"765",117,"Alien6.bmp",273,"S","",NA,"4",0.392037769663,6,4,"ptt_a_001","H"
"766",118,"Alien1.bmp",274,"S","",NA,"None",NA,6,4,"ptt_a_001","H"
"767",119,"Alien2.bmp",275,"S","",NA,"None",NA,6,4,"ptt_a_001","H"
"768",120,"Alien3.bmp",276,"S","",NA,"None",NA,6,4,"ptt_a_001","H"
"769",121,"Alien10.bmp",277,"S","",NA,"None",NA,6,4,"ptt_a_001","H"
"770",122,"Alien11.bmp",278,"S","",NA,"None",NA,6,4,"ptt_a_001","H"
"771",123,"Alien12.bmp",279,"S","",NA,"None",NA,6,4,"ptt_a_001","H"
"772",124,"Alien7.bmp",280,"S","",NA,"None",NA,6,4,"ptt_a_001","H"
"773",125,"Alien8.bmp",281,"S","",NA,"None",NA,6,4,"ptt_a_001","H"
"774",126,"Alien9.bmp",282,"S","",NA,"None",NA,6,4,"ptt_a_001","H"
"775",127,"Alien4.bmp",283,"S","",NA,"None",NA,6,4,"ptt_a_001","H"
"776",128,"Alien5.bmp",284,"S","",NA,"None",NA,6,4,"ptt_a_001","H"
"777",129,"Alien6.bmp",285,"S","",NA,"4",0.509116022964,6,4,"ptt_a_001","H"
"778",130,"Alien1.bmp",286,"S","",NA,"None",NA,6,4,"ptt_a_001","H"
"779",131,"Alien2.bmp",287,"S","",NA,"None",NA,6,4,"ptt_a_001","H"
"780",132,"Alien3.bmp",288,"S","",NA,"None",NA,6,4,"ptt_a_001","H"
"781",133,"blank.png",0,"B","",NA,"None",NA,6,4,"ptt_a_001","H"
"782",134,"blank.png",0,"B","",NA,"None",NA,6,4,"ptt_a_001","H"
"783",135,"blank.png",0,"B","",NA,"None",NA,6,4,"ptt_a_001","H"
"784",136,"blank.png",0,"B","",NA,"None",NA,6,4,"ptt_a_001","H"
"785",137,"blank.png",0,"B","",NA,"None",NA,6,4,"ptt_a_001","H"
"786",138,"blank.png",0,"B","",NA,"None",NA,6,4,"ptt_a_001","H"
"787",139,"blank.png",0,"B","",NA,"None",NA,6,4,"ptt_a_001","H"
"788",140,"blank.png",0,"B","",NA,"None",NA,6,4,"ptt_a_001","H"
"789",141,"blank.png",0,"B","",NA,"None",NA,6,4,"ptt_a_001","H"
"790",142,"blank.png",0,"B","",NA,"None",NA,6,4,"ptt_a_001","H"
"791",143,"blank.png",0,"B","",NA,"None",NA,6,4,"ptt_a_001","H"
"792",144,"blank.png",0,"B","",NA,"None",NA,6,4,"ptt_a_001","H"
"793",145,"Alien4.bmp",193,"S","",NA,"None",NA,6,4,"ptt_a_001","H"
"794",146,"Alien5.bmp",194,"S","",NA,"None",NA,6,4,"ptt_a_001","H"
"795",147,"Alien6.bmp",195,"S","",NA,"4",0.467433225946,6,4,"ptt_a_001","H"
"796",148,"Alien7.bmp",196,"S","",NA,"None",NA,6,4,"ptt_a_001","H"
"797",149,"Alien8.bmp",197,"S","",NA,"None",NA,6,4,"ptt_a_001","H"
"798",150,"Alien9.bmp",198,"S","",NA,"None",NA,6,4,"ptt_a_001","H"
"799",151,"Alien1.bmp",199,"S","",NA,"None",NA,6,4,"ptt_a_001","H"
"800",152,"Alien2.bmp",200,"S","",NA,"None",NA,6,4,"ptt_a_001","H"
"801",153,"Alien3.bmp",201,"S","",NA,"None",NA,6,4,"ptt_a_001","H"
"802",154,"Alien10.bmp",202,"S","",NA,"None",NA,6,4,"ptt_a_001","H"
"803",155,"Alien11.bmp",203,"S","",NA,"None",NA,6,4,"ptt_a_001","H"
"804",156,"Alien12.bmp",204,"S","",NA,"None",NA,6,4,"ptt_a_001","H"
"805",157,"Alien7.bmp",205,"S","",NA,"None",NA,6,4,"ptt_a_001","H"
"806",158,"Alien8.bmp",206,"S","",NA,"None",NA,6,4,"ptt_a_001","H"
"807",159,"Alien9.bmp",207,"S","",NA,"None",NA,6,4,"ptt_a_001","H"
"808",160,"Alien4.bmp",208,"S","",NA,"None",NA,6,4,"ptt_a_001","H"
"809",161,"Alien5.bmp",209,"S","",NA,"None",NA,6,4,"ptt_a_001","H"
"810",162,"Alien6.bmp",210,"S","",NA,"4",0.525606698997,6,4,"ptt_a_001","H"
"811",163,"Alien1.bmp",211,"S","",NA,"None",NA,6,4,"ptt_a_001","H"
"812",164,"Alien2.bmp",212,"S","",NA,"None",NA,6,4,"ptt_a_001","H"
"813",165,"Alien3.bmp",213,"S","",NA,"None",NA,6,4,"ptt_a_001","H"
"814",166,"Alien10.bmp",214,"S","",NA,"None",NA,6,4,"ptt_a_001","H"
"815",167,"Alien11.bmp",215,"S","",NA,"None",NA,6,4,"ptt_a_001","H"
"816",168,"Alien12.bmp",216,"S","",NA,"None",NA,6,4,"ptt_a_001","H"
"817",169,"Alien4.bmp",217,"S","",NA,"None",NA,6,4,"ptt_a_001","H"
"818",170,"Alien5.bmp",218,"S","",NA,"None",NA,6,4,"ptt_a_001","H"
"819",171,"Alien6.bmp",219,"S","",NA,"4",0.508834422799,6,4,"ptt_a_001","H"
"820",172,"Alien10.bmp",220,"S","",NA,"None",NA,6,4,"ptt_a_001","H"
"821",173,"Alien11.bmp",221,"S","",NA,"None",NA,6,4,"ptt_a_001","H"
"822",174,"Alien12.bmp",222,"S","",NA,"None",NA,6,4,"ptt_a_001","H"
"823",175,"Alien7.bmp",223,"S","",NA,"None",NA,6,4,"ptt_a_001","H"
"824",176,"Alien8.bmp",224,"S","",NA,"None",NA,6,4,"ptt_a_001","H"
"825",177,"Alien9.bmp",225,"S","",NA,"None",NA,6,4,"ptt_a_001","H"
"826",178,"Alien1.bmp",226,"S","",NA,"None",NA,6,4,"ptt_a_001","H"
"827",179,"Alien2.bmp",227,"S","",NA,"None",NA,6,4,"ptt_a_001","H"
"828",180,"Alien3.bmp",228,"S","",NA,"None",NA,6,4,"ptt_a_001","H"
"829",181,"Alien7.bmp",229,"S","",NA,"None",NA,6,4,"ptt_a_001","H"
"830",182,"Alien8.bmp",230,"S","",NA,"None",NA,6,4,"ptt_a_001","H"
"831",183,"Alien9.bmp",231,"S","",NA,"None",NA,6,4,"ptt_a_001","H"
"832",184,"Alien10.bmp",232,"S","",NA,"None",NA,6,4,"ptt_a_001","H"
"833",185,"Alien11.bmp",233,"S","",NA,"None",NA,6,4,"ptt_a_001","H"
"834",186,"Alien12.bmp",234,"S","",NA,"None",NA,6,4,"ptt_a_001","H"
"835",187,"Alien4.bmp",235,"S","",NA,"None",NA,6,4,"ptt_a_001","H"
"836",188,"Alien5.bmp",236,"S","",NA,"None",NA,6,4,"ptt_a_001","H"
"837",189,"Alien6.bmp",237,"S","",NA,"4",0.384230903059,6,4,"ptt_a_001","H"
"838",190,"Alien1.bmp",238,"S","",NA,"None",NA,6,4,"ptt_a_001","H"
"839",191,"Alien2.bmp",239,"S","",NA,"None",NA,6,4,"ptt_a_001","H"
"840",192,"Alien3.bmp",240,"S","",NA,"None",NA,6,4,"ptt_a_001","H"
"841",193,"blank.png",0,"B","",NA,"None",NA,6,4,"ptt_a_001","H"
"842",194,"blank.png",0,"B","",NA,"None",NA,6,4,"ptt_a_001","H"
"843",195,"blank.png",0,"B","",NA,"None",NA,6,4,"ptt_a_001","H"
"844",196,"blank.png",0,"B","",NA,"None",NA,6,4,"ptt_a_001","H"
"845",197,"blank.png",0,"B","",NA,"None",NA,6,4,"ptt_a_001","H"
"846",198,"blank.png",0,"B","",NA,"None",NA,6,4,"ptt_a_001","H"
"847",199,"blank.png",0,"B","",NA,"None",NA,6,4,"ptt_a_001","H"
"848",200,"blank.png",0,"B","",NA,"None",NA,6,4,"ptt_a_001","H"
"849",201,"blank.png",0,"B","",NA,"None",NA,6,4,"ptt_a_001","H"
"850",202,"blank.png",0,"B","",NA,"None",NA,6,4,"ptt_a_001","H"
"851",203,"blank.png",0,"B","",NA,"None",NA,6,4,"ptt_a_001","H"
"852",204,"blank.png",0,"B","",NA,"None",NA,6,4,"ptt_a_001","H"
"853",205,"blank.png",0,"B","None",0.433891802386,"",NA,6,4,"ptt_a_001","H"
"854",206,"blank.png",0,"B","",NA,"",NA,6,4,"ptt_a_001","H"
"855",207,"blank.png",0,"B","",NA,"",NA,6,4,"ptt_a_001","H"
"856",208,"blank.png",0,"B","",NA,"",NA,6,4,"ptt_a_001","H"
"857",209,"blank.png",0,"B","",NA,"",NA,6,4,"ptt_a_001","H"
"858",210,"blank.png",0,"B","",NA,"",NA,6,4,"ptt_a_001","H"
"859",211,"blank.png",0,"B","",NA,"",NA,6,4,"ptt_a_001","H"
"860",212,"blank.png",0,"B","",NA,"",NA,6,4,"ptt_a_001","H"
"861",213,"blank.png",0,"B","",NA,"",NA,6,4,"ptt_a_001","H"
"862",214,"blank.png",0,"B","",NA,"",NA,6,4,"ptt_a_001","H"
"863",215,"blank.png",0,"B","",NA,"",NA,6,4,"ptt_a_001","H"
"864",216,"blank.png",0,"B","",NA,"",NA,6,4,"ptt_a_001","H"
"865",1,"Alien7.bmp",97,"R","",NA,"3",0.61768739135,3,1,"ptt_a_002",NA
"866",2,"Alien4.bmp",98,"R","",NA,"None",NA,3,1,"ptt_a_002",NA
"867",3,"Alien9.bmp",99,"R","",NA,"None",NA,3,1,"ptt_a_002",NA
"868",4,"Alien11.bmp",100,"R","",NA,"None",NA,3,1,"ptt_a_002",NA
"869",5,"Alien3.bmp",101,"R","",NA,"3",0.508790618333,3,1,"ptt_a_002",NA
"870",6,"Alien5.bmp",102,"R","",NA,"None",NA,3,1,"ptt_a_002",NA
"871",7,"Alien8.bmp",103,"R","",NA,"None",NA,3,1,"ptt_a_002",NA
"872",8,"Alien12.bmp",104,"R","",NA,"None",NA,3,1,"ptt_a_002",NA
"873",9,"Alien9.bmp",105,"R","",NA,"None",NA,3,1,"ptt_a_002",NA
"874",10,"Alien8.bmp",106,"R","",NA,"None",NA,3,1,"ptt_a_002",NA
"875",11,"Alien5.bmp",107,"R","",NA,"None",NA,3,1,"ptt_a_002",NA
"876",12,"Alien1.bmp",108,"R","",NA,"None",NA,3,1,"ptt_a_002",NA
"877",13,"Alien10.bmp",109,"R","",NA,"None",NA,3,1,"ptt_a_002",NA
"878",14,"Alien12.bmp",110,"R","",NA,"None",NA,3,1,"ptt_a_002",NA
"879",15,"Alien2.bmp",111,"R","",NA,"3",0.408660143556,3,1,"ptt_a_002",NA
"880",16,"Alien10.bmp",112,"R","",NA,"None",NA,3,1,"ptt_a_002",NA
"881",17,"Alien7.bmp",113,"R","",NA,"None",NA,3,1,"ptt_a_002",NA
"882",18,"Alien6.bmp",114,"R","",NA,"None",NA,3,1,"ptt_a_002",NA
"883",19,"Alien2.bmp",115,"R","",NA,"None",NA,3,1,"ptt_a_002",NA
"884",20,"Alien4.bmp",116,"R","",NA,"None",NA,3,1,"ptt_a_002",NA
"885",21,"Alien6.bmp",117,"R","",NA,"None",NA,3,1,"ptt_a_002",NA
"886",22,"Alien3.bmp",118,"R","",NA,"3",0.79220183735,3,1,"ptt_a_002",NA
"887",23,"Alien1.bmp",119,"R","",NA,"None",NA,3,1,"ptt_a_002",NA
"888",24,"Alien11.bmp",120,"R","",NA,"None",NA,3,1,"ptt_a_002",NA
"889",25,"Alien1.bmp",121,"R","",NA,"None",NA,3,1,"ptt_a_002",NA
"890",26,"Alien7.bmp",122,"R","",NA,"None",NA,3,1,"ptt_a_002",NA
"891",27,"Alien12.bmp",123,"R","",NA,"None",NA,3,1,"ptt_a_002",NA
"892",28,"Alien4.bmp",124,"R","",NA,"None",NA,3,1,"ptt_a_002",NA
"893",29,"Alien1.bmp",125,"R","",NA,"None",NA,3,1,"ptt_a_002",NA
"894",30,"Alien5.bmp",126,"R","",NA,"None",NA,3,1,"ptt_a_002",NA
"895",31,"Alien3.bmp",127,"R","",NA,"3",0.375371591363,3,1,"ptt_a_002",NA
"896",32,"Alien7.bmp",128,"R","",NA,"None",NA,3,1,"ptt_a_002",NA
"897",33,"Alien8.bmp",129,"R","",NA,"None",NA,3,1,"ptt_a_002",NA
"898",34,"Alien6.bmp",130,"R","",NA,"None",NA,3,1,"ptt_a_002",NA
"899",35,"Alien3.bmp",131,"R","",NA,"3",0.383965800691,3,1,"ptt_a_002",NA
"900",36,"Alien2.bmp",132,"R","",NA,"None",NA,3,1,"ptt_a_002",NA
"901",37,"Alien10.bmp",133,"R","",NA,"None",NA,3,1,"ptt_a_002",NA
"902",38,"Alien2.bmp",134,"R","",NA,"None",NA,3,1,"ptt_a_002",NA
"903",39,"Alien9.bmp",135,"R","",NA,"None",NA,3,1,"ptt_a_002",NA
"904",40,"Alien2.bmp",136,"R","",NA,"None",NA,3,1,"ptt_a_002",NA
"905",41,"Alien9.bmp",137,"R","",NA,"None",NA,3,1,"ptt_a_002",NA
"906",42,"Alien1.bmp",138,"R","",NA,"None",NA,3,1,"ptt_a_002",NA
"907",43,"Alien11.bmp",139,"R","",NA,"None",NA,3,1,"ptt_a_002",NA
"908",44,"Alien8.bmp",140,"R","",NA,"None",NA,3,1,"ptt_a_002",NA
"909",45,"Alien11.bmp",141,"R","",NA,"None",NA,3,1,"ptt_a_002",NA
"910",46,"Alien6.bmp",142,"R","",NA,"None",NA,3,1,"ptt_a_002",NA
"911",47,"Alien12.bmp",143,"R","",NA,"None",NA,3,1,"ptt_a_002",NA
"912",48,"Alien10.bmp",144,"R","",NA,"None",NA,3,1,"ptt_a_002",NA
"913",49,"blank.png",0,"B","",NA,"None",NA,3,1,"ptt_a_002",NA
"914",50,"blank.png",0,"B","",NA,"None",NA,3,1,"ptt_a_002",NA
"915",51,"blank.png",0,"B","",NA,"None",NA,3,1,"ptt_a_002",NA
"916",52,"blank.png",0,"B","",NA,"None",NA,3,1,"ptt_a_002",NA
"917",53,"blank.png",0,"B","",NA,"None",NA,3,1,"ptt_a_002",NA
"918",54,"blank.png",0,"B","",NA,"None",NA,3,1,"ptt_a_002",NA
"919",55,"blank.png",0,"B","",NA,"None",NA,3,1,"ptt_a_002",NA
"920",56,"blank.png",0,"B","",NA,"None",NA,3,1,"ptt_a_002",NA
"921",57,"blank.png",0,"B","",NA,"None",NA,3,1,"ptt_a_002",NA
"922",58,"blank.png",0,"B","",NA,"None",NA,3,1,"ptt_a_002",NA
"923",59,"blank.png",0,"B","",NA,"None",NA,3,1,"ptt_a_002",NA
"924",60,"blank.png",0,"B","",NA,"None",NA,3,1,"ptt_a_002",NA
"925",61,"Alien7.bmp",49,"R","",NA,"None",NA,3,1,"ptt_a_002",NA
"926",62,"Alien1.bmp",50,"R","",NA,"None",NA,3,1,"ptt_a_002",NA
"927",63,"Alien3.bmp",51,"R","",NA,"3",0.392055405304,3,1,"ptt_a_002",NA
"928",64,"Alien10.bmp",52,"R","",NA,"None",NA,3,1,"ptt_a_002",NA
"929",65,"Alien4.bmp",53,"R","",NA,"None",NA,3,1,"ptt_a_002",NA
"930",66,"Alien5.bmp",54,"R","",NA,"None",NA,3,1,"ptt_a_002",NA
"931",67,"Alien12.bmp",55,"R","",NA,"None",NA,3,1,"ptt_a_002",NA
"932",68,"Alien11.bmp",56,"R","",NA,"None",NA,3,1,"ptt_a_002",NA
"933",69,"Alien9.bmp",57,"R","",NA,"None",NA,3,1,"ptt_a_002",NA
"934",70,"Alien10.bmp",58,"R","",NA,"None",NA,3,1,"ptt_a_002",NA
"935",71,"Alien2.bmp",59,"R","",NA,"None",NA,3,1,"ptt_a_002",NA
"936",72,"Alien8.bmp",60,"R","",NA,"None",NA,3,1,"ptt_a_002",NA
"937",73,"Alien7.bmp",61,"R","",NA,"None",NA,3,1,"ptt_a_002",NA
"938",74,"Alien5.bmp",62,"R","",NA,"None",NA,3,1,"ptt_a_002",NA
"939",75,"Alien11.bmp",63,"R","",NA,"None",NA,3,1,"ptt_a_002",NA
"940",76,"Alien12.bmp",64,"R","",NA,"None",NA,3,1,"ptt_a_002",NA
"941",77,"Alien1.bmp",65,"R","",NA,"None",NA,3,1,"ptt_a_002",NA
"942",78,"Alien4.bmp",66,"R","",NA,"None",NA,3,1,"ptt_a_002",NA
"943",79,"Alien9.bmp",67,"R","",NA,"None",NA,3,1,"ptt_a_002",NA
"944",80,"Alien6.bmp",68,"R","",NA,"None",NA,3,1,"ptt_a_002",NA
"945",81,"Alien8.bmp",69,"R","",NA,"None",NA,3,1,"ptt_a_002",NA
"946",82,"Alien2.bmp",70,"R","",NA,"None",NA,3,1,"ptt_a_002",NA
"947",83,"Alien3.bmp",71,"R","",NA,"3",0.300760064449,3,1,"ptt_a_002",NA
"948",84,"Alien6.bmp",72,"R","",NA,"None",NA,3,1,"ptt_a_002",NA
"949",85,"Alien7.bmp",73,"R","",NA,"None",NA,3,1,"ptt_a_002",NA
"950",86,"Alien6.bmp",74,"R","",NA,"None",NA,3,1,"ptt_a_002",NA
"951",87,"Alien2.bmp",75,"R","",NA,"None",NA,3,1,"ptt_a_002",NA
"952",88,"Alien8.bmp",76,"R","",NA,"None",NA,3,1,"ptt_a_002",NA
"953",89,"Alien8.bmp",77,"R","",NA,"None",NA,3,1,"ptt_a_002",NA
"954",90,"Alien3.bmp",78,"R","",NA,"3",0.408946863783,3,1,"ptt_a_002",NA
"955",91,"Alien10.bmp",79,"R","",NA,"None",NA,3,1,"ptt_a_002",NA
"956",92,"Alien11.bmp",80,"R","",NA,"None",NA,3,1,"ptt_a_002",NA
"957",93,"Alien3.bmp",81,"R","",NA,"3",0.458532954159,3,1,"ptt_a_002",NA
"958",94,"Alien2.bmp",82,"R","",NA,"None",NA,3,1,"ptt_a_002",NA
"959",95,"Alien4.bmp",83,"R","",NA,"None",NA,3,1,"ptt_a_002",NA
"960",96,"Alien6.bmp",84,"R","",NA,"None",NA,3,1,"ptt_a_002",NA
"961",97,"Alien11.bmp",85,"R","",NA,"None",NA,3,1,"ptt_a_002",NA
"962",98,"Alien9.bmp",86,"R","",NA,"None",NA,3,1,"ptt_a_002",NA
"963",99,"Alien9.bmp",87,"R","",NA,"None",NA,3,1,"ptt_a_002",NA
"964",100,"Alien7.bmp",88,"R","",NA,"None",NA,3,1,"ptt_a_002",NA
"965",101,"Alien12.bmp",89,"R","",NA,"None",NA,3,1,"ptt_a_002",NA
"966",102,"Alien1.bmp",90,"R","",NA,"None",NA,3,1,"ptt_a_002",NA
"967",103,"Alien4.bmp",91,"R","",NA,"None",NA,3,1,"ptt_a_002",NA
"968",104,"Alien10.bmp",92,"R","",NA,"None",NA,3,1,"ptt_a_002",NA
"969",105,"Alien12.bmp",93,"R","",NA,"None",NA,3,1,"ptt_a_002",NA
"970",106,"Alien5.bmp",94,"R","",NA,"None",NA,3,1,"ptt_a_002",NA
"971",107,"Alien5.bmp",95,"R","",NA,"None",NA,3,1,"ptt_a_002",NA
"972",108,"Alien1.bmp",96,"R","",NA,"None",NA,3,1,"ptt_a_002",NA
"973",109,"blank.png",0,"B","",NA,"None",NA,3,1,"ptt_a_002",NA
"974",110,"blank.png",0,"B","",NA,"None",NA,3,1,"ptt_a_002",NA
"975",111,"blank.png",0,"B","",NA,"None",NA,3,1,"ptt_a_002",NA
"976",112,"blank.png",0,"B","",NA,"None",NA,3,1,"ptt_a_002",NA
"977",113,"blank.png",0,"B","",NA,"None",NA,3,1,"ptt_a_002",NA
"978",114,"blank.png",0,"B","",NA,"None",NA,3,1,"ptt_a_002",NA
"979",115,"blank.png",0,"B","",NA,"None",NA,3,1,"ptt_a_002",NA
"980",116,"blank.png",0,"B","",NA,"None",NA,3,1,"ptt_a_002",NA
"981",117,"blank.png",0,"B","",NA,"None",NA,3,1,"ptt_a_002",NA
"982",118,"blank.png",0,"B","",NA,"None",NA,3,1,"ptt_a_002",NA
"983",119,"blank.png",0,"B","",NA,"None",NA,3,1,"ptt_a_002",NA
"984",120,"blank.png",0,"B","",NA,"None",NA,3,1,"ptt_a_002",NA
"985",121,"Alien9.bmp",1,"R","",NA,"None",NA,3,1,"ptt_a_002",NA
"986",122,"Alien6.bmp",2,"R","",NA,"None",NA,3,1,"ptt_a_002",NA
"987",123,"Alien5.bmp",3,"R","",NA,"None",NA,3,1,"ptt_a_002",NA
"988",124,"Alien12.bmp",4,"R","",NA,"None",NA,3,1,"ptt_a_002",NA
"989",125,"Alien2.bmp",5,"R","",NA,"None",NA,3,1,"ptt_a_002",NA
"990",126,"Alien3.bmp",6,"R","",NA,"3",0.357295989932,3,1,"ptt_a_002",NA
"991",127,"Alien5.bmp",7,"R","",NA,"None",NA,3,1,"ptt_a_002",NA
"992",128,"Alien11.bmp",8,"R","",NA,"None",NA,3,1,"ptt_a_002",NA
"993",129,"Alien8.bmp",9,"R","",NA,"None",NA,3,1,"ptt_a_002",NA
"994",130,"Alien4.bmp",10,"R","",NA,"None",NA,3,1,"ptt_a_002",NA
"995",131,"Alien12.bmp",11,"R","",NA,"None",NA,3,1,"ptt_a_002",NA
"996",132,"Alien10.bmp",12,"R","",NA,"None",NA,3,1,"ptt_a_002",NA
"997",133,"Alien6.bmp",13,"R","",NA,"None",NA,3,1,"ptt_a_002",NA
"998",134,"Alien5.bmp",14,"R","",NA,"None",NA,3,1,"ptt_a_002",NA
"999",135,"Alien1.bmp",15,"R","",NA,"None",NA,3,1,"ptt_a_002",NA
"1000",136,"Alien1.bmp",16,"R","",NA,"None",NA,3,1,"ptt_a_002",NA
"1001",137,"Alien11.bmp",17,"R","",NA,"None",NA,3,1,"ptt_a_002",NA
"1002",138,"Alien10.bmp",18,"R","",NA,"None",NA,3,1,"ptt_a_002",NA
"1003",139,"Alien3.bmp",19,"R","",NA,"3",0.325328967301,3,1,"ptt_a_002",NA
"1004",140,"Alien2.bmp",20,"R","",NA,"None",NA,3,1,"ptt_a_002",NA
"1005",141,"Alien6.bmp",21,"R","",NA,"None",NA,3,1,"ptt_a_002",NA
"1006",142,"Alien4.bmp",22,"R","",NA,"None",NA,3,1,"ptt_a_002",NA
"1007",143,"Alien7.bmp",23,"R","",NA,"None",NA,3,1,"ptt_a_002",NA
"1008",144,"Alien4.bmp",24,"R","",NA,"None",NA,3,1,"ptt_a_002",NA
"1009",145,"Alien8.bmp",25,"R","",NA,"None",NA,3,1,"ptt_a_002",NA
"1010",146,"Alien6.bmp",26,"R","",NA,"None",NA,3,1,"ptt_a_002",NA
"1011",147,"Alien5.bmp",27,"R","",NA,"None",NA,3,1,"ptt_a_002",NA
"1012",148,"Alien8.bmp",28,"R","",NA,"None",NA,3,1,"ptt_a_002",NA
"1013",149,"Alien6.bmp",29,"R","",NA,"None",NA,3,1,"ptt_a_002",NA
"1014",150,"Alien5.bmp",30,"R","",NA,"None",NA,3,1,"ptt_a_002",NA
"1015",151,"Alien10.bmp",31,"R","",NA,"None",NA,3,1,"ptt_a_002",NA
"1016",152,"Alien12.bmp",32,"R","",NA,"None",NA,3,1,"ptt_a_002",NA
"1017",153,"Alien2.bmp",33,"R","",NA,"None",NA,3,1,"ptt_a_002",NA
"1018",154,"Alien11.bmp",34,"R","",NA,"None",NA,3,1,"ptt_a_002",NA
"1019",155,"Alien7.bmp",35,"R","",NA,"None",NA,3,1,"ptt_a_002",NA
"1020",156,"Alien9.bmp",36,"R","",NA,"None",NA,3,1,"ptt_a_002",NA
"1021",157,"Alien4.bmp",37,"R","",NA,"None",NA,3,1,"ptt_a_002",NA
"1022",158,"Alien12.bmp",38,"R","",NA,"None",NA,3,1,"ptt_a_002",NA
"1023",159,"Alien8.bmp",39,"R","",NA,"None",NA,3,1,"ptt_a_002",NA
"1024",160,"Alien11.bmp",40,"R","",NA,"None",NA,3,1,"ptt_a_002",NA
"1025",161,"Alien3.bmp",41,"R","",NA,"3",0.308599357784,3,1,"ptt_a_002",NA
"1026",162,"Alien9.bmp",42,"R","",NA,"None",NA,3,1,"ptt_a_002",NA
"1027",163,"Alien4.bmp",43,"R","",NA,"None",NA,3,1,"ptt_a_002",NA
"1028",164,"Alien1.bmp",44,"R","",NA,"None",NA,3,1,"ptt_a_002",NA
"1029",165,"Alien10.bmp",45,"R","",NA,"None",NA,3,1,"ptt_a_002",NA
"1030",166,"Alien7.bmp",46,"R","",NA,"None",NA,3,1,"ptt_a_002",NA
"1031",167,"Alien7.bmp",47,"R","",NA,"None",NA,3,1,"ptt_a_002",NA
"1032",168,"Alien9.bmp",48,"R","",NA,"None",NA,3,1,"ptt_a_002",NA
"1033",169,"blank.png",0,"B","",NA,"None",NA,3,1,"ptt_a_002",NA
"1034",170,"blank.png",0,"B","",NA,"None",NA,3,1,"ptt_a_002",NA
"1035",171,"blank.png",0,"B","",NA,"None",NA,3,1,"ptt_a_002",NA
"1036",172,"blank.png",0,"B","",NA,"None",NA,3,1,"ptt_a_002",NA
"1037",173,"blank.png",0,"B","",NA,"None",NA,3,1,"ptt_a_002",NA
"1038",174,"blank.png",0,"B","",NA,"None",NA,3,1,"ptt_a_002",NA
"1039",175,"blank.png",0,"B","",NA,"None",NA,3,1,"ptt_a_002",NA
"1040",176,"blank.png",0,"B","",NA,"None",NA,3,1,"ptt_a_002",NA
"1041",177,"blank.png",0,"B","",NA,"None",NA,3,1,"ptt_a_002",NA
"1042",178,"blank.png",0,"B","",NA,"None",NA,3,1,"ptt_a_002",NA
"1043",179,"blank.png",0,"B","",NA,"None",NA,3,1,"ptt_a_002",NA
"1044",180,"blank.png",0,"B","",NA,"None",NA,3,1,"ptt_a_002",NA
"1045",181,"blank.png",0,"B","None",0.34197182121,"",NA,3,1,"ptt_a_002",NA
"1046",182,"blank.png",0,"B","",NA,"",NA,3,1,"ptt_a_002",NA
"1047",183,"blank.png",0,"B","",NA,"",NA,3,1,"ptt_a_002",NA
"1048",184,"blank.png",0,"B","",NA,"",NA,3,1,"ptt_a_002",NA
"1049",185,"blank.png",0,"B","",NA,"",NA,3,1,"ptt_a_002",NA
"1050",186,"blank.png",0,"B","",NA,"",NA,3,1,"ptt_a_002",NA
"1051",187,"blank.png",0,"B","",NA,"",NA,3,1,"ptt_a_002",NA
"1052",188,"blank.png",0,"B","",NA,"",NA,3,1,"ptt_a_002",NA
"1053",189,"blank.png",0,"B","",NA,"",NA,3,1,"ptt_a_002",NA
"1054",190,"blank.png",0,"B","",NA,"",NA,3,1,"ptt_a_002",NA
"1055",191,"blank.png",0,"B","",NA,"",NA,3,1,"ptt_a_002",NA
"1056",192,"blank.png",0,"B","",NA,"",NA,3,1,"ptt_a_002",NA
"1057",193,"blank.png",0,"B","3",0.367124404409,"",NA,3,1,"ptt_a_002",NA
"1058",194,"blank.png",0,"B","",NA,"",NA,3,1,"ptt_a_002",NA
"1059",195,"blank.png",0,"B","",NA,"",NA,3,1,"ptt_a_002",NA
"1060",196,"blank.png",0,"B","",NA,"",NA,3,1,"ptt_a_002",NA
"1061",197,"blank.png",0,"B","",NA,"",NA,3,1,"ptt_a_002",NA
"1062",198,"blank.png",0,"B","",NA,"",NA,3,1,"ptt_a_002",NA
"1063",199,"blank.png",0,"B","",NA,"",NA,3,1,"ptt_a_002",NA
"1064",200,"blank.png",0,"B","",NA,"",NA,3,1,"ptt_a_002",NA
"1065",201,"blank.png",0,"B","",NA,"",NA,3,1,"ptt_a_002",NA
"1066",202,"blank.png",0,"B","",NA,"",NA,3,1,"ptt_a_002",NA
"1067",203,"blank.png",0,"B","",NA,"",NA,3,1,"ptt_a_002",NA
"1068",204,"blank.png",0,"B","",NA,"",NA,3,1,"ptt_a_002",NA
"1069",205,"blank.png",0,"B","None",0.392116276373,"",NA,3,1,"ptt_a_002",NA
"1070",206,"blank.png",0,"B","",NA,"",NA,3,1,"ptt_a_002",NA
"1071",207,"blank.png",0,"B","",NA,"",NA,3,1,"ptt_a_002",NA
"1072",208,"blank.png",0,"B","",NA,"",NA,3,1,"ptt_a_002",NA
"1073",209,"blank.png",0,"B","",NA,"",NA,3,1,"ptt_a_002",NA
"1074",210,"blank.png",0,"B","",NA,"",NA,3,1,"ptt_a_002",NA
"1075",211,"blank.png",0,"B","",NA,"",NA,3,1,"ptt_a_002",NA
"1076",212,"blank.png",0,"B","",NA,"",NA,3,1,"ptt_a_002",NA
"1077",213,"blank.png",0,"B","",NA,"",NA,3,1,"ptt_a_002",NA
"1078",214,"blank.png",0,"B","",NA,"",NA,3,1,"ptt_a_002",NA
"1079",215,"blank.png",0,"B","",NA,"",NA,3,1,"ptt_a_002",NA
"1080",216,"blank.png",0,"B","",NA,"",NA,3,1,"ptt_a_002",NA
"1081",1,"blank.png",0,"B","None",0.667099686165,"",NA,3,2,"ptt_a_002",NA
"1082",2,"blank.png",0,"B","",NA,"",NA,3,2,"ptt_a_002",NA
"1083",3,"blank.png",0,"B","",NA,"",NA,3,2,"ptt_a_002",NA
"1084",4,"blank.png",0,"B","",NA,"",NA,3,2,"ptt_a_002",NA
"1085",5,"blank.png",0,"B","",NA,"",NA,3,2,"ptt_a_002",NA
"1086",6,"blank.png",0,"B","",NA,"",NA,3,2,"ptt_a_002",NA
"1087",7,"blank.png",0,"B","",NA,"",NA,3,2,"ptt_a_002",NA
"1088",8,"blank.png",0,"B","",NA,"",NA,3,2,"ptt_a_002",NA
"1089",9,"blank.png",0,"B","",NA,"",NA,3,2,"ptt_a_002",NA
"1090",10,"blank.png",0,"B","",NA,"",NA,3,2,"ptt_a_002",NA
"1091",11,"blank.png",0,"B","",NA,"",NA,3,2,"ptt_a_002",NA
"1092",12,"blank.png",0,"B","",NA,"",NA,3,2,"ptt_a_002",NA
"1093",13,"blank.png",0,"B","None",0.925430286443,"",NA,3,2,"ptt_a_002",NA
"1094",14,"blank.png",0,"B","",NA,"",NA,3,2,"ptt_a_002",NA
"1095",15,"blank.png",0,"B","",NA,"",NA,3,2,"ptt_a_002",NA
"1096",16,"blank.png",0,"B","",NA,"",NA,3,2,"ptt_a_002",NA
"1097",17,"blank.png",0,"B","",NA,"",NA,3,2,"ptt_a_002",NA
"1098",18,"blank.png",0,"B","",NA,"",NA,3,2,"ptt_a_002",NA
"1099",19,"blank.png",0,"B","",NA,"",NA,3,2,"ptt_a_002",NA
"1100",20,"blank.png",0,"B","",NA,"",NA,3,2,"ptt_a_002",NA
"1101",21,"blank.png",0,"B","",NA,"",NA,3,2,"ptt_a_002",NA
"1102",22,"blank.png",0,"B","",NA,"",NA,3,2,"ptt_a_002",NA
"1103",23,"blank.png",0,"B","",NA,"",NA,3,2,"ptt_a_002",NA
"1104",24,"blank.png",0,"B","",NA,"",NA,3,2,"ptt_a_002",NA
"1105",25,"Alien1.bmp",145,"R","",NA,"None",NA,3,2,"ptt_a_002",NA
"1106",26,"Alien6.bmp",146,"R","",NA,"None",NA,3,2,"ptt_a_002",NA
"1107",27,"Alien6.bmp",147,"R","",NA,"None",NA,3,2,"ptt_a_002",NA
"1108",28,"Alien2.bmp",148,"R","",NA,"None",NA,3,2,"ptt_a_002",NA
"1109",29,"Alien3.bmp",149,"R","",NA,"4",0.416910459404,3,2,"ptt_a_002",NA
"1110",30,"Alien11.bmp",150,"R","",NA,"None",NA,3,2,"ptt_a_002",NA
"1111",31,"Alien7.bmp",151,"R","",NA,"None",NA,3,2,"ptt_a_002",NA
"1112",32,"Alien5.bmp",152,"R","",NA,"None",NA,3,2,"ptt_a_002",NA
"1113",33,"Alien5.bmp",153,"R","",NA,"None",NA,3,2,"ptt_a_002",NA
"1114",34,"Alien5.bmp",154,"R","",NA,"None",NA,3,2,"ptt_a_002",NA
"1115",35,"Alien8.bmp",155,"R","",NA,"None",NA,3,2,"ptt_a_002",NA
"1116",36,"Alien7.bmp",156,"R","",NA,"None",NA,3,2,"ptt_a_002",NA
"1117",37,"Alien3.bmp",157,"R","",NA,"4",0.41717925953,3,2,"ptt_a_002",NA
"1118",38,"Alien6.bmp",158,"R","",NA,"None",NA,3,2,"ptt_a_002",NA
"1119",39,"Alien4.bmp",159,"R","",NA,"None",NA,3,2,"ptt_a_002",NA
"1120",40,"Alien10.bmp",160,"R","",NA,"None",NA,3,2,"ptt_a_002",NA
"1121",41,"Alien1.bmp",161,"R","",NA,"None",NA,3,2,"ptt_a_002",NA
"1122",42,"Alien8.bmp",162,"R","",NA,"None",NA,3,2,"ptt_a_002",NA
"1123",43,"Alien9.bmp",163,"R","",NA,"None",NA,3,2,"ptt_a_002",NA
"1124",44,"Alien9.bmp",164,"R","",NA,"None",NA,3,2,"ptt_a_002",NA
"1125",45,"Alien2.bmp",165,"R","",NA,"None",NA,3,2,"ptt_a_002",NA
"1126",46,"Alien4.bmp",166,"R","",NA,"None",NA,3,2,"ptt_a_002",NA
"1127",47,"Alien12.bmp",167,"R","",NA,"None",NA,3,2,"ptt_a_002",NA
"1128",48,"Alien4.bmp",168,"R","",NA,"None",NA,3,2,"ptt_a_002",NA
"1129",49,"Alien12.bmp",169,"R","",NA,"None",NA,3,2,"ptt_a_002",NA
"1130",50,"Alien1.bmp",170,"R","",NA,"None",NA,3,2,"ptt_a_002",NA
"1131",51,"Alien7.bmp",171,"R","",NA,"None",NA,3,2,"ptt_a_002",NA
"1132",52,"Alien5.bmp",172,"R","",NA,"None",NA,3,2,"ptt_a_002",NA
"1133",53,"Alien12.bmp",173,"R","",NA,"None",NA,3,2,"ptt_a_002",NA
"1134",54,"Alien4.bmp",174,"R","",NA,"None",NA,3,2,"ptt_a_002",NA
"1135",55,"Alien8.bmp",175,"R","",NA,"None",NA,3,2,"ptt_a_002",NA
"1136",56,"Alien6.bmp",176,"R","",NA,"None",NA,3,2,"ptt_a_002",NA
"1137",57,"Alien11.bmp",177,"R","",NA,"None",NA,3,2,"ptt_a_002",NA
"1138",58,"Alien7.bmp",178,"R","",NA,"None",NA,3,2,"ptt_a_002",NA
"1139",59,"Alien1.bmp",179,"R","",NA,"None",NA,3,2,"ptt_a_002",NA
"1140",60,"Alien11.bmp",180,"R","",NA,"None",NA,3,2,"ptt_a_002",NA
"1141",61,"Alien9.bmp",181,"R","",NA,"None",NA,3,2,"ptt_a_002",NA
"1142",62,"Alien10.bmp",182,"R","",NA,"None",NA,3,2,"ptt_a_002",NA
"1143",63,"Alien2.bmp",183,"R","",NA,"None",NA,3,2,"ptt_a_002",NA
"1144",64,"Alien2.bmp",184,"R","",NA,"None",NA,3,2,"ptt_a_002",NA
"1145",65,"Alien8.bmp",185,"R","",NA,"None",NA,3,2,"ptt_a_002",NA
"1146",66,"Alien11.bmp",186,"R","",NA,"None",NA,3,2,"ptt_a_002",NA
"1147",67,"Alien3.bmp",187,"R","",NA,"4",0.417042157205,3,2,"ptt_a_002",NA
"1148",68,"Alien3.bmp",188,"R","",NA,"4",0.775487872248,3,2,"ptt_a_002",NA
"1149",69,"Alien9.bmp",189,"R","",NA,"None",NA,3,2,"ptt_a_002",NA
"1150",70,"Alien10.bmp",190,"R","",NA,"None",NA,3,2,"ptt_a_002",NA
"1151",71,"Alien10.bmp",191,"R","",NA,"None",NA,3,2,"ptt_a_002",NA
"1152",72,"Alien12.bmp",192,"R","",NA,"None",NA,3,2,"ptt_a_002",NA
"1153",73,"blank.png",0,"B","",NA,"None",NA,3,2,"ptt_a_002",NA
"1154",74,"blank.png",0,"B","",NA,"None",NA,3,2,"ptt_a_002",NA
"1155",75,"blank.png",0,"B","",NA,"None",NA,3,2,"ptt_a_002",NA
"1156",76,"blank.png",0,"B","",NA,"None",NA,3,2,"ptt_a_002",NA
"1157",77,"blank.png",0,"B","",NA,"None",NA,3,2,"ptt_a_002",NA
"1158",78,"blank.png",0,"B","",NA,"None",NA,3,2,"ptt_a_002",NA
"1159",79,"blank.png",0,"B","",NA,"None",NA,3,2,"ptt_a_002",NA
"1160",80,"blank.png",0,"B","",NA,"None",NA,3,2,"ptt_a_002",NA
"1161",81,"blank.png",0,"B","",NA,"None",NA,3,2,"ptt_a_002",NA
"1162",82,"blank.png",0,"B","",NA,"None",NA,3,2,"ptt_a_002",NA
"1163",83,"blank.png",0,"B","",NA,"None",NA,3,2,"ptt_a_002",NA
"1164",84,"blank.png",0,"B","",NA,"None",NA,3,2,"ptt_a_002",NA
"1165",85,"Alien10.bmp",241,"R","",NA,"None",NA,3,2,"ptt_a_002",NA
"1166",86,"Alien8.bmp",242,"R","",NA,"None",NA,3,2,"ptt_a_002",NA
"1167",87,"Alien9.bmp",243,"R","",NA,"None",NA,3,2,"ptt_a_002",NA
"1168",88,"Alien8.bmp",244,"R","",NA,"None",NA,3,2,"ptt_a_002",NA
"1169",89,"Alien4.bmp",245,"R","",NA,"None",NA,3,2,"ptt_a_002",NA
"1170",90,"Alien7.bmp",246,"R","",NA,"None",NA,3,2,"ptt_a_002",NA
"1171",91,"Alien5.bmp",247,"R","",NA,"None",NA,3,2,"ptt_a_002",NA
"1172",92,"Alien4.bmp",248,"R","",NA,"None",NA,3,2,"ptt_a_002",NA
"1173",93,"Alien8.bmp",249,"R","",NA,"None",NA,3,2,"ptt_a_002",NA
"1174",94,"Alien2.bmp",250,"R","",NA,"None",NA,3,2,"ptt_a_002",NA
"1175",95,"Alien12.bmp",251,"R","",NA,"None",NA,3,2,"ptt_a_002",NA
"1176",96,"Alien12.bmp",252,"R","",NA,"None",NA,3,2,"ptt_a_002",NA
"1177",97,"Alien6.bmp",253,"R","",NA,"None",NA,3,2,"ptt_a_002",NA
"1178",98,"Alien7.bmp",254,"R","",NA,"None",NA,3,2,"ptt_a_002",NA
"1179",99,"Alien9.bmp",255,"R","",NA,"None",NA,3,2,"ptt_a_002",NA
"1180",100,"Alien10.bmp",256,"R","",NA,"None",NA,3,2,"ptt_a_002",NA
"1181",101,"Alien3.bmp",257,"R","",NA,"4",0.400446521118,3,2,"ptt_a_002",NA
"1182",102,"Alien11.bmp",258,"R","",NA,"None",NA,3,2,"ptt_a_002",NA
"1183",103,"Alien9.bmp",259,"R","",NA,"None",NA,3,2,"ptt_a_002",NA
"1184",104,"Alien6.bmp",260,"R","",NA,"None",NA,3,2,"ptt_a_002",NA
"1185",105,"Alien7.bmp",261,"R","",NA,"None",NA,3,2,"ptt_a_002",NA
"1186",106,"Alien1.bmp",262,"R","",NA,"None",NA,3,2,"ptt_a_002",NA
"1187",107,"Alien11.bmp",263,"R","",NA,"None",NA,3,2,"ptt_a_002",NA
"1188",108,"Alien5.bmp",264,"R","",NA,"None",NA,3,2,"ptt_a_002",NA
"1189",109,"Alien11.bmp",265,"R","",NA,"None",NA,3,2,"ptt_a_002",NA
"1190",110,"Alien6.bmp",266,"R","",NA,"None",NA,3,2,"ptt_a_002",NA
"1191",111,"Alien10.bmp",267,"R","",NA,"None",NA,3,2,"ptt_a_002",NA
"1192",112,"Alien4.bmp",268,"R","",NA,"None",NA,3,2,"ptt_a_002",NA
"1193",113,"Alien11.bmp",269,"R","",NA,"None",NA,3,2,"ptt_a_002",NA
"1194",114,"Alien6.bmp",270,"R","",NA,"None",NA,3,2,"ptt_a_002",NA
"1195",115,"Alien2.bmp",271,"R","",NA,"None",NA,3,2,"ptt_a_002",NA
"1196",116,"Alien12.bmp",272,"R","",NA,"None",NA,3,2,"ptt_a_002",NA
"1197",117,"Alien12.bmp",273,"R","",NA,"None",NA,3,2,"ptt_a_002",NA
"1198",118,"Alien4.bmp",274,"R","",NA,"None",NA,3,2,"ptt_a_002",NA
"1199",119,"Alien3.bmp",275,"R","",NA,"4",0.408640232461,3,2,"ptt_a_002",NA
"1200",120,"Alien9.bmp",276,"R","",NA,"None",NA,3,2,"ptt_a_002",NA
"1201",121,"Alien2.bmp",277,"R","",NA,"None",NA,3,2,"ptt_a_002",NA
"1202",122,"Alien8.bmp",278,"R","",NA,"None",NA,3,2,"ptt_a_002",NA
"1203",123,"Alien5.bmp",279,"R","",NA,"None",NA,3,2,"ptt_a_002",NA
"1204",124,"Alien4.bmp",280,"R","",NA,"None",NA,3,2,"ptt_a_002",NA
"1205",125,"Alien3.bmp",281,"R","",NA,"4",0.383634138212,3,2,"ptt_a_002",NA
"1206",126,"Alien1.bmp",282,"R","",NA,"None",NA,3,2,"ptt_a_002",NA
"1207",127,"Alien1.bmp",283,"R","",NA,"None",NA,3,2,"ptt_a_002",NA
"1208",128,"Alien7.bmp",284,"R","",NA,"None",NA,3,2,"ptt_a_002",NA
"1209",129,"Alien6.bmp",285,"R","",NA,"None",NA,3,2,"ptt_a_002",NA
"1210",130,"Alien5.bmp",286,"R","",NA,"None",NA,3,2,"ptt_a_002",NA
"1211",131,"Alien10.bmp",287,"R","",NA,"None",NA,3,2,"ptt_a_002",NA
"1212",132,"Alien5.bmp",288,"R","",NA,"None",NA,3,2,"ptt_a_002",NA
"1213",133,"blank.png",0,"B","",NA,"None",NA,3,2,"ptt_a_002",NA
"1214",134,"blank.png",0,"B","",NA,"None",NA,3,2,"ptt_a_002",NA
"1215",135,"blank.png",0,"B","",NA,"None",NA,3,2,"ptt_a_002",NA
"1216",136,"blank.png",0,"B","",NA,"None",NA,3,2,"ptt_a_002",NA
"1217",137,"blank.png",0,"B","",NA,"None",NA,3,2,"ptt_a_002",NA
"1218",138,"blank.png",0,"B","",NA,"None",NA,3,2,"ptt_a_002",NA
"1219",139,"blank.png",0,"B","",NA,"None",NA,3,2,"ptt_a_002",NA
"1220",140,"blank.png",0,"B","",NA,"None",NA,3,2,"ptt_a_002",NA
"1221",141,"blank.png",0,"B","",NA,"None",NA,3,2,"ptt_a_002",NA
"1222",142,"blank.png",0,"B","",NA,"None",NA,3,2,"ptt_a_002",NA
"1223",143,"blank.png",0,"B","",NA,"None",NA,3,2,"ptt_a_002",NA
"1224",144,"blank.png",0,"B","",NA,"None",NA,3,2,"ptt_a_002",NA
"1225",145,"blank.png",0,"B","4",0.325418851804,"",NA,3,2,"ptt_a_002",NA
"1226",146,"blank.png",0,"B","",NA,"",NA,3,2,"ptt_a_002",NA
"1227",147,"blank.png",0,"B","",NA,"",NA,3,2,"ptt_a_002",NA
"1228",148,"blank.png",0,"B","",NA,"",NA,3,2,"ptt_a_002",NA
"1229",149,"blank.png",0,"B","",NA,"",NA,3,2,"ptt_a_002",NA
"1230",150,"blank.png",0,"B","",NA,"",NA,3,2,"ptt_a_002",NA
"1231",151,"blank.png",0,"B","",NA,"",NA,3,2,"ptt_a_002",NA
"1232",152,"blank.png",0,"B","",NA,"",NA,3,2,"ptt_a_002",NA
"1233",153,"blank.png",0,"B","",NA,"",NA,3,2,"ptt_a_002",NA
"1234",154,"blank.png",0,"B","",NA,"",NA,3,2,"ptt_a_002",NA
"1235",155,"blank.png",0,"B","",NA,"",NA,3,2,"ptt_a_002",NA
"1236",156,"blank.png",0,"B","",NA,"",NA,3,2,"ptt_a_002",NA
"1237",157,"Alien12.bmp",193,"R","",NA,"None",NA,3,2,"ptt_a_002",NA
"1238",158,"Alien1.bmp",194,"R","",NA,"None",NA,3,2,"ptt_a_002",NA
"1239",159,"Alien1.bmp",195,"R","",NA,"None",NA,3,2,"ptt_a_002",NA
"1240",160,"Alien2.bmp",196,"R","",NA,"None",NA,3,2,"ptt_a_002",NA
"1241",161,"Alien7.bmp",197,"R","",NA,"None",NA,3,2,"ptt_a_002",NA
"1242",162,"Alien8.bmp",198,"R","",NA,"None",NA,3,2,"ptt_a_002",NA
"1243",163,"Alien3.bmp",199,"R","",NA,"4",0.383501871489,3,2,"ptt_a_002",NA
"1244",164,"Alien5.bmp",200,"R","",NA,"None",NA,3,2,"ptt_a_002",NA
"1245",165,"Alien2.bmp",201,"R","",NA,"None",NA,3,2,"ptt_a_002",NA
"1246",166,"Alien4.bmp",202,"R","",NA,"None",NA,3,2,"ptt_a_002",NA
"1247",167,"Alien9.bmp",203,"R","",NA,"None",NA,3,2,"ptt_a_002",NA
"1248",168,"Alien6.bmp",204,"R","",NA,"None",NA,3,2,"ptt_a_002",NA
"1249",169,"Alien3.bmp",205,"R","",NA,"4",0.417078281753,3,2,"ptt_a_002",NA
"1250",170,"Alien11.bmp",206,"R","",NA,"None",NA,3,2,"ptt_a_002",NA
"1251",171,"Alien10.bmp",207,"R","",NA,"None",NA,3,2,"ptt_a_002",NA
"1252",172,"Alien4.bmp",208,"R","",NA,"None",NA,3,2,"ptt_a_002",NA
"1253",173,"Alien8.bmp",209,"R","",NA,"None",NA,3,2,"ptt_a_002",NA
"1254",174,"Alien5.bmp",210,"R","",NA,"None",NA,3,2,"ptt_a_002",NA
"1255",175,"Alien9.bmp",211,"R","",NA,"None",NA,3,2,"ptt_a_002",NA
"1256",176,"Alien11.bmp",212,"R","",NA,"None",NA,3,2,"ptt_a_002",NA
"1257",177,"Alien7.bmp",213,"R","",NA,"None",NA,3,2,"ptt_a_002",NA
"1258",178,"Alien10.bmp",214,"R","",NA,"None",NA,3,2,"ptt_a_002",NA
"1259",179,"Alien6.bmp",215,"R","",NA,"None",NA,3,2,"ptt_a_002",NA
"1260",180,"Alien12.bmp",216,"R","",NA,"None",NA,3,2,"ptt_a_002",NA
"1261",181,"Alien7.bmp",217,"R","",NA,"None",NA,3,2,"ptt_a_002",NA
"1262",182,"Alien5.bmp",218,"R","",NA,"None",NA,3,2,"ptt_a_002",NA
"1263",183,"Alien2.bmp",219,"R","",NA,"None",NA,3,2,"ptt_a_002",NA
"1264",184,"Alien4.bmp",220,"R","",NA,"None",NA,3,2,"ptt_a_002",NA
"1265",185,"Alien5.bmp",221,"R","",NA,"None",NA,3,2,"ptt_a_002",NA
"1266",186,"Alien11.bmp",222,"R","",NA,"None",NA,3,2,"ptt_a_002",NA
"1267",187,"Alien11.bmp",223,"R","",NA,"None",NA,3,2,"ptt_a_002",NA
"1268",188,"Alien12.bmp",224,"R","",NA,"None",NA,3,2,"ptt_a_002",NA
"1269",189,"Alien9.bmp",225,"R","",NA,"None",NA,3,2,"ptt_a_002",NA
"1270",190,"Alien4.bmp",226,"R","",NA,"None",NA,3,2,"ptt_a_002",NA
"1271",191,"Alien8.bmp",227,"R","",NA,"None",NA,3,2,"ptt_a_002",NA
"1272",192,"Alien9.bmp",228,"R","",NA,"None",NA,3,2,"ptt_a_002",NA
"1273",193,"Alien6.bmp",229,"R","",NA,"None",NA,3,2,"ptt_a_002",NA
"1274",194,"Alien10.bmp",230,"R","",NA,"None",NA,3,2,"ptt_a_002",NA
"1275",195,"Alien3.bmp",231,"R","",NA,"4",0.508813089458,3,2,"ptt_a_002",NA
"1276",196,"Alien12.bmp",232,"R","",NA,"None",NA,3,2,"ptt_a_002",NA
"1277",197,"Alien6.bmp",233,"R","",NA,"None",NA,3,2,"ptt_a_002",NA
"1278",198,"Alien3.bmp",234,"R","",NA,"4",0.467069705715,3,2,"ptt_a_002",NA
"1279",199,"Alien8.bmp",235,"R","",NA,"None",NA,3,2,"ptt_a_002",NA
"1280",200,"Alien2.bmp",236,"R","",NA,"None",NA,3,2,"ptt_a_002",NA
"1281",201,"Alien7.bmp",237,"R","",NA,"None",NA,3,2,"ptt_a_002",NA
"1282",202,"Alien1.bmp",238,"R","",NA,"None",NA,3,2,"ptt_a_002",NA
"1283",203,"Alien1.bmp",239,"R","",NA,"None",NA,3,2,"ptt_a_002",NA
"1284",204,"Alien10.bmp",240,"R","",NA,"None",NA,3,2,"ptt_a_002",NA
"1285",205,"blank.png",0,"B","",NA,"None",NA,3,2,"ptt_a_002",NA
"1286",206,"blank.png",0,"B","",NA,"None",NA,3,2,"ptt_a_002",NA
"1287",207,"blank.png",0,"B","",NA,"None",NA,3,2,"ptt_a_002",NA
"1288",208,"blank.png",0,"B","",NA,"None",NA,3,2,"ptt_a_002",NA
"1289",209,"blank.png",0,"B","",NA,"None",NA,3,2,"ptt_a_002",NA
"1290",210,"blank.png",0,"B","",NA,"None",NA,3,2,"ptt_a_002",NA
"1291",211,"blank.png",0,"B","",NA,"None",NA,3,2,"ptt_a_002",NA
"1292",212,"blank.png",0,"B","",NA,"None",NA,3,2,"ptt_a_002",NA
"1293",213,"blank.png",0,"B","",NA,"None",NA,3,2,"ptt_a_002",NA
"1294",214,"blank.png",0,"B","",NA,"None",NA,3,2,"ptt_a_002",NA
"1295",215,"blank.png",0,"B","",NA,"None",NA,3,2,"ptt_a_002",NA
"1296",216,"blank.png",0,"B","",NA,"None",NA,3,2,"ptt_a_002",NA
"1297",1,"blank.png",0,"B","None",0.366980475432,"",NA,3,3,"ptt_a_002",NA
"1298",2,"blank.png",0,"B","",NA,"",NA,3,3,"ptt_a_002",NA
"1299",3,"blank.png",0,"B","",NA,"",NA,3,3,"ptt_a_002",NA
"1300",4,"blank.png",0,"B","",NA,"",NA,3,3,"ptt_a_002",NA
"1301",5,"blank.png",0,"B","",NA,"",NA,3,3,"ptt_a_002",NA
"1302",6,"blank.png",0,"B","",NA,"",NA,3,3,"ptt_a_002",NA
"1303",7,"blank.png",0,"B","",NA,"",NA,3,3,"ptt_a_002",NA
"1304",8,"blank.png",0,"B","",NA,"",NA,3,3,"ptt_a_002",NA
"1305",9,"blank.png",0,"B","",NA,"",NA,3,3,"ptt_a_002",NA
"1306",10,"blank.png",0,"B","",NA,"",NA,3,3,"ptt_a_002",NA
"1307",11,"blank.png",0,"B","",NA,"",NA,3,3,"ptt_a_002",NA
"1308",12,"blank.png",0,"B","",NA,"",NA,3,3,"ptt_a_002",NA
"1309",13,"blank.png",0,"B","None",0.325234531716,"",NA,3,3,"ptt_a_002",NA
"1310",14,"blank.png",0,"B","",NA,"",NA,3,3,"ptt_a_002",NA
"1311",15,"blank.png",0,"B","",NA,"",NA,3,3,"ptt_a_002",NA
"1312",16,"blank.png",0,"B","",NA,"",NA,3,3,"ptt_a_002",NA
"1313",17,"blank.png",0,"B","",NA,"",NA,3,3,"ptt_a_002",NA
"1314",18,"blank.png",0,"B","",NA,"",NA,3,3,"ptt_a_002",NA
"1315",19,"blank.png",0,"B","",NA,"",NA,3,3,"ptt_a_002",NA
"1316",20,"blank.png",0,"B","",NA,"",NA,3,3,"ptt_a_002",NA
"1317",21,"blank.png",0,"B","",NA,"",NA,3,3,"ptt_a_002",NA
"1318",22,"blank.png",0,"B","",NA,"",NA,3,3,"ptt_a_002",NA
"1319",23,"blank.png",0,"B","",NA,"",NA,3,3,"ptt_a_002",NA
"1320",24,"blank.png",0,"B","",NA,"",NA,3,3,"ptt_a_002",NA
"1321",25,"Alien4.bmp",1,"S","",NA,"None",NA,3,3,"ptt_a_002",NA
"1322",26,"Alien5.bmp",2,"S","",NA,"None",NA,3,3,"ptt_a_002",NA
"1323",27,"Alien6.bmp",3,"S","",NA,"None",NA,3,3,"ptt_a_002",NA
"1324",28,"Alien1.bmp",4,"S","",NA,"None",NA,3,3,"ptt_a_002",NA
"1325",29,"Alien2.bmp",5,"S","",NA,"None",NA,3,3,"ptt_a_002",NA
"1326",30,"Alien3.bmp",6,"S","",NA,"4",0.400337863306,3,3,"ptt_a_002",NA
"1327",31,"Alien10.bmp",7,"S","",NA,"None",NA,3,3,"ptt_a_002",NA
"1328",32,"Alien11.bmp",8,"S","",NA,"None",NA,3,3,"ptt_a_002",NA
"1329",33,"Alien12.bmp",9,"S","",NA,"None",NA,3,3,"ptt_a_002",NA
"1330",34,"Alien4.bmp",10,"S","",NA,"None",NA,3,3,"ptt_a_002",NA
"1331",35,"Alien5.bmp",11,"S","",NA,"None",NA,3,3,"ptt_a_002",NA
"1332",36,"Alien6.bmp",12,"S","",NA,"None",NA,3,3,"ptt_a_002",NA
"1333",37,"Alien7.bmp",13,"S","",NA,"None",NA,3,3,"ptt_a_002",NA
"1334",38,"Alien8.bmp",14,"S","",NA,"None",NA,3,3,"ptt_a_002",NA
"1335",39,"Alien9.bmp",15,"S","",NA,"None",NA,3,3,"ptt_a_002",NA
"1336",40,"Alien1.bmp",16,"S","",NA,"None",NA,3,3,"ptt_a_002",NA
"1337",41,"Alien2.bmp",17,"S","",NA,"None",NA,3,3,"ptt_a_002",NA
"1338",42,"Alien3.bmp",18,"S","",NA,"4",0.391959831875,3,3,"ptt_a_002",NA
"1339",43,"Alien10.bmp",19,"S","",NA,"None",NA,3,3,"ptt_a_002",NA
"1340",44,"Alien11.bmp",20,"S","",NA,"None",NA,3,3,"ptt_a_002",NA
"1341",45,"Alien12.bmp",21,"S","",NA,"None",NA,3,3,"ptt_a_002",NA
"1342",46,"Alien4.bmp",22,"S","",NA,"None",NA,3,3,"ptt_a_002",NA
"1343",47,"Alien5.bmp",23,"S","",NA,"None",NA,3,3,"ptt_a_002",NA
"1344",48,"Alien6.bmp",24,"S","",NA,"None",NA,3,3,"ptt_a_002",NA
"1345",49,"Alien7.bmp",25,"S","",NA,"None",NA,3,3,"ptt_a_002",NA
"1346",50,"Alien8.bmp",26,"S","",NA,"None",NA,3,3,"ptt_a_002",NA
"1347",51,"Alien9.bmp",27,"S","",NA,"None",NA,3,3,"ptt_a_002",NA
"1348",52,"Alien1.bmp",28,"S","",NA,"None",NA,3,3,"ptt_a_002",NA
"1349",53,"Alien2.bmp",29,"S","",NA,"None",NA,3,3,"ptt_a_002",NA
"1350",54,"Alien3.bmp",30,"S","",NA,"4",0.37540714693,3,3,"ptt_a_002",NA
"1351",55,"Alien7.bmp",31,"S","",NA,"None",NA,3,3,"ptt_a_002",NA
"1352",56,"Alien8.bmp",32,"S","",NA,"None",NA,3,3,"ptt_a_002",NA
"1353",57,"Alien9.bmp",33,"S","",NA,"None",NA,3,3,"ptt_a_002",NA
"1354",58,"Alien10.bmp",34,"S","",NA,"None",NA,3,3,"ptt_a_002",NA
"1355",59,"Alien11.bmp",35,"S","",NA,"None",NA,3,3,"ptt_a_002",NA
"1356",60,"Alien12.bmp",36,"S","",NA,"None",NA,3,3,"ptt_a_002",NA
"1357",61,"Alien4.bmp",37,"S","",NA,"None",NA,3,3,"ptt_a_002",NA
"1358",62,"Alien5.bmp",38,"S","",NA,"None",NA,3,3,"ptt_a_002",NA
"1359",63,"Alien6.bmp",39,"S","",NA,"None",NA,3,3,"ptt_a_002",NA
"1360",64,"Alien10.bmp",40,"S","",NA,"None",NA,3,3,"ptt_a_002",NA
"1361",65,"Alien11.bmp",41,"S","",NA,"None",NA,3,3,"ptt_a_002",NA
"1362",66,"Alien12.bmp",42,"S","",NA,"None",NA,3,3,"ptt_a_002",NA
"1363",67,"Alien4.bmp",43,"S","",NA,"None",NA,3,3,"ptt_a_002",NA
"1364",68,"Alien5.bmp",44,"S","",NA,"None",NA,3,3,"ptt_a_002",NA
"1365",69,"Alien6.bmp",45,"S","",NA,"None",NA,3,3,"ptt_a_002",NA
"1366",70,"Alien7.bmp",46,"S","",NA,"None",NA,3,3,"ptt_a_002",NA
"1367",71,"Alien8.bmp",47,"S","",NA,"None",NA,3,3,"ptt_a_002",NA
"1368",72,"Alien9.bmp",48,"S","",NA,"None",NA,3,3,"ptt_a_002",NA
"1369",73,"blank.png",0,"B","",NA,"None",NA,3,3,"ptt_a_002",NA
"1370",74,"blank.png",0,"B","",NA,"None",NA,3,3,"ptt_a_002",NA
"1371",75,"blank.png",0,"B","",NA,"None",NA,3,3,"ptt_a_002",NA
"1372",76,"blank.png",0,"B","",NA,"None",NA,3,3,"ptt_a_002",NA
"1373",77,"blank.png",0,"B","",NA,"None",NA,3,3,"ptt_a_002",NA
"1374",78,"blank.png",0,"B","",NA,"None",NA,3,3,"ptt_a_002",NA
"1375",79,"blank.png",0,"B","",NA,"None",NA,3,3,"ptt_a_002",NA
"1376",80,"blank.png",0,"B","",NA,"None",NA,3,3,"ptt_a_002",NA
"1377",81,"blank.png",0,"B","",NA,"None",NA,3,3,"ptt_a_002",NA
"1378",82,"blank.png",0,"B","",NA,"None",NA,3,3,"ptt_a_002",NA
"1379",83,"blank.png",0,"B","",NA,"None",NA,3,3,"ptt_a_002",NA
"1380",84,"blank.png",0,"B","",NA,"None",NA,3,3,"ptt_a_002",NA
"1381",85,"Alien1.bmp",49,"S","",NA,"None",NA,3,3,"ptt_a_002",NA
"1382",86,"Alien2.bmp",50,"S","",NA,"None",NA,3,3,"ptt_a_002",NA
"1383",87,"Alien3.bmp",51,"S","",NA,"4",0.317047647026,3,3,"ptt_a_002",NA
"1384",88,"Alien10.bmp",52,"S","",NA,"None",NA,3,3,"ptt_a_002",NA
"1385",89,"Alien11.bmp",53,"S","",NA,"None",NA,3,3,"ptt_a_002",NA
"1386",90,"Alien12.bmp",54,"S","",NA,"None",NA,3,3,"ptt_a_002",NA
"1387",91,"Alien4.bmp",55,"S","",NA,"None",NA,3,3,"ptt_a_002",NA
"1388",92,"Alien5.bmp",56,"S","",NA,"None",NA,3,3,"ptt_a_002",NA
"1389",93,"Alien6.bmp",57,"S","",NA,"None",NA,3,3,"ptt_a_002",NA
"1390",94,"Alien7.bmp",58,"S","",NA,"None",NA,3,3,"ptt_a_002",NA
"1391",95,"Alien8.bmp",59,"S","",NA,"None",NA,3,3,"ptt_a_002",NA
"1392",96,"Alien9.bmp",60,"S","",NA,"None",NA,3,3,"ptt_a_002",NA
"1393",97,"Alien1.bmp",61,"S","",NA,"None",NA,3,3,"ptt_a_002",NA
"1394",98,"Alien2.bmp",62,"S","",NA,"None",NA,3,3,"ptt_a_002",NA
"1395",99,"Alien3.bmp",63,"S","",NA,"4",0.383764698287,3,3,"ptt_a_002",NA
"1396",100,"Alien7.bmp",64,"S","",NA,"None",NA,3,3,"ptt_a_002",NA
"1397",101,"Alien8.bmp",65,"S","",NA,"None",NA,3,3,"ptt_a_002",NA
"1398",102,"Alien9.bmp",66,"S","",NA,"None",NA,3,3,"ptt_a_002",NA
"1399",103,"Alien4.bmp",67,"S","",NA,"None",NA,3,3,"ptt_a_002",NA
"1400",104,"Alien5.bmp",68,"S","",NA,"None",NA,3,3,"ptt_a_002",NA
"1401",105,"Alien6.bmp",69,"S","",NA,"None",NA,3,3,"ptt_a_002",NA
"1402",106,"Alien10.bmp",70,"S","",NA,"None",NA,3,3,"ptt_a_002",NA
"1403",107,"Alien11.bmp",71,"S","",NA,"None",NA,3,3,"ptt_a_002",NA
"1404",108,"Alien12.bmp",72,"S","",NA,"None",NA,3,3,"ptt_a_002",NA
"1405",109,"Alien1.bmp",73,"S","",NA,"None",NA,3,3,"ptt_a_002",NA
"1406",110,"Alien2.bmp",74,"S","",NA,"None",NA,3,3,"ptt_a_002",NA
"1407",111,"Alien3.bmp",75,"S","",NA,"4",0.242162484443,3,3,"ptt_a_002",NA
"1408",112,"Alien4.bmp",76,"S","",NA,"None",NA,3,3,"ptt_a_002",NA
"1409",113,"Alien5.bmp",77,"S","",NA,"None",NA,3,3,"ptt_a_002",NA
"1410",114,"Alien6.bmp",78,"S","",NA,"None",NA,3,3,"ptt_a_002",NA
"1411",115,"Alien7.bmp",79,"S","",NA,"None",NA,3,3,"ptt_a_002",NA
"1412",116,"Alien8.bmp",80,"S","",NA,"None",NA,3,3,"ptt_a_002",NA
"1413",117,"Alien9.bmp",81,"S","",NA,"None",NA,3,3,"ptt_a_002",NA
"1414",118,"Alien10.bmp",82,"S","",NA,"None",NA,3,3,"ptt_a_002",NA
"1415",119,"Alien11.bmp",83,"S","",NA,"None",NA,3,3,"ptt_a_002",NA
"1416",120,"Alien12.bmp",84,"S","",NA,"None",NA,3,3,"ptt_a_002",NA
"1417",121,"Alien1.bmp",85,"S","",NA,"None",NA,3,3,"ptt_a_002",NA
"1418",122,"Alien2.bmp",86,"S","",NA,"None",NA,3,3,"ptt_a_002",NA
"1419",123,"Alien3.bmp",87,"S","",NA,"4",0.383701836108,3,3,"ptt_a_002",NA
"1420",124,"Alien7.bmp",88,"S","",NA,"None",NA,3,3,"ptt_a_002",NA
"1421",125,"Alien8.bmp",89,"S","",NA,"None",NA,3,3,"ptt_a_002",NA
"1422",126,"Alien9.bmp",90,"S","",NA,"None",NA,3,3,"ptt_a_002",NA
"1423",127,"Alien4.bmp",91,"S","",NA,"None",NA,3,3,"ptt_a_002",NA
"1424",128,"Alien5.bmp",92,"S","",NA,"None",NA,3,3,"ptt_a_002",NA
"1425",129,"Alien6.bmp",93,"S","",NA,"None",NA,3,3,"ptt_a_002",NA
"1426",130,"Alien10.bmp",94,"S","",NA,"None",NA,3,3,"ptt_a_002",NA
"1427",131,"Alien11.bmp",95,"S","",NA,"None",NA,3,3,"ptt_a_002",NA
"1428",132,"Alien12.bmp",96,"S","",NA,"None",NA,3,3,"ptt_a_002",NA
"1429",133,"blank.png",0,"B","",NA,"None",NA,3,3,"ptt_a_002",NA
"1430",134,"blank.png",0,"B","",NA,"None",NA,3,3,"ptt_a_002",NA
"1431",135,"blank.png",0,"B","",NA,"None",NA,3,3,"ptt_a_002",NA
"1432",136,"blank.png",0,"B","",NA,"None",NA,3,3,"ptt_a_002",NA
"1433",137,"blank.png",0,"B","",NA,"None",NA,3,3,"ptt_a_002",NA
"1434",138,"blank.png",0,"B","",NA,"None",NA,3,3,"ptt_a_002",NA
"1435",139,"blank.png",0,"B","",NA,"None",NA,3,3,"ptt_a_002",NA
"1436",140,"blank.png",0,"B","",NA,"None",NA,3,3,"ptt_a_002",NA
"1437",141,"blank.png",0,"B","",NA,"None",NA,3,3,"ptt_a_002",NA
"1438",142,"blank.png",0,"B","",NA,"None",NA,3,3,"ptt_a_002",NA
"1439",143,"blank.png",0,"B","",NA,"None",NA,3,3,"ptt_a_002",NA
"1440",144,"blank.png",0,"B","",NA,"None",NA,3,3,"ptt_a_002",NA
"1441",145,"blank.png",0,"B","None",0.400351232209,"",NA,3,3,"ptt_a_002",NA
"1442",146,"blank.png",0,"B","",NA,"",NA,3,3,"ptt_a_002",NA
"1443",147,"blank.png",0,"B","",NA,"",NA,3,3,"ptt_a_002",NA
"1444",148,"blank.png",0,"B","",NA,"",NA,3,3,"ptt_a_002",NA
"1445",149,"blank.png",0,"B","",NA,"",NA,3,3,"ptt_a_002",NA
"1446",150,"blank.png",0,"B","",NA,"",NA,3,3,"ptt_a_002",NA
"1447",151,"blank.png",0,"B","",NA,"",NA,3,3,"ptt_a_002",NA
"1448",152,"blank.png",0,"B","",NA,"",NA,3,3,"ptt_a_002",NA
"1449",153,"blank.png",0,"B","",NA,"",NA,3,3,"ptt_a_002",NA
"1450",154,"blank.png",0,"B","",NA,"",NA,3,3,"ptt_a_002",NA
"1451",155,"blank.png",0,"B","",NA,"",NA,3,3,"ptt_a_002",NA
"1452",156,"blank.png",0,"B","",NA,"",NA,3,3,"ptt_a_002",NA
"1453",157,"Alien4.bmp",97,"S","",NA,"None",NA,3,3,"ptt_a_002",NA
"1454",158,"Alien5.bmp",98,"S","",NA,"None",NA,3,3,"ptt_a_002",NA
"1455",159,"Alien6.bmp",99,"S","",NA,"None",NA,3,3,"ptt_a_002",NA
"1456",160,"Alien1.bmp",100,"S","",NA,"None",NA,3,3,"ptt_a_002",NA
"1457",161,"Alien2.bmp",101,"S","",NA,"None",NA,3,3,"ptt_a_002",NA
"1458",162,"Alien3.bmp",102,"S","",NA,"4",0.283682863635,3,3,"ptt_a_002",NA
"1459",163,"Alien7.bmp",103,"S","",NA,"None",NA,3,3,"ptt_a_002",NA
"1460",164,"Alien8.bmp",104,"S","",NA,"None",NA,3,3,"ptt_a_002",NA
"1461",165,"Alien9.bmp",105,"S","",NA,"None",NA,3,3,"ptt_a_002",NA
"1462",166,"Alien10.bmp",106,"S","",NA,"None",NA,3,3,"ptt_a_002",NA
"1463",167,"Alien11.bmp",107,"S","",NA,"None",NA,3,3,"ptt_a_002",NA
"1464",168,"Alien12.bmp",108,"S","",NA,"None",NA,3,3,"ptt_a_002",NA
"1465",169,"Alien1.bmp",109,"S","",NA,"None",NA,3,3,"ptt_a_002",NA
"1466",170,"Alien2.bmp",110,"S","",NA,"None",NA,3,3,"ptt_a_002",NA
"1467",171,"Alien3.bmp",111,"S","",NA,"4",0.425326890836,3,3,"ptt_a_002",NA
"1468",172,"Alien4.bmp",112,"S","",NA,"None",NA,3,3,"ptt_a_002",NA
"1469",173,"Alien5.bmp",113,"S","",NA,"None",NA,3,3,"ptt_a_002",NA
"1470",174,"Alien6.bmp",114,"S","",NA,"None",NA,3,3,"ptt_a_002",NA
"1471",175,"Alien10.bmp",115,"S","",NA,"None",NA,3,3,"ptt_a_002",NA
"1472",176,"Alien11.bmp",116,"S","",NA,"None",NA,3,3,"ptt_a_002",NA
"1473",177,"Alien12.bmp",117,"S","",NA,"None",NA,3,3,"ptt_a_002",NA
"1474",178,"Alien7.bmp",118,"S","",NA,"None",NA,3,3,"ptt_a_002",NA
"1475",179,"Alien8.bmp",119,"S","",NA,"None",NA,3,3,"ptt_a_002",NA
"1476",180,"Alien9.bmp",120,"S","",NA,"None",NA,3,3,"ptt_a_002",NA
"1477",181,"Alien1.bmp",121,"S","",NA,"None",NA,3,3,"ptt_a_002",NA
"1478",182,"Alien2.bmp",122,"S","",NA,"None",NA,3,3,"ptt_a_002",NA
"1479",183,"Alien3.bmp",123,"S","",NA,"4",0.366983319866,3,3,"ptt_a_002",NA
"1480",184,"Alien4.bmp",124,"S","",NA,"None",NA,3,3,"ptt_a_002",NA
"1481",185,"Alien5.bmp",125,"S","",NA,"None",NA,3,3,"ptt_a_002",NA
"1482",186,"Alien6.bmp",126,"S","",NA,"None",NA,3,3,"ptt_a_002",NA
"1483",187,"Alien1.bmp",127,"S","",NA,"None",NA,3,3,"ptt_a_002",NA
"1484",188,"Alien2.bmp",128,"S","",NA,"None",NA,3,3,"ptt_a_002",NA
"1485",189,"Alien3.bmp",129,"S","",NA,"4",0.400288654375,3,3,"ptt_a_002",NA
"1486",190,"Alien7.bmp",130,"S","",NA,"None",NA,3,3,"ptt_a_002",NA
"1487",191,"Alien8.bmp",131,"S","",NA,"None",NA,3,3,"ptt_a_002",NA
"1488",192,"Alien9.bmp",132,"S","",NA,"None",NA,3,3,"ptt_a_002",NA
"1489",193,"Alien10.bmp",133,"S","",NA,"None",NA,3,3,"ptt_a_002",NA
"1490",194,"Alien11.bmp",134,"S","",NA,"None",NA,3,3,"ptt_a_002",NA
"1491",195,"Alien12.bmp",135,"S","",NA,"None",NA,3,3,"ptt_a_002",NA
"1492",196,"Alien7.bmp",136,"S","",NA,"None",NA,3,3,"ptt_a_002",NA
"1493",197,"Alien8.bmp",137,"S","",NA,"None",NA,3,3,"ptt_a_002",NA
"1494",198,"Alien9.bmp",138,"S","",NA,"None",NA,3,3,"ptt_a_002",NA
"1495",199,"Alien10.bmp",139,"S","",NA,"None",NA,3,3,"ptt_a_002",NA
"1496",200,"Alien11.bmp",140,"S","",NA,"None",NA,3,3,"ptt_a_002",NA
"1497",201,"Alien12.bmp",141,"S","",NA,"None",NA,3,3,"ptt_a_002",NA
"1498",202,"Alien1.bmp",142,"S","",NA,"None",NA,3,3,"ptt_a_002",NA
"1499",203,"Alien2.bmp",143,"S","",NA,"None",NA,3,3,"ptt_a_002",NA
"1500",204,"Alien3.bmp",144,"S","",NA,"4",0.492226271133,3,3,"ptt_a_002",NA
"1501",205,"blank.png",0,"B","",NA,"None",NA,3,3,"ptt_a_002",NA
"1502",206,"blank.png",0,"B","",NA,"None",NA,3,3,"ptt_a_002",NA
"1503",207,"blank.png",0,"B","",NA,"None",NA,3,3,"ptt_a_002",NA
"1504",208,"blank.png",0,"B","",NA,"None",NA,3,3,"ptt_a_002",NA
"1505",209,"blank.png",0,"B","",NA,"None",NA,3,3,"ptt_a_002",NA
"1506",210,"blank.png",0,"B","",NA,"None",NA,3,3,"ptt_a_002",NA
"1507",211,"blank.png",0,"B","",NA,"None",NA,3,3,"ptt_a_002",NA
"1508",212,"blank.png",0,"B","",NA,"None",NA,3,3,"ptt_a_002",NA
"1509",213,"blank.png",0,"B","",NA,"None",NA,3,3,"ptt_a_002",NA
"1510",214,"blank.png",0,"B","",NA,"None",NA,3,3,"ptt_a_002",NA
"1511",215,"blank.png",0,"B","",NA,"None",NA,3,3,"ptt_a_002",NA
"1512",216,"blank.png",0,"B","",NA,"None",NA,3,3,"ptt_a_002",NA
"1513",1,"blank.png",0,"B","None",0.383917445084,"",NA,3,4,"ptt_a_002",NA
"1514",2,"blank.png",0,"B","",NA,"",NA,3,4,"ptt_a_002",NA
"1515",3,"blank.png",0,"B","",NA,"",NA,3,4,"ptt_a_002",NA
"1516",4,"blank.png",0,"B","",NA,"",NA,3,4,"ptt_a_002",NA
"1517",5,"blank.png",0,"B","",NA,"",NA,3,4,"ptt_a_002",NA
"1518",6,"blank.png",0,"B","",NA,"",NA,3,4,"ptt_a_002",NA
"1519",7,"blank.png",0,"B","",NA,"",NA,3,4,"ptt_a_002",NA
"1520",8,"blank.png",0,"B","",NA,"",NA,3,4,"ptt_a_002",NA
"1521",9,"blank.png",0,"B","",NA,"",NA,3,4,"ptt_a_002",NA
"1522",10,"blank.png",0,"B","",NA,"",NA,3,4,"ptt_a_002",NA
"1523",11,"blank.png",0,"B","",NA,"",NA,3,4,"ptt_a_002",NA
"1524",12,"blank.png",0,"B","",NA,"",NA,3,4,"ptt_a_002",NA
"1525",13,"blank.png",0,"B","None",0.466946541215,"",NA,3,4,"ptt_a_002",NA
"1526",14,"blank.png",0,"B","",NA,"",NA,3,4,"ptt_a_002",NA
"1527",15,"blank.png",0,"B","",NA,"",NA,3,4,"ptt_a_002",NA
"1528",16,"blank.png",0,"B","",NA,"",NA,3,4,"ptt_a_002",NA
"1529",17,"blank.png",0,"B","",NA,"",NA,3,4,"ptt_a_002",NA
"1530",18,"blank.png",0,"B","",NA,"",NA,3,4,"ptt_a_002",NA
