soundFile,word,location,repetition,trialnum,condition,fam_trials_loop.thisRepN,fam_trials_loop.thisTrialN,fam_trials_loop.thisN,fam_trials_loop.thisIndex,trials_1.thisRepN,trials_1.thisTrialN,trials_1.thisN,trials_1.thisIndex,sound_block_key_resp.keys,sound_block_key_resp.rt,tone_block_key_resp.keys,tone_block_key_resp.rt,starget,Run,PartID,frameRate,ttarget,expName,date,
tu.wav,0,1,1,481,R,0,0,0,0,,,,,None,,,,pu,4,blast_a_018,119.983694015,1C,auditory,2018_Jul_26_1450,
bi.wav,0,2,1,482,R,0,1,1,1,,,,,None,,,,pu,4,blast_a_018,119.983694015,1C,auditory,2018_Jul_26_1450,
ta.wav,0,3,1,483,R,0,2,2,2,,,,,None,,,,pu,4,blast_a_018,119.983694015,1C,auditory,2018_Jul_26_1450,
ti.wav,0,1,1,484,R,0,3,3,3,,,,,None,,,,pu,4,blast_a_018,119.983694015,1C,auditory,2018_Jul_26_1450,
pa.wav,0,2,1,485,R,0,4,4,4,,,,,None,,,,pu,4,blast_a_018,119.983694015,1C,auditory,2018_Jul_26_1450,
du.wav,0,3,1,486,R,0,5,5,5,,,,,None,,,,pu,4,blast_a_018,119.983694015,1C,auditory,2018_Jul_26_1450,
du.wav,0,1,1,487,R,0,6,6,6,,,,,None,,,,pu,4,blast_a_018,119.983694015,1C,auditory,2018_Jul_26_1450,
pi.wav,0,2,1,488,R,0,7,7,7,,,,,None,,,,pu,4,blast_a_018,119.983694015,1C,auditory,2018_Jul_26_1450,
bu.wav,0,3,1,489,R,0,8,8,8,,,,,None,,,,pu,4,blast_a_018,119.983694015,1C,auditory,2018_Jul_26_1450,
ba.wav,0,1,1,490,R,0,9,9,9,,,,,None,,,,pu,4,blast_a_018,119.983694015,1C,auditory,2018_Jul_26_1450,
ti.wav,0,2,1,491,R,0,10,10,10,,,,,None,,,,pu,4,blast_a_018,119.983694015,1C,auditory,2018_Jul_26_1450,
da.wav,0,3,1,492,R,0,11,11,11,,,,,None,,,,pu,4,blast_a_018,119.983694015,1C,auditory,2018_Jul_26_1450,
pu.wav,0,1,1,493,R,0,12,12,12,,,,,None,,,,pu,4,blast_a_018,119.983694015,1C,auditory,2018_Jul_26_1450,
pa.wav,0,2,1,494,R,0,13,13,13,,,,,3,0.0920086960614,,,pu,4,blast_a_018,119.983694015,1C,auditory,2018_Jul_26_1450,
ba.wav,0,3,1,495,R,0,14,14,14,,,,,None,,,,pu,4,blast_a_018,119.983694015,1C,auditory,2018_Jul_26_1450,
pi.wav,0,1,1,496,R,0,15,15,15,,,,,None,,,,pu,4,blast_a_018,119.983694015,1C,auditory,2018_Jul_26_1450,
tu.wav,0,2,1,497,R,0,16,16,16,,,,,None,,,,pu,4,blast_a_018,119.983694015,1C,auditory,2018_Jul_26_1450,
ta.wav,0,3,1,498,R,0,17,17,17,,,,,None,,,,pu,4,blast_a_018,119.983694015,1C,auditory,2018_Jul_26_1450,
di.wav,0,1,1,499,R,0,18,18,18,,,,,None,,,,pu,4,blast_a_018,119.983694015,1C,auditory,2018_Jul_26_1450,
bi.wav,0,2,1,500,R,0,19,19,19,,,,,None,,,,pu,4,blast_a_018,119.983694015,1C,auditory,2018_Jul_26_1450,
da.wav,0,3,1,501,R,0,20,20,20,,,,,None,,,,pu,4,blast_a_018,119.983694015,1C,auditory,2018_Jul_26_1450,
di.wav,0,1,1,502,R,0,21,21,21,,,,,None,,,,pu,4,blast_a_018,119.983694015,1C,auditory,2018_Jul_26_1450,
pu.wav,0,2,1,503,R,0,22,22,22,,,,,None,,,,pu,4,blast_a_018,119.983694015,1C,auditory,2018_Jul_26_1450,
bu.wav,0,3,1,504,R,0,23,23,23,,,,,3,0.133701348957,,,pu,4,blast_a_018,119.983694015,1C,auditory,2018_Jul_26_1450,
ta.wav,0,1,1,505,R,0,24,24,24,,,,,None,,,,pu,4,blast_a_018,119.983694015,1C,auditory,2018_Jul_26_1450,
di.wav,0,2,1,506,R,0,25,25,25,,,,,None,,,,pu,4,blast_a_018,119.983694015,1C,auditory,2018_Jul_26_1450,
bi.wav,0,3,1,507,R,0,26,26,26,,,,,None,,,,pu,4,blast_a_018,119.983694015,1C,auditory,2018_Jul_26_1450,
bu.wav,0,1,1,508,R,0,27,27,27,,,,,None,,,,pu,4,blast_a_018,119.983694015,1C,auditory,2018_Jul_26_1450,
du.wav,0,2,1,509,R,0,28,28,28,,,,,None,,,,pu,4,blast_a_018,119.983694015,1C,auditory,2018_Jul_26_1450,
da.wav,0,3,1,510,R,0,29,29,29,,,,,None,,,,pu,4,blast_a_018,119.983694015,1C,auditory,2018_Jul_26_1450,
ti.wav,0,1,1,511,R,0,30,30,30,,,,,None,,,,pu,4,blast_a_018,119.983694015,1C,auditory,2018_Jul_26_1450,
pu.wav,0,2,1,512,R,0,31,31,31,,,,,None,,,,pu,4,blast_a_018,119.983694015,1C,auditory,2018_Jul_26_1450,
di.wav,0,3,1,513,R,0,32,32,32,,,,,3,0.0920932753324,,,pu,4,blast_a_018,119.983694015,1C,auditory,2018_Jul_26_1450,
ba.wav,0,1,1,514,R,0,33,33,33,,,,,None,,,,pu,4,blast_a_018,119.983694015,1C,auditory,2018_Jul_26_1450,
ta.wav,0,2,1,515,R,0,34,34,34,,,,,None,,,,pu,4,blast_a_018,119.983694015,1C,auditory,2018_Jul_26_1450,
bi.wav,0,3,1,516,R,0,35,35,35,,,,,None,,,,pu,4,blast_a_018,119.983694015,1C,auditory,2018_Jul_26_1450,
pi.wav,0,1,1,517,R,0,36,36,36,,,,,None,,,,pu,4,blast_a_018,119.983694015,1C,auditory,2018_Jul_26_1450,
da.wav,0,2,1,518,R,0,37,37,37,,,,,None,,,,pu,4,blast_a_018,119.983694015,1C,auditory,2018_Jul_26_1450,
pa.wav,0,3,1,519,R,0,38,38,38,,,,,None,,,,pu,4,blast_a_018,119.983694015,1C,auditory,2018_Jul_26_1450,
pi.wav,0,1,1,520,R,0,39,39,39,,,,,None,,,,pu,4,blast_a_018,119.983694015,1C,auditory,2018_Jul_26_1450,
du.wav,0,2,1,521,R,0,40,40,40,,,,,None,,,,pu,4,blast_a_018,119.983694015,1C,auditory,2018_Jul_26_1450,
tu.wav,0,3,1,522,R,0,41,41,41,,,,,None,,,,pu,4,blast_a_018,119.983694015,1C,auditory,2018_Jul_26_1450,
pa.wav,0,1,1,523,R,0,42,42,42,,,,,None,,,,pu,4,blast_a_018,119.983694015,1C,auditory,2018_Jul_26_1450,
tu.wav,0,2,1,524,R,0,43,43,43,,,,,None,,,,pu,4,blast_a_018,119.983694015,1C,auditory,2018_Jul_26_1450,
ti.wav,0,3,1,525,R,0,44,44,44,,,,,None,,,,pu,4,blast_a_018,119.983694015,1C,auditory,2018_Jul_26_1450,
ba.wav,0,1,1,526,R,0,45,45,45,,,,,None,,,,pu,4,blast_a_018,119.983694015,1C,auditory,2018_Jul_26_1450,
bu.wav,0,2,1,527,R,0,46,46,46,,,,,None,,,,pu,4,blast_a_018,119.983694015,1C,auditory,2018_Jul_26_1450,
pu.wav,0,3,1,528,R,0,47,47,47,,,,,None,,,,pu,4,blast_a_018,119.983694015,1C,auditory,2018_Jul_26_1450,
pa.wav,0,1,1,529,R,0,48,48,48,,,,,3,0.150551510211,,,pu,4,blast_a_018,119.983694015,1C,auditory,2018_Jul_26_1450,
da.wav,0,2,1,530,R,0,49,49,49,,,,,None,,,,pu,4,blast_a_018,119.983694015,1C,auditory,2018_Jul_26_1450,
pi.wav,0,3,1,531,R,0,50,50,50,,,,,None,,,,pu,4,blast_a_018,119.983694015,1C,auditory,2018_Jul_26_1450,
tu.wav,0,1,1,532,R,0,51,51,51,,,,,None,,,,pu,4,blast_a_018,119.983694015,1C,auditory,2018_Jul_26_1450,
du.wav,0,2,1,533,R,0,52,52,52,,,,,None,,,,pu,4,blast_a_018,119.983694015,1C,auditory,2018_Jul_26_1450,
bi.wav,0,3,1,534,R,0,53,53,53,,,,,None,,,,pu,4,blast_a_018,119.983694015,1C,auditory,2018_Jul_26_1450,
ta.wav,0,1,1,535,R,0,54,54,54,,,,,None,,,,pu,4,blast_a_018,119.983694015,1C,auditory,2018_Jul_26_1450,
bu.wav,0,2,1,536,R,0,55,55,55,,,,,None,,,,pu,4,blast_a_018,119.983694015,1C,auditory,2018_Jul_26_1450,
du.wav,0,3,1,537,R,0,56,56,56,,,,,None,,,,pu,4,blast_a_018,119.983694015,1C,auditory,2018_Jul_26_1450,
ti.wav,0,1,1,538,R,0,57,57,57,,,,,None,,,,pu,4,blast_a_018,119.983694015,1C,auditory,2018_Jul_26_1450,
bu.wav,0,2,1,539,R,0,58,58,58,,,,,None,,,,pu,4,blast_a_018,119.983694015,1C,auditory,2018_Jul_26_1450,
da.wav,0,3,1,540,R,0,59,59,59,,,,,3,0.25041622444,,,pu,4,blast_a_018,119.983694015,1C,auditory,2018_Jul_26_1450,
ta.wav,0,1,1,541,R,0,60,60,60,,,,,None,,,,pu,4,blast_a_018,119.983694015,1C,auditory,2018_Jul_26_1450,
tu.wav,0,2,1,542,R,0,61,61,61,,,,,None,,,,pu,4,blast_a_018,119.983694015,1C,auditory,2018_Jul_26_1450,
pu.wav,0,3,1,543,R,0,62,62,62,,,,,None,,,,pu,4,blast_a_018,119.983694015,1C,auditory,2018_Jul_26_1450,
pi.wav,0,1,1,544,R,0,63,63,63,,,,,3,0.375306959108,,,pu,4,blast_a_018,119.983694015,1C,auditory,2018_Jul_26_1450,
ti.wav,0,2,1,545,R,0,64,64,64,,,,,None,,,,pu,4,blast_a_018,119.983694015,1C,auditory,2018_Jul_26_1450,
di.wav,0,3,1,546,R,0,65,65,65,,,,,None,,,,pu,4,blast_a_018,119.983694015,1C,auditory,2018_Jul_26_1450,
bu.wav,0,1,1,547,R,0,66,66,66,,,,,None,,,,pu,4,blast_a_018,119.983694015,1C,auditory,2018_Jul_26_1450,
pa.wav,0,2,1,548,R,0,67,67,67,,,,,None,,,,pu,4,blast_a_018,119.983694015,1C,auditory,2018_Jul_26_1450,
bi.wav,0,3,1,549,R,0,68,68,68,,,,,None,,,,pu,4,blast_a_018,119.983694015,1C,auditory,2018_Jul_26_1450,
da.wav,0,1,1,550,R,0,69,69,69,,,,,None,,,,pu,4,blast_a_018,119.983694015,1C,auditory,2018_Jul_26_1450,
ba.wav,0,2,1,551,R,0,70,70,70,,,,,None,,,,pu,4,blast_a_018,119.983694015,1C,auditory,2018_Jul_26_1450,
pa.wav,0,3,1,552,R,0,71,71,71,,,,,None,,,,pu,4,blast_a_018,119.983694015,1C,auditory,2018_Jul_26_1450,
tu.wav,0,1,1,553,R,0,72,72,72,,,,,None,,,,pu,4,blast_a_018,119.983694015,1C,auditory,2018_Jul_26_1450,
du.wav,0,2,1,554,R,0,73,73,73,,,,,None,,,,pu,4,blast_a_018,119.983694015,1C,auditory,2018_Jul_26_1450,
ti.wav,0,3,1,555,R,0,74,74,74,,,,,None,,,,pu,4,blast_a_018,119.983694015,1C,auditory,2018_Jul_26_1450,
di.wav,0,1,1,556,R,0,75,75,75,,,,,None,,,,pu,4,blast_a_018,119.983694015,1C,auditory,2018_Jul_26_1450,
bi.wav,0,2,1,557,R,0,76,76,76,,,,,None,,,,pu,4,blast_a_018,119.983694015,1C,auditory,2018_Jul_26_1450,
bu.wav,0,3,1,558,R,0,77,77,77,,,,,None,,,,pu,4,blast_a_018,119.983694015,1C,auditory,2018_Jul_26_1450,
di.wav,0,1,1,559,R,0,78,78,78,,,,,None,,,,pu,4,blast_a_018,119.983694015,1C,auditory,2018_Jul_26_1450,
da.wav,0,2,1,560,R,0,79,79,79,,,,,None,,,,pu,4,blast_a_018,119.983694015,1C,auditory,2018_Jul_26_1450,
ta.wav,0,3,1,561,R,0,80,80,80,,,,,None,,,,pu,4,blast_a_018,119.983694015,1C,auditory,2018_Jul_26_1450,
pu.wav,0,1,1,562,R,0,81,81,81,,,,,None,,,,pu,4,blast_a_018,119.983694015,1C,auditory,2018_Jul_26_1450,
ti.wav,0,2,1,563,R,0,82,82,82,,,,,3,0.100313477047,,,pu,4,blast_a_018,119.983694015,1C,auditory,2018_Jul_26_1450,
ba.wav,0,3,1,564,R,0,83,83,83,,,,,None,,,,pu,4,blast_a_018,119.983694015,1C,auditory,2018_Jul_26_1450,
pa.wav,0,1,1,565,R,0,84,84,84,,,,,None,,,,pu,4,blast_a_018,119.983694015,1C,auditory,2018_Jul_26_1450,
pu.wav,0,2,1,566,R,0,85,85,85,,,,,None,,,,pu,4,blast_a_018,119.983694015,1C,auditory,2018_Jul_26_1450,
du.wav,0,3,1,567,R,0,86,86,86,,,,,3,0.200360077764,,,pu,4,blast_a_018,119.983694015,1C,auditory,2018_Jul_26_1450,
pi.wav,0,1,1,568,R,0,87,87,87,,,,,None,,,,pu,4,blast_a_018,119.983694015,1C,auditory,2018_Jul_26_1450,
tu.wav,0,2,1,569,R,0,88,88,88,,,,,None,,,,pu,4,blast_a_018,119.983694015,1C,auditory,2018_Jul_26_1450,
ba.wav,0,3,1,570,R,0,89,89,89,,,,,None,,,,pu,4,blast_a_018,119.983694015,1C,auditory,2018_Jul_26_1450,
ba.wav,0,1,1,571,R,0,90,90,90,,,,,None,,,,pu,4,blast_a_018,119.983694015,1C,auditory,2018_Jul_26_1450,
pu.wav,0,2,1,572,R,0,91,91,91,,,,,None,,,,pu,4,blast_a_018,119.983694015,1C,auditory,2018_Jul_26_1450,
di.wav,0,3,1,573,R,0,92,92,92,,,,,3,0.275504652887,,,pu,4,blast_a_018,119.983694015,1C,auditory,2018_Jul_26_1450,
pi.wav,0,1,1,574,R,0,93,93,93,,,,,None,,,,pu,4,blast_a_018,119.983694015,1C,auditory,2018_Jul_26_1450,
bi.wav,0,2,1,575,R,0,94,94,94,,,,,None,,,,pu,4,blast_a_018,119.983694015,1C,auditory,2018_Jul_26_1450,
ta.wav,0,3,1,576,R,0,95,95,95,,,,,None,,,,pu,4,blast_a_018,119.983694015,1C,auditory,2018_Jul_26_1450,
silence.wav,0,0,0,0,B,0,96,96,96,,,,,None,,,,pu,4,blast_a_018,119.983694015,1C,auditory,2018_Jul_26_1450,
silence.wav,0,0,0,0,B,0,97,97,97,,,,,None,,,,pu,4,blast_a_018,119.983694015,1C,auditory,2018_Jul_26_1450,
silence.wav,0,0,0,0,B,0,98,98,98,,,,,None,,,,pu,4,blast_a_018,119.983694015,1C,auditory,2018_Jul_26_1450,
silence.wav,0,0,0,0,B,0,99,99,99,,,,,None,,,,pu,4,blast_a_018,119.983694015,1C,auditory,2018_Jul_26_1450,
silence.wav,0,0,0,0,B,0,100,100,100,,,,,None,,,,pu,4,blast_a_018,119.983694015,1C,auditory,2018_Jul_26_1450,
silence.wav,0,0,0,0,B,0,101,101,101,,,,,None,,,,pu,4,blast_a_018,119.983694015,1C,auditory,2018_Jul_26_1450,
silence.wav,0,0,0,0,B,0,102,102,102,,,,,None,,,,pu,4,blast_a_018,119.983694015,1C,auditory,2018_Jul_26_1450,
silence.wav,0,0,0,0,B,0,103,103,103,,,,,None,,,,pu,4,blast_a_018,119.983694015,1C,auditory,2018_Jul_26_1450,
silence.wav,0,0,0,0,B,0,104,104,104,,,,,None,,,,pu,4,blast_a_018,119.983694015,1C,auditory,2018_Jul_26_1450,
silence.wav,0,0,0,0,B,0,105,105,105,,,,,None,,,,pu,4,blast_a_018,119.983694015,1C,auditory,2018_Jul_26_1450,
silence.wav,0,0,0,0,B,0,106,106,106,,,,,None,,,,pu,4,blast_a_018,119.983694015,1C,auditory,2018_Jul_26_1450,
silence.wav,0,0,0,0,B,0,107,107,107,,,,,None,,,,pu,4,blast_a_018,119.983694015,1C,auditory,2018_Jul_26_1450,
silence.wav,0,0,0,0,B,0,108,108,108,,,,,None,,,,pu,4,blast_a_018,119.983694015,1C,auditory,2018_Jul_26_1450,
silence.wav,0,0,0,0,B,0,109,109,109,,,,,None,,,,pu,4,blast_a_018,119.983694015,1C,auditory,2018_Jul_26_1450,
silence.wav,0,0,0,0,B,0,110,110,110,,,,,None,,,,pu,4,blast_a_018,119.983694015,1C,auditory,2018_Jul_26_1450,
silence.wav,0,0,0,0,B,0,111,111,111,,,,,None,,,,pu,4,blast_a_018,119.983694015,1C,auditory,2018_Jul_26_1450,
silence.wav,0,0,0,0,B,0,112,112,112,,,,,None,,,,pu,4,blast_a_018,119.983694015,1C,auditory,2018_Jul_26_1450,
silence.wav,0,0,0,0,B,0,113,113,113,,,,,None,,,,pu,4,blast_a_018,119.983694015,1C,auditory,2018_Jul_26_1450,
silence.wav,0,0,0,0,B,0,114,114,114,,,,,None,,,,pu,4,blast_a_018,119.983694015,1C,auditory,2018_Jul_26_1450,
silence.wav,0,0,0,0,B,0,115,115,115,,,,,None,,,,pu,4,blast_a_018,119.983694015,1C,auditory,2018_Jul_26_1450,
silence.wav,0,0,0,0,B,0,116,116,116,,,,,None,,,,pu,4,blast_a_018,119.983694015,1C,auditory,2018_Jul_26_1450,
silence.wav,0,0,0,0,B,0,117,117,117,,,,,None,,,,pu,4,blast_a_018,119.983694015,1C,auditory,2018_Jul_26_1450,
silence.wav,0,0,0,0,B,0,118,118,118,,,,,None,,,,pu,4,blast_a_018,119.983694015,1C,auditory,2018_Jul_26_1450,
silence.wav,0,0,0,0,B,0,119,119,119,,,,,None,,,,pu,4,blast_a_018,119.983694015,1C,auditory,2018_Jul_26_1450,
silence.wav,0,0,0,0,B,0,120,120,120,,,,,None,,,,pu,4,blast_a_018,119.983694015,1C,auditory,2018_Jul_26_1450,
silence.wav,0,0,0,0,B,0,121,121,121,,,,,None,,,,pu,4,blast_a_018,119.983694015,1C,auditory,2018_Jul_26_1450,
silence.wav,0,0,0,0,B,0,122,122,122,,,,,None,,,,pu,4,blast_a_018,119.983694015,1C,auditory,2018_Jul_26_1450,
silence.wav,0,0,0,0,B,0,123,123,123,,,,,None,,,,pu,4,blast_a_018,119.983694015,1C,auditory,2018_Jul_26_1450,
silence.wav,0,0,0,0,B,0,124,124,124,,,,,None,,,,pu,4,blast_a_018,119.983694015,1C,auditory,2018_Jul_26_1450,
3A.wav,1,1,41,481,S,,,,,0,0,0,0,,,None,,pu,4,blast_a_018,119.983694015,1C,auditory,2018_Jul_26_1450,
3B.wav,1,2,41,482,S,,,,,0,1,1,1,,,None,,pu,4,blast_a_018,119.983694015,1C,auditory,2018_Jul_26_1450,
3C.wav,1,3,41,483,S,,,,,0,2,2,2,,,None,,pu,4,blast_a_018,119.983694015,1C,auditory,2018_Jul_26_1450,
2A.wav,4,1,41,484,S,,,,,0,3,3,3,,,None,,pu,4,blast_a_018,119.983694015,1C,auditory,2018_Jul_26_1450,
2B.wav,4,2,41,485,S,,,,,0,4,4,4,,,None,,pu,4,blast_a_018,119.983694015,1C,auditory,2018_Jul_26_1450,
2C.wav,4,3,41,486,S,,,,,0,5,5,5,,,3,0.200265644598,pu,4,blast_a_018,119.983694015,1C,auditory,2018_Jul_26_1450,
1A.wav,2,1,41,487,S,,,,,0,6,6,6,,,None,,pu,4,blast_a_018,119.983694015,1C,auditory,2018_Jul_26_1450,
1B.wav,2,2,41,488,S,,,,,0,7,7,7,,,None,,pu,4,blast_a_018,119.983694015,1C,auditory,2018_Jul_26_1450,
1C.wav,2,3,41,489,S,,,,,0,8,8,8,,,None,,pu,4,blast_a_018,119.983694015,1C,auditory,2018_Jul_26_1450,
4A.wav,3,1,41,490,S,,,,,0,9,9,9,,,3,0.100325383839,pu,4,blast_a_018,119.983694015,1C,auditory,2018_Jul_26_1450,
4B.wav,3,2,41,491,S,,,,,0,10,10,10,,,None,,pu,4,blast_a_018,119.983694015,1C,auditory,2018_Jul_26_1450,
4C.wav,3,3,41,492,S,,,,,0,11,11,11,,,None,,pu,4,blast_a_018,119.983694015,1C,auditory,2018_Jul_26_1450,
2A.wav,4,1,42,493,S,,,,,0,12,12,12,,,None,,pu,4,blast_a_018,119.983694015,1C,auditory,2018_Jul_26_1450,
2B.wav,4,2,42,494,S,,,,,0,13,13,13,,,None,,pu,4,blast_a_018,119.983694015,1C,auditory,2018_Jul_26_1450,
2C.wav,4,3,42,495,S,,,,,0,14,14,14,,,None,,pu,4,blast_a_018,119.983694015,1C,auditory,2018_Jul_26_1450,
3A.wav,1,1,42,496,S,,,,,0,15,15,15,,,None,,pu,4,blast_a_018,119.983694015,1C,auditory,2018_Jul_26_1450,
3B.wav,1,2,42,497,S,,,,,0,16,16,16,,,None,,pu,4,blast_a_018,119.983694015,1C,auditory,2018_Jul_26_1450,
3C.wav,1,3,42,498,S,,,,,0,17,17,17,,,None,,pu,4,blast_a_018,119.983694015,1C,auditory,2018_Jul_26_1450,
1A.wav,2,1,42,499,S,,,,,0,18,18,18,,,None,,pu,4,blast_a_018,119.983694015,1C,auditory,2018_Jul_26_1450,
1B.wav,2,2,42,500,S,,,,,0,19,19,19,,,None,,pu,4,blast_a_018,119.983694015,1C,auditory,2018_Jul_26_1450,
1C.wav,2,3,42,501,S,,,,,0,20,20,20,,,None,,pu,4,blast_a_018,119.983694015,1C,auditory,2018_Jul_26_1450,
4A.wav,3,1,42,502,S,,,,,0,21,21,21,,,None,,pu,4,blast_a_018,119.983694015,1C,auditory,2018_Jul_26_1450,
4B.wav,3,2,42,503,S,,,,,0,22,22,22,,,3,0.233677330089,pu,4,blast_a_018,119.983694015,1C,auditory,2018_Jul_26_1450,
4C.wav,3,3,42,504,S,,,,,0,23,23,23,,,None,,pu,4,blast_a_018,119.983694015,1C,auditory,2018_Jul_26_1450,
3A.wav,1,1,43,505,S,,,,,0,24,24,24,,,None,,pu,4,blast_a_018,119.983694015,1C,auditory,2018_Jul_26_1450,
3B.wav,1,2,43,506,S,,,,,0,25,25,25,,,None,,pu,4,blast_a_018,119.983694015,1C,auditory,2018_Jul_26_1450,
3C.wav,1,3,43,507,S,,,,,0,26,26,26,,,None,,pu,4,blast_a_018,119.983694015,1C,auditory,2018_Jul_26_1450,
4A.wav,3,1,43,508,S,,,,,0,27,27,27,,,None,,pu,4,blast_a_018,119.983694015,1C,auditory,2018_Jul_26_1450,
4B.wav,3,2,43,509,S,,,,,0,28,28,28,,,None,,pu,4,blast_a_018,119.983694015,1C,auditory,2018_Jul_26_1450,
4C.wav,3,3,43,510,S,,,,,0,29,29,29,,,None,,pu,4,blast_a_018,119.983694015,1C,auditory,2018_Jul_26_1450,
2A.wav,4,1,43,511,S,,,,,0,30,30,30,,,None,,pu,4,blast_a_018,119.983694015,1C,auditory,2018_Jul_26_1450,
2B.wav,4,2,43,512,S,,,,,0,31,31,31,,,None,,pu,4,blast_a_018,119.983694015,1C,auditory,2018_Jul_26_1450,
2C.wav,4,3,43,513,S,,,,,0,32,32,32,,,None,,pu,4,blast_a_018,119.983694015,1C,auditory,2018_Jul_26_1450,
1A.wav,2,1,43,514,S,,,,,0,33,33,33,,,None,,pu,4,blast_a_018,119.983694015,1C,auditory,2018_Jul_26_1450,
1B.wav,2,2,43,515,S,,,,,0,34,34,34,,,None,,pu,4,blast_a_018,119.983694015,1C,auditory,2018_Jul_26_1450,
1C.wav,2,3,43,516,S,,,,,0,35,35,35,,,None,,pu,4,blast_a_018,119.983694015,1C,auditory,2018_Jul_26_1450,
2A.wav,4,1,44,517,S,,,,,0,36,36,36,,,3,0.0669995093594,pu,4,blast_a_018,119.983694015,1C,auditory,2018_Jul_26_1450,
2B.wav,4,2,44,518,S,,,,,0,37,37,37,,,None,,pu,4,blast_a_018,119.983694015,1C,auditory,2018_Jul_26_1450,
2C.wav,4,3,44,519,S,,,,,0,38,38,38,,,None,,pu,4,blast_a_018,119.983694015,1C,auditory,2018_Jul_26_1450,
4A.wav,3,1,44,520,S,,,,,0,39,39,39,,,None,,pu,4,blast_a_018,119.983694015,1C,auditory,2018_Jul_26_1450,
4B.wav,3,2,44,521,S,,,,,0,40,40,40,,,None,,pu,4,blast_a_018,119.983694015,1C,auditory,2018_Jul_26_1450,
4C.wav,3,3,44,522,S,,,,,0,41,41,41,,,None,,pu,4,blast_a_018,119.983694015,1C,auditory,2018_Jul_26_1450,
3A.wav,1,1,44,523,S,,,,,0,42,42,42,,,None,,pu,4,blast_a_018,119.983694015,1C,auditory,2018_Jul_26_1450,
3B.wav,1,2,44,524,S,,,,,0,43,43,43,,,None,,pu,4,blast_a_018,119.983694015,1C,auditory,2018_Jul_26_1450,
3C.wav,1,3,44,525,S,,,,,0,44,44,44,,,None,,pu,4,blast_a_018,119.983694015,1C,auditory,2018_Jul_26_1450,
1A.wav,2,1,44,526,S,,,,,0,45,45,45,,,None,,pu,4,blast_a_018,119.983694015,1C,auditory,2018_Jul_26_1450,
1B.wav,2,2,44,527,S,,,,,0,46,46,46,,,None,,pu,4,blast_a_018,119.983694015,1C,auditory,2018_Jul_26_1450,
1C.wav,2,3,44,528,S,,,,,0,47,47,47,,,None,,pu,4,blast_a_018,119.983694015,1C,auditory,2018_Jul_26_1450,
2A.wav,4,1,45,529,S,,,,,0,48,48,48,,,None,,pu,4,blast_a_018,119.983694015,1C,auditory,2018_Jul_26_1450,
2B.wav,4,2,45,530,S,,,,,0,49,49,49,,,None,,pu,4,blast_a_018,119.983694015,1C,auditory,2018_Jul_26_1450,
2C.wav,4,3,45,531,S,,,,,0,50,50,50,,,3,0.133799477331,pu,4,blast_a_018,119.983694015,1C,auditory,2018_Jul_26_1450,
3A.wav,1,1,45,532,S,,,,,0,51,51,51,,,None,,pu,4,blast_a_018,119.983694015,1C,auditory,2018_Jul_26_1450,
3B.wav,1,2,45,533,S,,,,,0,52,52,52,,,None,,pu,4,blast_a_018,119.983694015,1C,auditory,2018_Jul_26_1450,
3C.wav,1,3,45,534,S,,,,,0,53,53,53,,,None,,pu,4,blast_a_018,119.983694015,1C,auditory,2018_Jul_26_1450,
4A.wav,3,1,45,535,S,,,,,0,54,54,54,,,None,,pu,4,blast_a_018,119.983694015,1C,auditory,2018_Jul_26_1450,
4B.wav,3,2,45,536,S,,,,,0,55,55,55,,,None,,pu,4,blast_a_018,119.983694015,1C,auditory,2018_Jul_26_1450,
4C.wav,3,3,45,537,S,,,,,0,56,56,56,,,None,,pu,4,blast_a_018,119.983694015,1C,auditory,2018_Jul_26_1450,
2A.wav,4,1,46,538,S,,,,,0,57,57,57,,,None,,pu,4,blast_a_018,119.983694015,1C,auditory,2018_Jul_26_1450,
2B.wav,4,2,46,539,S,,,,,0,58,58,58,,,None,,pu,4,blast_a_018,119.983694015,1C,auditory,2018_Jul_26_1450,
2C.wav,4,3,46,540,S,,,,,0,59,59,59,,,None,,pu,4,blast_a_018,119.983694015,1C,auditory,2018_Jul_26_1450,
3A.wav,1,1,46,541,S,,,,,0,60,60,60,,,None,,pu,4,blast_a_018,119.983694015,1C,auditory,2018_Jul_26_1450,
3B.wav,1,2,46,542,S,,,,,0,61,61,61,,,None,,pu,4,blast_a_018,119.983694015,1C,auditory,2018_Jul_26_1450,
3C.wav,1,3,46,543,S,,,,,0,62,62,62,,,None,,pu,4,blast_a_018,119.983694015,1C,auditory,2018_Jul_26_1450,
4A.wav,3,1,46,544,S,,,,,0,63,63,63,,,None,,pu,4,blast_a_018,119.983694015,1C,auditory,2018_Jul_26_1450,
4B.wav,3,2,46,545,S,,,,,0,64,64,64,,,None,,pu,4,blast_a_018,119.983694015,1C,auditory,2018_Jul_26_1450,
4C.wav,3,3,46,546,S,,,,,0,65,65,65,,,None,,pu,4,blast_a_018,119.983694015,1C,auditory,2018_Jul_26_1450,
1A.wav,2,1,45,547,S,,,,,0,66,66,66,,,None,,pu,4,blast_a_018,119.983694015,1C,auditory,2018_Jul_26_1450,
1B.wav,2,2,45,548,S,,,,,0,67,67,67,,,None,,pu,4,blast_a_018,119.983694015,1C,auditory,2018_Jul_26_1450,
1C.wav,2,3,45,549,S,,,,,0,68,68,68,,,None,,pu,4,blast_a_018,119.983694015,1C,auditory,2018_Jul_26_1450,
2A.wav,4,1,47,550,S,,,,,0,69,69,69,,,3,0.392187913789,pu,4,blast_a_018,119.983694015,1C,auditory,2018_Jul_26_1450,
2B.wav,4,2,47,551,S,,,,,0,70,70,70,,,None,,pu,4,blast_a_018,119.983694015,1C,auditory,2018_Jul_26_1450,
2C.wav,4,3,47,552,S,,,,,0,71,71,71,,,None,,pu,4,blast_a_018,119.983694015,1C,auditory,2018_Jul_26_1450,
1A.wav,2,1,46,553,S,,,,,0,72,72,72,,,None,,pu,4,blast_a_018,119.983694015,1C,auditory,2018_Jul_26_1450,
1B.wav,2,2,46,554,S,,,,,0,73,73,73,,,None,,pu,4,blast_a_018,119.983694015,1C,auditory,2018_Jul_26_1450,
1C.wav,2,3,46,555,S,,,,,0,74,74,74,,,None,,pu,4,blast_a_018,119.983694015,1C,auditory,2018_Jul_26_1450,
4A.wav,3,1,47,556,S,,,,,0,75,75,75,,,3,0.108771403993,pu,4,blast_a_018,119.983694015,1C,auditory,2018_Jul_26_1450,
4B.wav,3,2,47,557,S,,,,,0,76,76,76,,,None,,pu,4,blast_a_018,119.983694015,1C,auditory,2018_Jul_26_1450,
4C.wav,3,3,47,558,S,,,,,0,77,77,77,,,None,,pu,4,blast_a_018,119.983694015,1C,auditory,2018_Jul_26_1450,
3A.wav,1,1,47,559,S,,,,,0,78,78,78,,,None,,pu,4,blast_a_018,119.983694015,1C,auditory,2018_Jul_26_1450,
3B.wav,1,2,47,560,S,,,,,0,79,79,79,,,None,,pu,4,blast_a_018,119.983694015,1C,auditory,2018_Jul_26_1450,
3C.wav,1,3,47,561,S,,,,,0,80,80,80,,,None,,pu,4,blast_a_018,119.983694015,1C,auditory,2018_Jul_26_1450,
1A.wav,2,1,47,562,S,,,,,0,81,81,81,,,None,,pu,4,blast_a_018,119.983694015,1C,auditory,2018_Jul_26_1450,
1B.wav,2,2,47,563,S,,,,,0,82,82,82,,,None,,pu,4,blast_a_018,119.983694015,1C,auditory,2018_Jul_26_1450,
1C.wav,2,3,47,564,S,,,,,0,83,83,83,,,None,,pu,4,blast_a_018,119.983694015,1C,auditory,2018_Jul_26_1450,
4A.wav,3,1,48,565,S,,,,,0,84,84,84,,,None,,pu,4,blast_a_018,119.983694015,1C,auditory,2018_Jul_26_1450,
4B.wav,3,2,48,566,S,,,,,0,85,85,85,,,None,,pu,4,blast_a_018,119.983694015,1C,auditory,2018_Jul_26_1450,
4C.wav,3,3,48,567,S,,,,,0,86,86,86,,,None,,pu,4,blast_a_018,119.983694015,1C,auditory,2018_Jul_26_1450,
2A.wav,4,1,48,568,S,,,,,0,87,87,87,,,None,,pu,4,blast_a_018,119.983694015,1C,auditory,2018_Jul_26_1450,
2B.wav,4,2,48,569,S,,,,,0,88,88,88,,,None,,pu,4,blast_a_018,119.983694015,1C,auditory,2018_Jul_26_1450,
2C.wav,4,3,48,570,S,,,,,0,89,89,89,,,3,0.0671263782642,pu,4,blast_a_018,119.983694015,1C,auditory,2018_Jul_26_1450,
3A.wav,1,1,48,571,S,,,,,0,90,90,90,,,None,,pu,4,blast_a_018,119.983694015,1C,auditory,2018_Jul_26_1450,
3B.wav,1,2,48,572,S,,,,,0,91,91,91,,,None,,pu,4,blast_a_018,119.983694015,1C,auditory,2018_Jul_26_1450,
3C.wav,1,3,48,573,S,,,,,0,92,92,92,,,None,,pu,4,blast_a_018,119.983694015,1C,auditory,2018_Jul_26_1450,
1A.wav,2,1,48,574,S,,,,,0,93,93,93,,,None,,pu,4,blast_a_018,119.983694015,1C,auditory,2018_Jul_26_1450,
1B.wav,2,2,48,575,S,,,,,0,94,94,94,,,None,,pu,4,blast_a_018,119.983694015,1C,auditory,2018_Jul_26_1450,
1C.wav,2,3,48,576,S,,,,,0,95,95,95,,,None,,pu,4,blast_a_018,119.983694015,1C,auditory,2018_Jul_26_1450,
silence.wav,0,0,0,0,B,,,,,0,96,96,96,,,3,0.0837277286555,pu,4,blast_a_018,119.983694015,1C,auditory,2018_Jul_26_1450,
silence.wav,0,0,0,0,B,,,,,0,97,97,97,,,None,,pu,4,blast_a_018,119.983694015,1C,auditory,2018_Jul_26_1450,
silence.wav,0,0,0,0,B,,,,,0,98,98,98,,,None,,pu,4,blast_a_018,119.983694015,1C,auditory,2018_Jul_26_1450,
silence.wav,0,0,0,0,B,,,,,0,99,99,99,,,None,,pu,4,blast_a_018,119.983694015,1C,auditory,2018_Jul_26_1450,
silence.wav,0,0,0,0,B,,,,,0,100,100,100,,,None,,pu,4,blast_a_018,119.983694015,1C,auditory,2018_Jul_26_1450,
silence.wav,0,0,0,0,B,,,,,0,101,101,101,,,None,,pu,4,blast_a_018,119.983694015,1C,auditory,2018_Jul_26_1450,
silence.wav,0,0,0,0,B,,,,,0,102,102,102,,,None,,pu,4,blast_a_018,119.983694015,1C,auditory,2018_Jul_26_1450,
silence.wav,0,0,0,0,B,,,,,0,103,103,103,,,None,,pu,4,blast_a_018,119.983694015,1C,auditory,2018_Jul_26_1450,
silence.wav,0,0,0,0,B,,,,,0,104,104,104,,,None,,pu,4,blast_a_018,119.983694015,1C,auditory,2018_Jul_26_1450,
silence.wav,0,0,0,0,B,,,,,0,105,105,105,,,None,,pu,4,blast_a_018,119.983694015,1C,auditory,2018_Jul_26_1450,
silence.wav,0,0,0,0,B,,,,,0,106,106,106,,,None,,pu,4,blast_a_018,119.983694015,1C,auditory,2018_Jul_26_1450,
silence.wav,0,0,0,0,B,,,,,0,107,107,107,,,None,,pu,4,blast_a_018,119.983694015,1C,auditory,2018_Jul_26_1450,
silence.wav,0,0,0,0,B,,,,,0,108,108,108,,,None,,pu,4,blast_a_018,119.983694015,1C,auditory,2018_Jul_26_1450,
silence.wav,0,0,0,0,B,,,,,0,109,109,109,,,None,,pu,4,blast_a_018,119.983694015,1C,auditory,2018_Jul_26_1450,
silence.wav,0,0,0,0,B,,,,,0,110,110,110,,,None,,pu,4,blast_a_018,119.983694015,1C,auditory,2018_Jul_26_1450,
silence.wav,0,0,0,0,B,,,,,0,111,111,111,,,None,,pu,4,blast_a_018,119.983694015,1C,auditory,2018_Jul_26_1450,
silence.wav,0,0,0,0,B,,,,,0,112,112,112,,,None,,pu,4,blast_a_018,119.983694015,1C,auditory,2018_Jul_26_1450,
silence.wav,0,0,0,0,B,,,,,0,113,113,113,,,None,,pu,4,blast_a_018,119.983694015,1C,auditory,2018_Jul_26_1450,
silence.wav,0,0,0,0,B,,,,,0,114,114,114,,,None,,pu,4,blast_a_018,119.983694015,1C,auditory,2018_Jul_26_1450,
silence.wav,0,0,0,0,B,,,,,0,115,115,115,,,None,,pu,4,blast_a_018,119.983694015,1C,auditory,2018_Jul_26_1450,
silence.wav,0,0,0,0,B,,,,,0,116,116,116,,,None,,pu,4,blast_a_018,119.983694015,1C,auditory,2018_Jul_26_1450,
silence.wav,0,0,0,0,B,,,,,0,117,117,117,,,None,,pu,4,blast_a_018,119.983694015,1C,auditory,2018_Jul_26_1450,
silence.wav,0,0,0,0,B,,,,,0,118,118,118,,,None,,pu,4,blast_a_018,119.983694015,1C,auditory,2018_Jul_26_1450,
silence.wav,0,0,0,0,B,,,,,0,119,119,119,,,None,,pu,4,blast_a_018,119.983694015,1C,auditory,2018_Jul_26_1450,
silence.wav,0,0,0,0,B,,,,,0,120,120,120,,,None,,pu,4,blast_a_018,119.983694015,1C,auditory,2018_Jul_26_1450,
silence.wav,0,0,0,0,B,,,,,0,121,121,121,,,None,,pu,4,blast_a_018,119.983694015,1C,auditory,2018_Jul_26_1450,
silence.wav,0,0,0,0,B,,,,,0,122,122,122,,,None,,pu,4,blast_a_018,119.983694015,1C,auditory,2018_Jul_26_1450,
silence.wav,0,0,0,0,B,,,,,0,123,123,123,,,None,,pu,4,blast_a_018,119.983694015,1C,auditory,2018_Jul_26_1450,
silence.wav,0,0,0,0,B,,,,,0,124,124,124,,,None,,pu,4,blast_a_018,119.983694015,1C,auditory,2018_Jul_26_1450,
pa.wav,0,1,1,385,R,0,0,0,0,,,,,None,,,,pu,4,blast_a_018,119.983694015,1C,auditory,2018_Jul_26_1450,
pi.wav,0,2,1,386,R,0,1,1,1,,,,,None,,,,pu,4,blast_a_018,119.983694015,1C,auditory,2018_Jul_26_1450,
da.wav,0,3,1,387,R,0,2,2,2,,,,,None,,,,pu,4,blast_a_018,119.983694015,1C,auditory,2018_Jul_26_1450,
ta.wav,0,1,1,388,R,0,3,3,3,,,,,None,,,,pu,4,blast_a_018,119.983694015,1C,auditory,2018_Jul_26_1450,
bi.wav,0,2,1,389,R,0,4,4,4,,,,,None,,,,pu,4,blast_a_018,119.983694015,1C,auditory,2018_Jul_26_1450,
ta.wav,0,3,1,390,R,0,5,5,5,,,,,None,,,,pu,4,blast_a_018,119.983694015,1C,auditory,2018_Jul_26_1450,
du.wav,0,1,1,391,R,0,6,6,6,,,,,None,,,,pu,4,blast_a_018,119.983694015,1C,auditory,2018_Jul_26_1450,
tu.wav,0,2,1,392,R,0,7,7,7,,,,,None,,,,pu,4,blast_a_018,119.983694015,1C,auditory,2018_Jul_26_1450,
tu.wav,0,3,1,393,R,0,8,8,8,,,,,None,,,,pu,4,blast_a_018,119.983694015,1C,auditory,2018_Jul_26_1450,
bu.wav,0,1,1,394,R,0,9,9,9,,,,,None,,,,pu,4,blast_a_018,119.983694015,1C,auditory,2018_Jul_26_1450,
ti.wav,0,2,1,395,R,0,10,10,10,,,,,None,,,,pu,4,blast_a_018,119.983694015,1C,auditory,2018_Jul_26_1450,
ba.wav,0,3,1,396,R,0,11,11,11,,,,,None,,,,pu,4,blast_a_018,119.983694015,1C,auditory,2018_Jul_26_1450,
bi.wav,0,1,1,397,R,0,12,12,12,,,,,None,,,,pu,4,blast_a_018,119.983694015,1C,auditory,2018_Jul_26_1450,
bu.wav,0,2,1,398,R,0,13,13,13,,,,,None,,,,pu,4,blast_a_018,119.983694015,1C,auditory,2018_Jul_26_1450,
pu.wav,0,3,1,399,R,0,14,14,14,,,,,None,,,,pu,4,blast_a_018,119.983694015,1C,auditory,2018_Jul_26_1450,
bi.wav,0,1,1,400,R,0,15,15,15,,,,,3,0.275289098921,,,pu,4,blast_a_018,119.983694015,1C,auditory,2018_Jul_26_1450,
ti.wav,0,2,1,401,R,0,16,16,16,,,,,None,,,,pu,4,blast_a_018,119.983694015,1C,auditory,2018_Jul_26_1450,
da.wav,0,3,1,402,R,0,17,17,17,,,,,None,,,,pu,4,blast_a_018,119.983694015,1C,auditory,2018_Jul_26_1450,
pa.wav,0,1,1,403,R,0,18,18,18,,,,,None,,,,pu,4,blast_a_018,119.983694015,1C,auditory,2018_Jul_26_1450,
du.wav,0,2,1,404,R,0,19,19,19,,,,,None,,,,pu,4,blast_a_018,119.983694015,1C,auditory,2018_Jul_26_1450,
pi.wav,0,3,1,405,R,0,20,20,20,,,,,None,,,,pu,4,blast_a_018,119.983694015,1C,auditory,2018_Jul_26_1450,
pi.wav,0,1,1,406,R,0,21,21,21,,,,,None,,,,pu,4,blast_a_018,119.983694015,1C,auditory,2018_Jul_26_1450,
tu.wav,0,2,1,407,R,0,22,22,22,,,,,None,,,,pu,4,blast_a_018,119.983694015,1C,auditory,2018_Jul_26_1450,
di.wav,0,3,1,408,R,0,23,23,23,,,,,None,,,,pu,4,blast_a_018,119.983694015,1C,auditory,2018_Jul_26_1450,
ba.wav,0,1,1,409,R,0,24,24,24,,,,,None,,,,pu,4,blast_a_018,119.983694015,1C,auditory,2018_Jul_26_1450,
ti.wav,0,2,1,410,R,0,25,25,25,,,,,None,,,,pu,4,blast_a_018,119.983694015,1C,auditory,2018_Jul_26_1450,
pa.wav,0,3,1,411,R,0,26,26,26,,,,,None,,,,pu,4,blast_a_018,119.983694015,1C,auditory,2018_Jul_26_1450,
tu.wav,0,1,1,412,R,0,27,27,27,,,,,None,,,,pu,4,blast_a_018,119.983694015,1C,auditory,2018_Jul_26_1450,
bi.wav,0,2,1,413,R,0,28,28,28,,,,,None,,,,pu,4,blast_a_018,119.983694015,1C,auditory,2018_Jul_26_1450,
du.wav,0,3,1,414,R,0,29,29,29,,,,,None,,,,pu,4,blast_a_018,119.983694015,1C,auditory,2018_Jul_26_1450,
ti.wav,0,1,1,415,R,0,30,30,30,,,,,None,,,,pu,4,blast_a_018,119.983694015,1C,auditory,2018_Jul_26_1450,
pa.wav,0,2,1,416,R,0,31,31,31,,,,,None,,,,pu,4,blast_a_018,119.983694015,1C,auditory,2018_Jul_26_1450,
pu.wav,0,3,1,417,R,0,32,32,32,,,,,None,,,,pu,4,blast_a_018,119.983694015,1C,auditory,2018_Jul_26_1450,
ta.wav,0,1,1,418,R,0,33,33,33,,,,,3,0.183660598992,,,pu,4,blast_a_018,119.983694015,1C,auditory,2018_Jul_26_1450,
bu.wav,0,2,1,419,R,0,34,34,34,,,,,None,,,,pu,4,blast_a_018,119.983694015,1C,auditory,2018_Jul_26_1450,
pi.wav,0,3,1,420,R,0,35,35,35,,,,,None,,,,pu,4,blast_a_018,119.983694015,1C,auditory,2018_Jul_26_1450,
da.wav,0,1,1,421,R,0,36,36,36,,,,,None,,,,pu,4,blast_a_018,119.983694015,1C,auditory,2018_Jul_26_1450,
da.wav,0,2,1,422,R,0,37,37,37,,,,,None,,,,pu,4,blast_a_018,119.983694015,1C,auditory,2018_Jul_26_1450,
ba.wav,0,3,1,423,R,0,38,38,38,,,,,None,,,,pu,4,blast_a_018,119.983694015,1C,auditory,2018_Jul_26_1450,
pu.wav,0,1,1,424,R,0,39,39,39,,,,,None,,,,pu,4,blast_a_018,119.983694015,1C,auditory,2018_Jul_26_1450,
pu.wav,0,2,1,425,R,0,40,40,40,,,,,3,0.408651309644,,,pu,4,blast_a_018,119.983694015,1C,auditory,2018_Jul_26_1450,
di.wav,0,3,1,426,R,0,41,41,41,,,,,None,,,,pu,4,blast_a_018,119.983694015,1C,auditory,2018_Jul_26_1450,
di.wav,0,1,1,427,R,0,42,42,42,,,,,None,,,,pu,4,blast_a_018,119.983694015,1C,auditory,2018_Jul_26_1450,
ta.wav,0,2,1,428,R,0,43,43,43,,,,,None,,,,pu,4,blast_a_018,119.983694015,1C,auditory,2018_Jul_26_1450,
di.wav,0,3,1,429,R,0,44,44,44,,,,,None,,,,pu,4,blast_a_018,119.983694015,1C,auditory,2018_Jul_26_1450,
du.wav,0,1,1,430,R,0,45,45,45,,,,,None,,,,pu,4,blast_a_018,119.983694015,1C,auditory,2018_Jul_26_1450,
bu.wav,0,2,1,431,R,0,46,46,46,,,,,None,,,,pu,4,blast_a_018,119.983694015,1C,auditory,2018_Jul_26_1450,
ba.wav,0,3,1,432,R,0,47,47,47,,,,,None,,,,pu,4,blast_a_018,119.983694015,1C,auditory,2018_Jul_26_1450,
tu.wav,0,1,1,433,R,0,48,48,48,,,,,None,,,,pu,4,blast_a_018,119.983694015,1C,auditory,2018_Jul_26_1450,
ba.wav,0,2,1,434,R,0,49,49,49,,,,,None,,,,pu,4,blast_a_018,119.983694015,1C,auditory,2018_Jul_26_1450,
di.wav,0,3,1,435,R,0,50,50,50,,,,,None,,,,pu,4,blast_a_018,119.983694015,1C,auditory,2018_Jul_26_1450,
pi.wav,0,1,1,436,R,0,51,51,51,,,,,None,,,,pu,4,blast_a_018,119.983694015,1C,auditory,2018_Jul_26_1450,
bi.wav,0,2,1,437,R,0,52,52,52,,,,,None,,,,pu,4,blast_a_018,119.983694015,1C,auditory,2018_Jul_26_1450,
bi.wav,0,3,1,438,R,0,53,53,53,,,,,None,,,,pu,4,blast_a_018,119.983694015,1C,auditory,2018_Jul_26_1450,
pu.wav,0,1,1,439,R,0,54,54,54,,,,,None,,,,pu,4,blast_a_018,119.983694015,1C,auditory,2018_Jul_26_1450,
da.wav,0,2,1,440,R,0,55,55,55,,,,,3,0.07538969077,,,pu,4,blast_a_018,119.983694015,1C,auditory,2018_Jul_26_1450,
ti.wav,0,3,1,441,R,0,56,56,56,,,,,None,,,,pu,4,blast_a_018,119.983694015,1C,auditory,2018_Jul_26_1450,
di.wav,0,1,1,442,R,0,57,57,57,,,,,None,,,,pu,4,blast_a_018,119.983694015,1C,auditory,2018_Jul_26_1450,
pi.wav,0,2,1,443,R,0,58,58,58,,,,,None,,,,pu,4,blast_a_018,119.983694015,1C,auditory,2018_Jul_26_1450,
tu.wav,0,3,1,444,R,0,59,59,59,,,,,None,,,,pu,4,blast_a_018,119.983694015,1C,auditory,2018_Jul_26_1450,
da.wav,0,1,1,445,R,0,60,60,60,,,,,None,,,,pu,4,blast_a_018,119.983694015,1C,auditory,2018_Jul_26_1450,
tu.wav,0,2,1,446,R,0,61,61,61,,,,,None,,,,pu,4,blast_a_018,119.983694015,1C,auditory,2018_Jul_26_1450,
pu.wav,0,3,1,447,R,0,62,62,62,,,,,None,,,,pu,4,blast_a_018,119.983694015,1C,auditory,2018_Jul_26_1450,
bu.wav,0,1,1,448,R,0,63,63,63,,,,,3,0.250369007856,,,pu,4,blast_a_018,119.983694015,1C,auditory,2018_Jul_26_1450,
ba.wav,0,2,1,449,R,0,64,64,64,,,,,None,,,,pu,4,blast_a_018,119.983694015,1C,auditory,2018_Jul_26_1450,
pa.wav,0,3,1,450,R,0,65,65,65,,,,,None,,,,pu,4,blast_a_018,119.983694015,1C,auditory,2018_Jul_26_1450,
bu.wav,0,1,1,451,R,0,66,66,66,,,,,None,,,,pu,4,blast_a_018,119.983694015,1C,auditory,2018_Jul_26_1450,
du.wav,0,2,1,452,R,0,67,67,67,,,,,None,,,,pu,4,blast_a_018,119.983694015,1C,auditory,2018_Jul_26_1450,
pi.wav,0,3,1,453,R,0,68,68,68,,,,,None,,,,pu,4,blast_a_018,119.983694015,1C,auditory,2018_Jul_26_1450,
bi.wav,0,1,1,454,R,0,69,69,69,,,,,None,,,,pu,4,blast_a_018,119.983694015,1C,auditory,2018_Jul_26_1450,
pa.wav,0,2,1,455,R,0,70,70,70,,,,,None,,,,pu,4,blast_a_018,119.983694015,1C,auditory,2018_Jul_26_1450,
ta.wav,0,3,1,456,R,0,71,71,71,,,,,None,,,,pu,4,blast_a_018,119.983694015,1C,auditory,2018_Jul_26_1450,
bu.wav,0,1,1,457,R,0,72,72,72,,,,,None,,,,pu,4,blast_a_018,119.983694015,1C,auditory,2018_Jul_26_1450,
ba.wav,0,2,1,458,R,0,73,73,73,,,,,3,0.158737633876,,,pu,4,blast_a_018,119.983694015,1C,auditory,2018_Jul_26_1450,
pu.wav,0,3,1,459,R,0,74,74,74,,,,,None,,,,pu,4,blast_a_018,119.983694015,1C,auditory,2018_Jul_26_1450,
da.wav,0,1,1,460,R,0,75,75,75,,,,,3,0.325392872761,,,pu,4,blast_a_018,119.983694015,1C,auditory,2018_Jul_26_1450,
ti.wav,0,2,1,461,R,0,76,76,76,,,,,None,,,,pu,4,blast_a_018,119.983694015,1C,auditory,2018_Jul_26_1450,
pa.wav,0,3,1,462,R,0,77,77,77,,,,,None,,,,pu,4,blast_a_018,119.983694015,1C,auditory,2018_Jul_26_1450,
du.wav,0,1,1,463,R,0,78,78,78,,,,,None,,,,pu,4,blast_a_018,119.983694015,1C,auditory,2018_Jul_26_1450,
ba.wav,0,2,1,464,R,0,79,79,79,,,,,None,,,,pu,4,blast_a_018,119.983694015,1C,auditory,2018_Jul_26_1450,
ta.wav,0,3,1,465,R,0,80,80,80,,,,,None,,,,pu,4,blast_a_018,119.983694015,1C,auditory,2018_Jul_26_1450,
du.wav,0,1,1,466,R,0,81,81,81,,,,,None,,,,pu,4,blast_a_018,119.983694015,1C,auditory,2018_Jul_26_1450,
da.wav,0,2,1,467,R,0,82,82,82,,,,,None,,,,pu,4,blast_a_018,119.983694015,1C,auditory,2018_Jul_26_1450,
pa.wav,0,3,1,468,R,0,83,83,83,,,,,None,,,,pu,4,blast_a_018,119.983694015,1C,auditory,2018_Jul_26_1450,
ta.wav,0,1,1,469,R,0,84,84,84,,,,,None,,,,pu,4,blast_a_018,119.983694015,1C,auditory,2018_Jul_26_1450,
di.wav,0,2,1,470,R,0,85,85,85,,,,,None,,,,pu,4,blast_a_018,119.983694015,1C,auditory,2018_Jul_26_1450,
pu.wav,0,3,1,471,R,0,86,86,86,,,,,None,,,,pu,4,blast_a_018,119.983694015,1C,auditory,2018_Jul_26_1450,
di.wav,0,1,1,472,R,0,87,87,87,,,,,3,0.225434135948,,,pu,4,blast_a_018,119.983694015,1C,auditory,2018_Jul_26_1450,
bu.wav,0,2,1,473,R,0,88,88,88,,,,,None,,,,pu,4,blast_a_018,119.983694015,1C,auditory,2018_Jul_26_1450,
ti.wav,0,3,1,474,R,0,89,89,89,,,,,None,,,,pu,4,blast_a_018,119.983694015,1C,auditory,2018_Jul_26_1450,
pi.wav,0,1,1,475,R,0,90,90,90,,,,,None,,,,pu,4,blast_a_018,119.983694015,1C,auditory,2018_Jul_26_1450,
bi.wav,0,2,1,476,R,0,91,91,91,,,,,None,,,,pu,4,blast_a_018,119.983694015,1C,auditory,2018_Jul_26_1450,
tu.wav,0,3,1,477,R,0,92,92,92,,,,,None,,,,pu,4,blast_a_018,119.983694015,1C,auditory,2018_Jul_26_1450,
ta.wav,0,1,1,478,R,0,93,93,93,,,,,None,,,,pu,4,blast_a_018,119.983694015,1C,auditory,2018_Jul_26_1450,
ti.wav,0,2,1,479,R,0,94,94,94,,,,,None,,,,pu,4,blast_a_018,119.983694015,1C,auditory,2018_Jul_26_1450,
du.wav,0,3,1,480,R,0,95,95,95,,,,,None,,,,pu,4,blast_a_018,119.983694015,1C,auditory,2018_Jul_26_1450,
silence.wav,0,0,0,0,B,0,96,96,96,,,,,None,,,,pu,4,blast_a_018,119.983694015,1C,auditory,2018_Jul_26_1450,
silence.wav,0,0,0,0,B,0,97,97,97,,,,,None,,,,pu,4,blast_a_018,119.983694015,1C,auditory,2018_Jul_26_1450,
silence.wav,0,0,0,0,B,0,98,98,98,,,,,None,,,,pu,4,blast_a_018,119.983694015,1C,auditory,2018_Jul_26_1450,
silence.wav,0,0,0,0,B,0,99,99,99,,,,,None,,,,pu,4,blast_a_018,119.983694015,1C,auditory,2018_Jul_26_1450,
silence.wav,0,0,0,0,B,0,100,100,100,,,,,None,,,,pu,4,blast_a_018,119.983694015,1C,auditory,2018_Jul_26_1450,
silence.wav,0,0,0,0,B,0,101,101,101,,,,,None,,,,pu,4,blast_a_018,119.983694015,1C,auditory,2018_Jul_26_1450,
silence.wav,0,0,0,0,B,0,102,102,102,,,,,None,,,,pu,4,blast_a_018,119.983694015,1C,auditory,2018_Jul_26_1450,
silence.wav,0,0,0,0,B,0,103,103,103,,,,,None,,,,pu,4,blast_a_018,119.983694015,1C,auditory,2018_Jul_26_1450,
silence.wav,0,0,0,0,B,0,104,104,104,,,,,None,,,,pu,4,blast_a_018,119.983694015,1C,auditory,2018_Jul_26_1450,
silence.wav,0,0,0,0,B,0,105,105,105,,,,,None,,,,pu,4,blast_a_018,119.983694015,1C,auditory,2018_Jul_26_1450,
silence.wav,0,0,0,0,B,0,106,106,106,,,,,None,,,,pu,4,blast_a_018,119.983694015,1C,auditory,2018_Jul_26_1450,
silence.wav,0,0,0,0,B,0,107,107,107,,,,,None,,,,pu,4,blast_a_018,119.983694015,1C,auditory,2018_Jul_26_1450,
silence.wav,0,0,0,0,B,0,108,108,108,,,,,None,,,,pu,4,blast_a_018,119.983694015,1C,auditory,2018_Jul_26_1450,
silence.wav,0,0,0,0,B,0,109,109,109,,,,,None,,,,pu,4,blast_a_018,119.983694015,1C,auditory,2018_Jul_26_1450,
silence.wav,0,0,0,0,B,0,110,110,110,,,,,None,,,,pu,4,blast_a_018,119.983694015,1C,auditory,2018_Jul_26_1450,
silence.wav,0,0,0,0,B,0,111,111,111,,,,,None,,,,pu,4,blast_a_018,119.983694015,1C,auditory,2018_Jul_26_1450,
silence.wav,0,0,0,0,B,0,112,112,112,,,,,None,,,,pu,4,blast_a_018,119.983694015,1C,auditory,2018_Jul_26_1450,
silence.wav,0,0,0,0,B,0,113,113,113,,,,,None,,,,pu,4,blast_a_018,119.983694015,1C,auditory,2018_Jul_26_1450,
silence.wav,0,0,0,0,B,0,114,114,114,,,,,None,,,,pu,4,blast_a_018,119.983694015,1C,auditory,2018_Jul_26_1450,
silence.wav,0,0,0,0,B,0,115,115,115,,,,,None,,,,pu,4,blast_a_018,119.983694015,1C,auditory,2018_Jul_26_1450,
silence.wav,0,0,0,0,B,0,116,116,116,,,,,None,,,,pu,4,blast_a_018,119.983694015,1C,auditory,2018_Jul_26_1450,
silence.wav,0,0,0,0,B,0,117,117,117,,,,,None,,,,pu,4,blast_a_018,119.983694015,1C,auditory,2018_Jul_26_1450,
silence.wav,0,0,0,0,B,0,118,118,118,,,,,None,,,,pu,4,blast_a_018,119.983694015,1C,auditory,2018_Jul_26_1450,
silence.wav,0,0,0,0,B,0,119,119,119,,,,,None,,,,pu,4,blast_a_018,119.983694015,1C,auditory,2018_Jul_26_1450,
silence.wav,0,0,0,0,B,0,120,120,120,,,,,None,,,,pu,4,blast_a_018,119.983694015,1C,auditory,2018_Jul_26_1450,
silence.wav,0,0,0,0,B,0,121,121,121,,,,,None,,,,pu,4,blast_a_018,119.983694015,1C,auditory,2018_Jul_26_1450,
silence.wav,0,0,0,0,B,0,122,122,122,,,,,None,,,,pu,4,blast_a_018,119.983694015,1C,auditory,2018_Jul_26_1450,
silence.wav,0,0,0,0,B,0,123,123,123,,,,,None,,,,pu,4,blast_a_018,119.983694015,1C,auditory,2018_Jul_26_1450,
silence.wav,0,0,0,0,B,0,124,124,124,,,,,None,,,,pu,4,blast_a_018,119.983694015,1C,auditory,2018_Jul_26_1450,
3A.wav,1,1,33,379,S,,,,,0,0,0,0,,,None,,pu,4,blast_a_018,119.983694015,1C,auditory,2018_Jul_26_1450,
3B.wav,1,2,33,380,S,,,,,0,1,1,1,,,None,,pu,4,blast_a_018,119.983694015,1C,auditory,2018_Jul_26_1450,
3C.wav,1,3,33,381,S,,,,,0,2,2,2,,,None,,pu,4,blast_a_018,119.983694015,1C,auditory,2018_Jul_26_1450,
3A.wav,1,1,34,385,S,,,,,0,3,3,3,,,None,,pu,4,blast_a_018,119.983694015,1C,auditory,2018_Jul_26_1450,
3B.wav,1,2,34,386,S,,,,,0,4,4,4,,,None,,pu,4,blast_a_018,119.983694015,1C,auditory,2018_Jul_26_1450,
3C.wav,1,3,34,387,S,,,,,0,5,5,5,,,None,,pu,4,blast_a_018,119.983694015,1C,auditory,2018_Jul_26_1450,
2A.wav,4,1,33,391,S,,,,,0,6,6,6,,,None,,pu,4,blast_a_018,119.983694015,1C,auditory,2018_Jul_26_1450,
2B.wav,4,2,33,392,S,,,,,0,7,7,7,,,None,,pu,4,blast_a_018,119.983694015,1C,auditory,2018_Jul_26_1450,
2C.wav,4,3,33,393,S,,,,,0,8,8,8,,,3,0.300322509785,pu,4,blast_a_018,119.983694015,1C,auditory,2018_Jul_26_1450,
4A.wav,3,1,33,394,S,,,,,0,9,9,9,,,None,,pu,4,blast_a_018,119.983694015,1C,auditory,2018_Jul_26_1450,
4B.wav,3,2,33,395,S,,,,,0,10,10,10,,,None,,pu,4,blast_a_018,119.983694015,1C,auditory,2018_Jul_26_1450,
4C.wav,3,3,33,396,S,,,,,0,11,11,11,,,None,,pu,4,blast_a_018,119.983694015,1C,auditory,2018_Jul_26_1450,
1A.wav,2,1,33,397,S,,,,,0,12,12,12,,,None,,pu,4,blast_a_018,119.983694015,1C,auditory,2018_Jul_26_1450,
1B.wav,2,2,33,398,S,,,,,0,13,13,13,,,None,,pu,4,blast_a_018,119.983694015,1C,auditory,2018_Jul_26_1450,
1C.wav,2,3,33,399,S,,,,,0,14,14,14,,,None,,pu,4,blast_a_018,119.983694015,1C,auditory,2018_Jul_26_1450,
3A.wav,1,1,35,400,S,,,,,0,15,15,15,,,3,0.117169796988,pu,4,blast_a_018,119.983694015,1C,auditory,2018_Jul_26_1450,
3B.wav,1,2,35,401,S,,,,,0,16,16,16,,,None,,pu,4,blast_a_018,119.983694015,1C,auditory,2018_Jul_26_1450,
3C.wav,1,3,35,402,S,,,,,0,17,17,17,,,None,,pu,4,blast_a_018,119.983694015,1C,auditory,2018_Jul_26_1450,
4A.wav,3,1,34,403,S,,,,,0,18,18,18,,,None,,pu,4,blast_a_018,119.983694015,1C,auditory,2018_Jul_26_1450,
4B.wav,3,2,34,404,S,,,,,0,19,19,19,,,None,,pu,4,blast_a_018,119.983694015,1C,auditory,2018_Jul_26_1450,
4C.wav,3,3,34,405,S,,,,,0,20,20,20,,,None,,pu,4,blast_a_018,119.983694015,1C,auditory,2018_Jul_26_1450,
2A.wav,4,1,34,406,S,,,,,0,21,21,21,,,None,,pu,4,blast_a_018,119.983694015,1C,auditory,2018_Jul_26_1450,
2B.wav,4,2,34,407,S,,,,,0,22,22,22,,,None,,pu,4,blast_a_018,119.983694015,1C,auditory,2018_Jul_26_1450,
2C.wav,4,3,34,408,S,,,,,0,23,23,23,,,None,,pu,4,blast_a_018,119.983694015,1C,auditory,2018_Jul_26_1450,
1A.wav,2,1,34,409,S,,,,,0,24,24,24,,,None,,pu,4,blast_a_018,119.983694015,1C,auditory,2018_Jul_26_1450,
1B.wav,2,2,34,410,S,,,,,0,25,25,25,,,None,,pu,4,blast_a_018,119.983694015,1C,auditory,2018_Jul_26_1450,
1C.wav,2,3,34,411,S,,,,,0,26,26,26,,,None,,pu,4,blast_a_018,119.983694015,1C,auditory,2018_Jul_26_1450,
3A.wav,1,1,36,412,S,,,,,0,27,27,27,,,None,,pu,4,blast_a_018,119.983694015,1C,auditory,2018_Jul_26_1450,
3B.wav,1,2,36,413,S,,,,,0,28,28,28,,,None,,pu,4,blast_a_018,119.983694015,1C,auditory,2018_Jul_26_1450,
3C.wav,1,3,36,414,S,,,,,0,29,29,29,,,None,,pu,4,blast_a_018,119.983694015,1C,auditory,2018_Jul_26_1450,
1A.wav,2,1,35,415,S,,,,,0,30,30,30,,,None,,pu,4,blast_a_018,119.983694015,1C,auditory,2018_Jul_26_1450,
1B.wav,2,2,35,416,S,,,,,0,31,31,31,,,None,,pu,4,blast_a_018,119.983694015,1C,auditory,2018_Jul_26_1450,
1C.wav,2,3,35,417,S,,,,,0,32,32,32,,,None,,pu,4,blast_a_018,119.983694015,1C,auditory,2018_Jul_26_1450,
2A.wav,4,1,35,418,S,,,,,0,33,33,33,,,3,0.158700681768,pu,4,blast_a_018,119.983694015,1C,auditory,2018_Jul_26_1450,
2B.wav,4,2,35,419,S,,,,,0,34,34,34,,,None,,pu,4,blast_a_018,119.983694015,1C,auditory,2018_Jul_26_1450,
2C.wav,4,3,35,420,S,,,,,0,35,35,35,,,None,,pu,4,blast_a_018,119.983694015,1C,auditory,2018_Jul_26_1450,
4A.wav,3,1,35,421,S,,,,,0,36,36,36,,,None,,pu,4,blast_a_018,119.983694015,1C,auditory,2018_Jul_26_1450,
4B.wav,3,2,35,422,S,,,,,0,37,37,37,,,None,,pu,4,blast_a_018,119.983694015,1C,auditory,2018_Jul_26_1450,
4C.wav,3,3,35,423,S,,,,,0,38,38,38,,,None,,pu,4,blast_a_018,119.983694015,1C,auditory,2018_Jul_26_1450,
2A.wav,4,1,36,424,S,,,,,0,39,39,39,,,None,,pu,4,blast_a_018,119.983694015,1C,auditory,2018_Jul_26_1450,
2B.wav,4,2,36,425,S,,,,,0,40,40,40,,,None,,pu,4,blast_a_018,119.983694015,1C,auditory,2018_Jul_26_1450,
2C.wav,4,3,36,426,S,,,,,0,41,41,41,,,None,,pu,4,blast_a_018,119.983694015,1C,auditory,2018_Jul_26_1450,
4A.wav,3,1,36,427,S,,,,,0,42,42,42,,,None,,pu,4,blast_a_018,119.983694015,1C,auditory,2018_Jul_26_1450,
4B.wav,3,2,36,428,S,,,,,0,43,43,43,,,3,0.050394463753,pu,4,blast_a_018,119.983694015,1C,auditory,2018_Jul_26_1450,
4C.wav,3,3,36,429,S,,,,,0,44,44,44,,,None,,pu,4,blast_a_018,119.983694015,1C,auditory,2018_Jul_26_1450,
1A.wav,2,1,36,430,S,,,,,0,45,45,45,,,None,,pu,4,blast_a_018,119.983694015,1C,auditory,2018_Jul_26_1450,
1B.wav,2,2,36,431,S,,,,,0,46,46,46,,,None,,pu,4,blast_a_018,119.983694015,1C,auditory,2018_Jul_26_1450,
1C.wav,2,3,36,432,S,,,,,0,47,47,47,,,None,,pu,4,blast_a_018,119.983694015,1C,auditory,2018_Jul_26_1450,
3A.wav,1,1,37,433,S,,,,,0,48,48,48,,,None,,pu,4,blast_a_018,119.983694015,1C,auditory,2018_Jul_26_1450,
3B.wav,1,2,37,434,S,,,,,0,49,49,49,,,None,,pu,4,blast_a_018,119.983694015,1C,auditory,2018_Jul_26_1450,
3C.wav,1,3,37,435,S,,,,,0,50,50,50,,,None,,pu,4,blast_a_018,119.983694015,1C,auditory,2018_Jul_26_1450,
4A.wav,3,1,37,436,S,,,,,0,51,51,51,,,None,,pu,4,blast_a_018,119.983694015,1C,auditory,2018_Jul_26_1450,
4B.wav,3,2,37,437,S,,,,,0,52,52,52,,,None,,pu,4,blast_a_018,119.983694015,1C,auditory,2018_Jul_26_1450,
4C.wav,3,3,37,438,S,,,,,0,53,53,53,,,None,,pu,4,blast_a_018,119.983694015,1C,auditory,2018_Jul_26_1450,
3A.wav,1,1,38,439,S,,,,,0,54,54,54,,,None,,pu,4,blast_a_018,119.983694015,1C,auditory,2018_Jul_26_1450,
3B.wav,1,2,38,440,S,,,,,0,55,55,55,,,3,0.0420794182901,pu,4,blast_a_018,119.983694015,1C,auditory,2018_Jul_26_1450,
3C.wav,1,3,38,441,S,,,,,0,56,56,56,,,None,,pu,4,blast_a_018,119.983694015,1C,auditory,2018_Jul_26_1450,
2A.wav,4,1,37,442,S,,,,,0,57,57,57,,,None,,pu,4,blast_a_018,119.983694015,1C,auditory,2018_Jul_26_1450,
2B.wav,4,2,37,443,S,,,,,0,58,58,58,,,None,,pu,4,blast_a_018,119.983694015,1C,auditory,2018_Jul_26_1450,
2C.wav,4,3,37,444,S,,,,,0,59,59,59,,,None,,pu,4,blast_a_018,119.983694015,1C,auditory,2018_Jul_26_1450,
1A.wav,2,1,37,445,S,,,,,0,60,60,60,,,None,,pu,4,blast_a_018,119.983694015,1C,auditory,2018_Jul_26_1450,
1B.wav,2,2,37,446,S,,,,,0,61,61,61,,,None,,pu,4,blast_a_018,119.983694015,1C,auditory,2018_Jul_26_1450,
1C.wav,2,3,37,447,S,,,,,0,62,62,62,,,None,,pu,4,blast_a_018,119.983694015,1C,auditory,2018_Jul_26_1450,
3A.wav,1,1,39,448,S,,,,,0,63,63,63,,,3,0.183773097633,pu,4,blast_a_018,119.983694015,1C,auditory,2018_Jul_26_1450,
3B.wav,1,2,39,449,S,,,,,0,64,64,64,,,None,,pu,4,blast_a_018,119.983694015,1C,auditory,2018_Jul_26_1450,
3C.wav,1,3,39,450,S,,,,,0,65,65,65,,,None,,pu,4,blast_a_018,119.983694015,1C,auditory,2018_Jul_26_1450,
2A.wav,4,1,38,451,S,,,,,0,66,66,66,,,None,,pu,4,blast_a_018,119.983694015,1C,auditory,2018_Jul_26_1450,
2B.wav,4,2,38,452,S,,,,,0,67,67,67,,,None,,pu,4,blast_a_018,119.983694015,1C,auditory,2018_Jul_26_1450,
2C.wav,4,3,38,453,S,,,,,0,68,68,68,,,None,,pu,4,blast_a_018,119.983694015,1C,auditory,2018_Jul_26_1450,
1A.wav,2,1,38,454,S,,,,,0,69,69,69,,,None,,pu,4,blast_a_018,119.983694015,1C,auditory,2018_Jul_26_1450,
1B.wav,2,2,38,455,S,,,,,0,70,70,70,,,None,,pu,4,blast_a_018,119.983694015,1C,auditory,2018_Jul_26_1450,
1C.wav,2,3,38,456,S,,,,,0,71,71,71,,,None,,pu,4,blast_a_018,119.983694015,1C,auditory,2018_Jul_26_1450,
4A.wav,3,1,38,457,S,,,,,0,72,72,72,,,3,0.142271363962,pu,4,blast_a_018,119.983694015,1C,auditory,2018_Jul_26_1450,
4B.wav,3,2,38,458,S,,,,,0,73,73,73,,,None,,pu,4,blast_a_018,119.983694015,1C,auditory,2018_Jul_26_1450,
4C.wav,3,3,38,459,S,,,,,0,74,74,74,,,None,,pu,4,blast_a_018,119.983694015,1C,auditory,2018_Jul_26_1450,
1A.wav,2,1,39,460,S,,,,,0,75,75,75,,,None,,pu,4,blast_a_018,119.983694015,1C,auditory,2018_Jul_26_1450,
1B.wav,2,2,39,461,S,,,,,0,76,76,76,,,None,,pu,4,blast_a_018,119.983694015,1C,auditory,2018_Jul_26_1450,
1C.wav,2,3,39,462,S,,,,,0,77,77,77,,,None,,pu,4,blast_a_018,119.983694015,1C,auditory,2018_Jul_26_1450,
3A.wav,1,1,40,463,S,,,,,0,78,78,78,,,None,,pu,4,blast_a_018,119.983694015,1C,auditory,2018_Jul_26_1450,
3B.wav,1,2,40,464,S,,,,,0,79,79,79,,,None,,pu,4,blast_a_018,119.983694015,1C,auditory,2018_Jul_26_1450,
3C.wav,1,3,40,465,S,,,,,0,80,80,80,,,None,,pu,4,blast_a_018,119.983694015,1C,auditory,2018_Jul_26_1450,
4A.wav,3,1,39,466,S,,,,,0,81,81,81,,,None,,pu,4,blast_a_018,119.983694015,1C,auditory,2018_Jul_26_1450,
4B.wav,3,2,39,467,S,,,,,0,82,82,82,,,None,,pu,4,blast_a_018,119.983694015,1C,auditory,2018_Jul_26_1450,
4C.wav,3,3,39,468,S,,,,,0,83,83,83,,,None,,pu,4,blast_a_018,119.983694015,1C,auditory,2018_Jul_26_1450,
2A.wav,4,1,39,469,S,,,,,0,84,84,84,,,None,,pu,4,blast_a_018,119.983694015,1C,auditory,2018_Jul_26_1450,
2B.wav,4,2,39,470,S,,,,,0,85,85,85,,,None,,pu,4,blast_a_018,119.983694015,1C,auditory,2018_Jul_26_1450,
2C.wav,4,3,39,471,S,,,,,0,86,86,86,,,3,0.0418601691163,pu,4,blast_a_018,119.983694015,1C,auditory,2018_Jul_26_1450,
4A.wav,3,1,40,472,S,,,,,0,87,87,87,,,None,,pu,4,blast_a_018,119.983694015,1C,auditory,2018_Jul_26_1450,
4B.wav,3,2,40,473,S,,,,,0,88,88,88,,,None,,pu,4,blast_a_018,119.983694015,1C,auditory,2018_Jul_26_1450,
4C.wav,3,3,40,474,S,,,,,0,89,89,89,,,None,,pu,4,blast_a_018,119.983694015,1C,auditory,2018_Jul_26_1450,
1A.wav,2,1,40,475,S,,,,,0,90,90,90,,,None,,pu,4,blast_a_018,119.983694015,1C,auditory,2018_Jul_26_1450,
1B.wav,2,2,40,476,S,,,,,0,91,91,91,,,None,,pu,4,blast_a_018,119.983694015,1C,auditory,2018_Jul_26_1450,
1C.wav,2,3,40,477,S,,,,,0,92,92,92,,,3,0.383507453036,pu,4,blast_a_018,119.983694015,1C,auditory,2018_Jul_26_1450,
2A.wav,4,1,40,478,S,,,,,0,93,93,93,,,None,,pu,4,blast_a_018,119.983694015,1C,auditory,2018_Jul_26_1450,
2B.wav,4,2,40,479,S,,,,,0,94,94,94,,,None,,pu,4,blast_a_018,119.983694015,1C,auditory,2018_Jul_26_1450,
2C.wav,4,3,40,480,S,,,,,0,95,95,95,,,None,,pu,4,blast_a_018,119.983694015,1C,auditory,2018_Jul_26_1450,
silence.wav,0,0,0,0,B,,,,,0,96,96,96,,,None,,pu,4,blast_a_018,119.983694015,1C,auditory,2018_Jul_26_1450,
silence.wav,0,0,0,0,B,,,,,0,97,97,97,,,None,,pu,4,blast_a_018,119.983694015,1C,auditory,2018_Jul_26_1450,
silence.wav,0,0,0,0,B,,,,,0,98,98,98,,,None,,pu,4,blast_a_018,119.983694015,1C,auditory,2018_Jul_26_1450,
silence.wav,0,0,0,0,B,,,,,0,99,99,99,,,None,,pu,4,blast_a_018,119.983694015,1C,auditory,2018_Jul_26_1450,
silence.wav,0,0,0,0,B,,,,,0,100,100,100,,,None,,pu,4,blast_a_018,119.983694015,1C,auditory,2018_Jul_26_1450,
silence.wav,0,0,0,0,B,,,,,0,101,101,101,,,None,,pu,4,blast_a_018,119.983694015,1C,auditory,2018_Jul_26_1450,
silence.wav,0,0,0,0,B,,,,,0,102,102,102,,,None,,pu,4,blast_a_018,119.983694015,1C,auditory,2018_Jul_26_1450,
silence.wav,0,0,0,0,B,,,,,0,103,103,103,,,None,,pu,4,blast_a_018,119.983694015,1C,auditory,2018_Jul_26_1450,
silence.wav,0,0,0,0,B,,,,,0,104,104,104,,,None,,pu,4,blast_a_018,119.983694015,1C,auditory,2018_Jul_26_1450,
silence.wav,0,0,0,0,B,,,,,0,105,105,105,,,None,,pu,4,blast_a_018,119.983694015,1C,auditory,2018_Jul_26_1450,
silence.wav,0,0,0,0,B,,,,,0,106,106,106,,,None,,pu,4,blast_a_018,119.983694015,1C,auditory,2018_Jul_26_1450,
silence.wav,0,0,0,0,B,,,,,0,107,107,107,,,None,,pu,4,blast_a_018,119.983694015,1C,auditory,2018_Jul_26_1450,
silence.wav,0,0,0,0,B,,,,,0,108,108,108,,,None,,pu,4,blast_a_018,119.983694015,1C,auditory,2018_Jul_26_1450,
silence.wav,0,0,0,0,B,,,,,0,109,109,109,,,None,,pu,4,blast_a_018,119.983694015,1C,auditory,2018_Jul_26_1450,
silence.wav,0,0,0,0,B,,,,,0,110,110,110,,,None,,pu,4,blast_a_018,119.983694015,1C,auditory,2018_Jul_26_1450,
silence.wav,0,0,0,0,B,,,,,0,111,111,111,,,None,,pu,4,blast_a_018,119.983694015,1C,auditory,2018_Jul_26_1450,
silence.wav,0,0,0,0,B,,,,,0,112,112,112,,,None,,pu,4,blast_a_018,119.983694015,1C,auditory,2018_Jul_26_1450,
silence.wav,0,0,0,0,B,,,,,0,113,113,113,,,None,,pu,4,blast_a_018,119.983694015,1C,auditory,2018_Jul_26_1450,
silence.wav,0,0,0,0,B,,,,,0,114,114,114,,,None,,pu,4,blast_a_018,119.983694015,1C,auditory,2018_Jul_26_1450,
silence.wav,0,0,0,0,B,,,,,0,115,115,115,,,None,,pu,4,blast_a_018,119.983694015,1C,auditory,2018_Jul_26_1450,
silence.wav,0,0,0,0,B,,,,,0,116,116,116,,,None,,pu,4,blast_a_018,119.983694015,1C,auditory,2018_Jul_26_1450,
silence.wav,0,0,0,0,B,,,,,0,117,117,117,,,None,,pu,4,blast_a_018,119.983694015,1C,auditory,2018_Jul_26_1450,
silence.wav,0,0,0,0,B,,,,,0,118,118,118,,,None,,pu,4,blast_a_018,119.983694015,1C,auditory,2018_Jul_26_1450,
silence.wav,0,0,0,0,B,,,,,0,119,119,119,,,None,,pu,4,blast_a_018,119.983694015,1C,auditory,2018_Jul_26_1450,
silence.wav,0,0,0,0,B,,,,,0,120,120,120,,,None,,pu,4,blast_a_018,119.983694015,1C,auditory,2018_Jul_26_1450,
silence.wav,0,0,0,0,B,,,,,0,121,121,121,,,None,,pu,4,blast_a_018,119.983694015,1C,auditory,2018_Jul_26_1450,
silence.wav,0,0,0,0,B,,,,,0,122,122,122,,,None,,pu,4,blast_a_018,119.983694015,1C,auditory,2018_Jul_26_1450,
silence.wav,0,0,0,0,B,,,,,0,123,123,123,,,None,,pu,4,blast_a_018,119.983694015,1C,auditory,2018_Jul_26_1450,
silence.wav,0,0,0,0,B,,,,,0,124,124,124,,,None,,pu,4,blast_a_018,119.983694015,1C,auditory,2018_Jul_26_1450,
3A.wav,1,1,25,289,S,,,,,0,0,0,0,,,None,,pu,4,blast_a_018,119.983694015,1C,auditory,2018_Jul_26_1450,
3B.wav,1,2,25,290,S,,,,,0,1,1,1,,,None,,pu,4,blast_a_018,119.983694015,1C,auditory,2018_Jul_26_1450,
3C.wav,1,3,25,291,S,,,,,0,2,2,2,,,None,,pu,4,blast_a_018,119.983694015,1C,auditory,2018_Jul_26_1450,
1A.wav,2,1,25,292,S,,,,,0,3,3,3,,,None,,pu,4,blast_a_018,119.983694015,1C,auditory,2018_Jul_26_1450,
1B.wav,2,2,25,293,S,,,,,0,4,4,4,,,None,,pu,4,blast_a_018,119.983694015,1C,auditory,2018_Jul_26_1450,
1C.wav,2,3,25,294,S,,,,,0,5,5,5,,,None,,pu,4,blast_a_018,119.983694015,1C,auditory,2018_Jul_26_1450,
4A.wav,3,1,25,295,S,,,,,0,6,6,6,,,None,,pu,4,blast_a_018,119.983694015,1C,auditory,2018_Jul_26_1450,
4B.wav,3,2,25,296,S,,,,,0,7,7,7,,,None,,pu,4,blast_a_018,119.983694015,1C,auditory,2018_Jul_26_1450,
4C.wav,3,3,25,297,S,,,,,0,8,8,8,,,None,,pu,4,blast_a_018,119.983694015,1C,auditory,2018_Jul_26_1450,
3A.wav,1,1,26,298,S,,,,,0,9,9,9,,,None,,pu,4,blast_a_018,119.983694015,1C,auditory,2018_Jul_26_1450,
3B.wav,1,2,26,299,S,,,,,0,10,10,10,,,3,0.150304341671,pu,4,blast_a_018,119.983694015,1C,auditory,2018_Jul_26_1450,
3C.wav,1,3,26,300,S,,,,,0,11,11,11,,,None,,pu,4,blast_a_018,119.983694015,1C,auditory,2018_Jul_26_1450,
2A.wav,4,1,25,301,S,,,,,0,12,12,12,,,None,,pu,4,blast_a_018,119.983694015,1C,auditory,2018_Jul_26_1450,
2B.wav,4,2,25,302,S,,,,,0,13,13,13,,,None,,pu,4,blast_a_018,119.983694015,1C,auditory,2018_Jul_26_1450,
2C.wav,4,3,25,303,S,,,,,0,14,14,14,,,None,,pu,4,blast_a_018,119.983694015,1C,auditory,2018_Jul_26_1450,
1A.wav,2,1,26,304,S,,,,,0,15,15,15,,,None,,pu,4,blast_a_018,119.983694015,1C,auditory,2018_Jul_26_1450,
1B.wav,2,2,26,305,S,,,,,0,16,16,16,,,None,,pu,4,blast_a_018,119.983694015,1C,auditory,2018_Jul_26_1450,
1C.wav,2,3,26,306,S,,,,,0,17,17,17,,,None,,pu,4,blast_a_018,119.983694015,1C,auditory,2018_Jul_26_1450,
4A.wav,3,1,26,307,S,,,,,0,18,18,18,,,None,,pu,4,blast_a_018,119.983694015,1C,auditory,2018_Jul_26_1450,
4B.wav,3,2,26,308,S,,,,,0,19,19,19,,,None,,pu,4,blast_a_018,119.983694015,1C,auditory,2018_Jul_26_1450,
4C.wav,3,3,26,309,S,,,,,0,20,20,20,,,None,,pu,4,blast_a_018,119.983694015,1C,auditory,2018_Jul_26_1450,
3A.wav,1,1,27,310,S,,,,,0,21,21,21,,,None,,pu,4,blast_a_018,119.983694015,1C,auditory,2018_Jul_26_1450,
3B.wav,1,2,27,311,S,,,,,0,22,22,22,,,None,,pu,4,blast_a_018,119.983694015,1C,auditory,2018_Jul_26_1450,
3C.wav,1,3,27,312,S,,,,,0,23,23,23,,,None,,pu,4,blast_a_018,119.983694015,1C,auditory,2018_Jul_26_1450,
2A.wav,4,1,26,313,S,,,,,0,24,24,24,,,None,,pu,4,blast_a_018,119.983694015,1C,auditory,2018_Jul_26_1450,
2B.wav,4,2,26,314,S,,,,,0,25,25,25,,,None,,pu,4,blast_a_018,119.983694015,1C,auditory,2018_Jul_26_1450,
2C.wav,4,3,26,315,S,,,,,0,26,26,26,,,3,0.0753876378767,pu,4,blast_a_018,119.983694015,1C,auditory,2018_Jul_26_1450,
1A.wav,2,1,27,316,S,,,,,0,27,27,27,,,None,,pu,4,blast_a_018,119.983694015,1C,auditory,2018_Jul_26_1450,
1B.wav,2,2,27,317,S,,,,,0,28,28,28,,,None,,pu,4,blast_a_018,119.983694015,1C,auditory,2018_Jul_26_1450,
1C.wav,2,3,27,318,S,,,,,0,29,29,29,,,None,,pu,4,blast_a_018,119.983694015,1C,auditory,2018_Jul_26_1450,
2A.wav,4,1,27,319,S,,,,,0,30,30,30,,,None,,pu,4,blast_a_018,119.983694015,1C,auditory,2018_Jul_26_1450,
2B.wav,4,2,27,320,S,,,,,0,31,31,31,,,None,,pu,4,blast_a_018,119.983694015,1C,auditory,2018_Jul_26_1450,
2C.wav,4,3,27,321,S,,,,,0,32,32,32,,,3,0.142045134948,pu,4,blast_a_018,119.983694015,1C,auditory,2018_Jul_26_1450,
4A.wav,3,1,27,322,S,,,,,0,33,33,33,,,None,,pu,4,blast_a_018,119.983694015,1C,auditory,2018_Jul_26_1450,
4B.wav,3,2,27,323,S,,,,,0,34,34,34,,,None,,pu,4,blast_a_018,119.983694015,1C,auditory,2018_Jul_26_1450,
4C.wav,3,3,27,324,S,,,,,0,35,35,35,,,None,,pu,4,blast_a_018,119.983694015,1C,auditory,2018_Jul_26_1450,
3A.wav,1,1,28,325,S,,,,,0,36,36,36,,,None,,pu,4,blast_a_018,119.983694015,1C,auditory,2018_Jul_26_1450,
3B.wav,1,2,28,326,S,,,,,0,37,37,37,,,3,0.0254407052089,pu,4,blast_a_018,119.983694015,1C,auditory,2018_Jul_26_1450,
3C.wav,1,3,28,327,S,,,,,0,38,38,38,,,None,,pu,4,blast_a_018,119.983694015,1C,auditory,2018_Jul_26_1450,
4A.wav,3,1,28,328,S,,,,,0,39,39,39,,,None,,pu,4,blast_a_018,119.983694015,1C,auditory,2018_Jul_26_1450,
4B.wav,3,2,28,329,S,,,,,0,40,40,40,,,None,,pu,4,blast_a_018,119.983694015,1C,auditory,2018_Jul_26_1450,
4C.wav,3,3,28,330,S,,,,,0,41,41,41,,,None,,pu,4,blast_a_018,119.983694015,1C,auditory,2018_Jul_26_1450,
3A.wav,1,1,29,331,S,,,,,0,42,42,42,,,None,,pu,4,blast_a_018,119.983694015,1C,auditory,2018_Jul_26_1450,
3B.wav,1,2,29,332,S,,,,,0,43,43,43,,,3,0.100368905212,pu,4,blast_a_018,119.983694015,1C,auditory,2018_Jul_26_1450,
3C.wav,1,3,29,333,S,,,,,0,44,44,44,,,None,,pu,4,blast_a_018,119.983694015,1C,auditory,2018_Jul_26_1450,
2A.wav,4,1,28,334,S,,,,,0,45,45,45,,,None,,pu,4,blast_a_018,119.983694015,1C,auditory,2018_Jul_26_1450,
2B.wav,4,2,28,335,S,,,,,0,46,46,46,,,None,,pu,4,blast_a_018,119.983694015,1C,auditory,2018_Jul_26_1450,
2C.wav,4,3,28,336,S,,,,,0,47,47,47,,,None,,pu,4,blast_a_018,119.983694015,1C,auditory,2018_Jul_26_1450,
1A.wav,2,1,28,337,S,,,,,0,48,48,48,,,None,,pu,4,blast_a_018,119.983694015,1C,auditory,2018_Jul_26_1450,
1B.wav,2,2,28,338,S,,,,,0,49,49,49,,,None,,pu,4,blast_a_018,119.983694015,1C,auditory,2018_Jul_26_1450,
1C.wav,2,3,28,339,S,,,,,0,50,50,50,,,None,,pu,4,blast_a_018,119.983694015,1C,auditory,2018_Jul_26_1450,
4A.wav,3,1,29,340,S,,,,,0,51,51,51,,,None,,pu,4,blast_a_018,119.983694015,1C,auditory,2018_Jul_26_1450,
4B.wav,3,2,29,341,S,,,,,0,52,52,52,,,3,0.125433520079,pu,4,blast_a_018,119.983694015,1C,auditory,2018_Jul_26_1450,
4C.wav,3,3,29,342,S,,,,,0,53,53,53,,,None,,pu,4,blast_a_018,119.983694015,1C,auditory,2018_Jul_26_1450,
3A.wav,1,1,30,343,S,,,,,0,54,54,54,,,None,,pu,4,blast_a_018,119.983694015,1C,auditory,2018_Jul_26_1450,
3B.wav,1,2,30,344,S,,,,,0,55,55,55,,,3,0.133867222867,pu,4,blast_a_018,119.983694015,1C,auditory,2018_Jul_26_1450,
3C.wav,1,3,30,345,S,,,,,0,56,56,56,,,None,,pu,4,blast_a_018,119.983694015,1C,auditory,2018_Jul_26_1450,
2A.wav,4,1,29,346,S,,,,,0,57,57,57,,,None,,pu,4,blast_a_018,119.983694015,1C,auditory,2018_Jul_26_1450,
2B.wav,4,2,29,347,S,,,,,0,58,58,58,,,None,,pu,4,blast_a_018,119.983694015,1C,auditory,2018_Jul_26_1450,
2C.wav,4,3,29,348,S,,,,,0,59,59,59,,,None,,pu,4,blast_a_018,119.983694015,1C,auditory,2018_Jul_26_1450,
1A.wav,2,1,29,349,S,,,,,0,60,60,60,,,None,,pu,4,blast_a_018,119.983694015,1C,auditory,2018_Jul_26_1450,
1B.wav,2,2,29,350,S,,,,,0,61,61,61,,,None,,pu,4,blast_a_018,119.983694015,1C,auditory,2018_Jul_26_1450,
1C.wav,2,3,29,351,S,,,,,0,62,62,62,,,None,,pu,4,blast_a_018,119.983694015,1C,auditory,2018_Jul_26_1450,
2A.wav,4,1,30,352,S,,,,,0,63,63,63,,,3,0.117072079192,pu,4,blast_a_018,119.983694015,1C,auditory,2018_Jul_26_1450,
2B.wav,4,2,30,353,S,,,,,0,64,64,64,,,None,,pu,4,blast_a_018,119.983694015,1C,auditory,2018_Jul_26_1450,
2C.wav,4,3,30,354,S,,,,,0,65,65,65,,,None,,pu,4,blast_a_018,119.983694015,1C,auditory,2018_Jul_26_1450,
3A.wav,1,1,31,355,S,,,,,0,66,66,66,,,None,,pu,4,blast_a_018,119.983694015,1C,auditory,2018_Jul_26_1450,
3B.wav,1,2,31,356,S,,,,,0,67,67,67,,,None,,pu,4,blast_a_018,119.983694015,1C,auditory,2018_Jul_26_1450,
3C.wav,1,3,31,357,S,,,,,0,68,68,68,,,None,,pu,4,blast_a_018,119.983694015,1C,auditory,2018_Jul_26_1450,
4A.wav,3,1,30,358,S,,,,,0,69,69,69,,,None,,pu,4,blast_a_018,119.983694015,1C,auditory,2018_Jul_26_1450,
4B.wav,3,2,30,359,S,,,,,0,70,70,70,,,None,,pu,4,blast_a_018,119.983694015,1C,auditory,2018_Jul_26_1450,
4C.wav,3,3,30,360,S,,,,,0,71,71,71,,,None,,pu,4,blast_a_018,119.983694015,1C,auditory,2018_Jul_26_1450,
1A.wav,2,1,30,361,S,,,,,0,72,72,72,,,None,,pu,4,blast_a_018,119.983694015,1C,auditory,2018_Jul_26_1450,
1B.wav,2,2,30,362,S,,,,,0,73,73,73,,,None,,pu,4,blast_a_018,119.983694015,1C,auditory,2018_Jul_26_1450,
1C.wav,2,3,30,363,S,,,,,0,74,74,74,,,None,,pu,4,blast_a_018,119.983694015,1C,auditory,2018_Jul_26_1450,
3A.wav,1,1,32,364,S,,,,,0,75,75,75,,,None,,pu,4,blast_a_018,119.983694015,1C,auditory,2018_Jul_26_1450,
3B.wav,1,2,32,365,S,,,,,0,76,76,76,,,3,0.0587341439532,pu,4,blast_a_018,119.983694015,1C,auditory,2018_Jul_26_1450,
3C.wav,1,3,32,366,S,,,,,0,77,77,77,,,None,,pu,4,blast_a_018,119.983694015,1C,auditory,2018_Jul_26_1450,
2A.wav,4,1,31,367,S,,,,,0,78,78,78,,,None,,pu,4,blast_a_018,119.983694015,1C,auditory,2018_Jul_26_1450,
2B.wav,4,2,31,368,S,,,,,0,79,79,79,,,None,,pu,4,blast_a_018,119.983694015,1C,auditory,2018_Jul_26_1450,
2C.wav,4,3,31,369,S,,,,,0,80,80,80,,,None,,pu,4,blast_a_018,119.983694015,1C,auditory,2018_Jul_26_1450,
4A.wav,3,1,31,370,S,,,,,0,81,81,81,,,None,,pu,4,blast_a_018,119.983694015,1C,auditory,2018_Jul_26_1450,
4B.wav,3,2,31,371,S,,,,,0,82,82,82,,,None,,pu,4,blast_a_018,119.983694015,1C,auditory,2018_Jul_26_1450,
4C.wav,3,3,31,372,S,,,,,0,83,83,83,,,None,,pu,4,blast_a_018,119.983694015,1C,auditory,2018_Jul_26_1450,
1A.wav,2,1,31,373,S,,,,,0,84,84,84,,,None,,pu,4,blast_a_018,119.983694015,1C,auditory,2018_Jul_26_1450,
1B.wav,2,2,31,374,S,,,,,0,85,85,85,,,None,,pu,4,blast_a_018,119.983694015,1C,auditory,2018_Jul_26_1450,
1C.wav,2,3,31,375,S,,,,,0,86,86,86,,,None,,pu,4,blast_a_018,119.983694015,1C,auditory,2018_Jul_26_1450,
2A.wav,4,1,32,376,S,,,,,0,87,87,87,,,None,,pu,4,blast_a_018,119.983694015,1C,auditory,2018_Jul_26_1450,
2B.wav,4,2,32,377,S,,,,,0,88,88,88,,,None,,pu,4,blast_a_018,119.983694015,1C,auditory,2018_Jul_26_1450,
2C.wav,4,3,32,378,S,,,,,0,89,89,89,,,3,0.0837482576062,pu,4,blast_a_018,119.983694015,1C,auditory,2018_Jul_26_1450,
4A.wav,3,1,32,382,S,,,,,0,90,90,90,,,None,,pu,4,blast_a_018,119.983694015,1C,auditory,2018_Jul_26_1450,
4B.wav,3,2,32,383,S,,,,,0,91,91,91,,,None,,pu,4,blast_a_018,119.983694015,1C,auditory,2018_Jul_26_1450,
4C.wav,3,3,32,384,S,,,,,0,92,92,92,,,None,,pu,4,blast_a_018,119.983694015,1C,auditory,2018_Jul_26_1450,
1A.wav,2,1,32,388,S,,,,,0,93,93,93,,,None,,pu,4,blast_a_018,119.983694015,1C,auditory,2018_Jul_26_1450,
1B.wav,2,2,32,389,S,,,,,0,94,94,94,,,None,,pu,4,blast_a_018,119.983694015,1C,auditory,2018_Jul_26_1450,
1C.wav,2,3,32,390,S,,,,,0,95,95,95,,,3,0.433720851459,pu,4,blast_a_018,119.983694015,1C,auditory,2018_Jul_26_1450,
silence.wav,0,0,0,0,B,,,,,0,96,96,96,,,None,,pu,4,blast_a_018,119.983694015,1C,auditory,2018_Jul_26_1450,
silence.wav,0,0,0,0,B,,,,,0,97,97,97,,,None,,pu,4,blast_a_018,119.983694015,1C,auditory,2018_Jul_26_1450,
silence.wav,0,0,0,0,B,,,,,0,98,98,98,,,None,,pu,4,blast_a_018,119.983694015,1C,auditory,2018_Jul_26_1450,
silence.wav,0,0,0,0,B,,,,,0,99,99,99,,,None,,pu,4,blast_a_018,119.983694015,1C,auditory,2018_Jul_26_1450,
silence.wav,0,0,0,0,B,,,,,0,100,100,100,,,None,,pu,4,blast_a_018,119.983694015,1C,auditory,2018_Jul_26_1450,
silence.wav,0,0,0,0,B,,,,,0,101,101,101,,,None,,pu,4,blast_a_018,119.983694015,1C,auditory,2018_Jul_26_1450,
silence.wav,0,0,0,0,B,,,,,0,102,102,102,,,None,,pu,4,blast_a_018,119.983694015,1C,auditory,2018_Jul_26_1450,
silence.wav,0,0,0,0,B,,,,,0,103,103,103,,,None,,pu,4,blast_a_018,119.983694015,1C,auditory,2018_Jul_26_1450,
silence.wav,0,0,0,0,B,,,,,0,104,104,104,,,None,,pu,4,blast_a_018,119.983694015,1C,auditory,2018_Jul_26_1450,
silence.wav,0,0,0,0,B,,,,,0,105,105,105,,,None,,pu,4,blast_a_018,119.983694015,1C,auditory,2018_Jul_26_1450,
silence.wav,0,0,0,0,B,,,,,0,106,106,106,,,None,,pu,4,blast_a_018,119.983694015,1C,auditory,2018_Jul_26_1450,
silence.wav,0,0,0,0,B,,,,,0,107,107,107,,,None,,pu,4,blast_a_018,119.983694015,1C,auditory,2018_Jul_26_1450,
silence.wav,0,0,0,0,B,,,,,0,108,108,108,,,None,,pu,4,blast_a_018,119.983694015,1C,auditory,2018_Jul_26_1450,
silence.wav,0,0,0,0,B,,,,,0,109,109,109,,,None,,pu,4,blast_a_018,119.983694015,1C,auditory,2018_Jul_26_1450,
silence.wav,0,0,0,0,B,,,,,0,110,110,110,,,None,,pu,4,blast_a_018,119.983694015,1C,auditory,2018_Jul_26_1450,
silence.wav,0,0,0,0,B,,,,,0,111,111,111,,,None,,pu,4,blast_a_018,119.983694015,1C,auditory,2018_Jul_26_1450,
silence.wav,0,0,0,0,B,,,,,0,112,112,112,,,None,,pu,4,blast_a_018,119.983694015,1C,auditory,2018_Jul_26_1450,
silence.wav,0,0,0,0,B,,,,,0,113,113,113,,,None,,pu,4,blast_a_018,119.983694015,1C,auditory,2018_Jul_26_1450,
silence.wav,0,0,0,0,B,,,,,0,114,114,114,,,None,,pu,4,blast_a_018,119.983694015,1C,auditory,2018_Jul_26_1450,
silence.wav,0,0,0,0,B,,,,,0,115,115,115,,,None,,pu,4,blast_a_018,119.983694015,1C,auditory,2018_Jul_26_1450,
silence.wav,0,0,0,0,B,,,,,0,116,116,116,,,None,,pu,4,blast_a_018,119.983694015,1C,auditory,2018_Jul_26_1450,
silence.wav,0,0,0,0,B,,,,,0,117,117,117,,,None,,pu,4,blast_a_018,119.983694015,1C,auditory,2018_Jul_26_1450,
silence.wav,0,0,0,0,B,,,,,0,118,118,118,,,None,,pu,4,blast_a_018,119.983694015,1C,auditory,2018_Jul_26_1450,
silence.wav,0,0,0,0,B,,,,,0,119,119,119,,,None,,pu,4,blast_a_018,119.983694015,1C,auditory,2018_Jul_26_1450,
silence.wav,0,0,0,0,B,,,,,0,120,120,120,,,None,,pu,4,blast_a_018,119.983694015,1C,auditory,2018_Jul_26_1450,
silence.wav,0,0,0,0,B,,,,,0,121,121,121,,,None,,pu,4,blast_a_018,119.983694015,1C,auditory,2018_Jul_26_1450,
silence.wav,0,0,0,0,B,,,,,0,122,122,122,,,None,,pu,4,blast_a_018,119.983694015,1C,auditory,2018_Jul_26_1450,
silence.wav,0,0,0,0,B,,,,,0,123,123,123,,,None,,pu,4,blast_a_018,119.983694015,1C,auditory,2018_Jul_26_1450,
silence.wav,0,0,0,0,B,,,,,0,124,124,124,,,None,,pu,4,blast_a_018,119.983694015,1C,auditory,2018_Jul_26_1450,
ba.wav,0,1,1,289,R,0,0,0,0,,,,,None,,,,pu,4,blast_a_018,119.983694015,1C,auditory,2018_Jul_26_1450,
tu.wav,0,2,1,290,R,0,1,1,1,,,,,None,,,,pu,4,blast_a_018,119.983694015,1C,auditory,2018_Jul_26_1450,
pi.wav,0,3,1,291,R,0,2,2,2,,,,,None,,,,pu,4,blast_a_018,119.983694015,1C,auditory,2018_Jul_26_1450,
du.wav,0,1,1,292,R,0,3,3,3,,,,,None,,,,pu,4,blast_a_018,119.983694015,1C,auditory,2018_Jul_26_1450,
ti.wav,0,2,1,293,R,0,4,4,4,,,,,None,,,,pu,4,blast_a_018,119.983694015,1C,auditory,2018_Jul_26_1450,
bi.wav,0,3,1,294,R,0,5,5,5,,,,,None,,,,pu,4,blast_a_018,119.983694015,1C,auditory,2018_Jul_26_1450,
pu.wav,0,1,1,295,R,0,6,6,6,,,,,None,,,,pu,4,blast_a_018,119.983694015,1C,auditory,2018_Jul_26_1450,
di.wav,0,2,1,296,R,0,7,7,7,,,,,3,0.117044570401,,,pu,4,blast_a_018,119.983694015,1C,auditory,2018_Jul_26_1450,
tu.wav,0,3,1,297,R,0,8,8,8,,,,,None,,,,pu,4,blast_a_018,119.983694015,1C,auditory,2018_Jul_26_1450,
bi.wav,0,1,1,298,R,0,9,9,9,,,,,None,,,,pu,4,blast_a_018,119.983694015,1C,auditory,2018_Jul_26_1450,
da.wav,0,2,1,299,R,0,10,10,10,,,,,None,,,,pu,4,blast_a_018,119.983694015,1C,auditory,2018_Jul_26_1450,
bi.wav,0,3,1,300,R,0,11,11,11,,,,,None,,,,pu,4,blast_a_018,119.983694015,1C,auditory,2018_Jul_26_1450,
du.wav,0,1,1,301,R,0,12,12,12,,,,,None,,,,pu,4,blast_a_018,119.983694015,1C,auditory,2018_Jul_26_1450,
bu.wav,0,2,1,302,R,0,13,13,13,,,,,None,,,,pu,4,blast_a_018,119.983694015,1C,auditory,2018_Jul_26_1450,
pa.wav,0,3,1,303,R,0,14,14,14,,,,,None,,,,pu,4,blast_a_018,119.983694015,1C,auditory,2018_Jul_26_1450,
ti.wav,0,1,1,304,R,0,15,15,15,,,,,None,,,,pu,4,blast_a_018,119.983694015,1C,auditory,2018_Jul_26_1450,
pi.wav,0,2,1,305,R,0,16,16,16,,,,,None,,,,pu,4,blast_a_018,119.983694015,1C,auditory,2018_Jul_26_1450,
pa.wav,0,3,1,306,R,0,17,17,17,,,,,None,,,,pu,4,blast_a_018,119.983694015,1C,auditory,2018_Jul_26_1450,
ta.wav,0,1,1,307,R,0,18,18,18,,,,,None,,,,pu,4,blast_a_018,119.983694015,1C,auditory,2018_Jul_26_1450,
pa.wav,0,2,1,308,R,0,19,19,19,,,,,None,,,,pu,4,blast_a_018,119.983694015,1C,auditory,2018_Jul_26_1450,
bu.wav,0,3,1,309,R,0,20,20,20,,,,,None,,,,pu,4,blast_a_018,119.983694015,1C,auditory,2018_Jul_26_1450,
ta.wav,0,1,1,310,R,0,21,21,21,,,,,None,,,,pu,4,blast_a_018,119.983694015,1C,auditory,2018_Jul_26_1450,
bu.wav,0,2,1,311,R,0,22,22,22,,,,,None,,,,pu,4,blast_a_018,119.983694015,1C,auditory,2018_Jul_26_1450,
da.wav,0,3,1,312,R,0,23,23,23,,,,,None,,,,pu,4,blast_a_018,119.983694015,1C,auditory,2018_Jul_26_1450,
du.wav,0,1,1,337,R,0,24,24,24,,,,,None,,,,pu,4,blast_a_018,119.983694015,1C,auditory,2018_Jul_26_1450,
ba.wav,0,2,1,338,R,0,25,25,25,,,,,None,,,,pu,4,blast_a_018,119.983694015,1C,auditory,2018_Jul_26_1450,
ti.wav,0,3,1,339,R,0,26,26,26,,,,,None,,,,pu,4,blast_a_018,119.983694015,1C,auditory,2018_Jul_26_1450,
bu.wav,0,1,1,340,R,0,27,27,27,,,,,None,,,,pu,4,blast_a_018,119.983694015,1C,auditory,2018_Jul_26_1450,
bi.wav,0,2,1,341,R,0,28,28,28,,,,,None,,,,pu,4,blast_a_018,119.983694015,1C,auditory,2018_Jul_26_1450,
ti.wav,0,3,1,342,R,0,29,29,29,,,,,None,,,,pu,4,blast_a_018,119.983694015,1C,auditory,2018_Jul_26_1450,
pu.wav,0,1,1,343,R,0,30,30,30,,,,,None,,,,pu,4,blast_a_018,119.983694015,1C,auditory,2018_Jul_26_1450,
ba.wav,0,2,1,344,R,0,31,31,31,,,,,3,0.0837724817648,,,pu,4,blast_a_018,119.983694015,1C,auditory,2018_Jul_26_1450,
ta.wav,0,3,1,345,R,0,32,32,32,,,,,None,,,,pu,4,blast_a_018,119.983694015,1C,auditory,2018_Jul_26_1450,
pa.wav,0,1,1,346,R,0,33,33,33,,,,,None,,,,pu,4,blast_a_018,119.983694015,1C,auditory,2018_Jul_26_1450,
tu.wav,0,2,1,347,R,0,34,34,34,,,,,None,,,,pu,4,blast_a_018,119.983694015,1C,auditory,2018_Jul_26_1450,
bu.wav,0,3,1,348,R,0,35,35,35,,,,,None,,,,pu,4,blast_a_018,119.983694015,1C,auditory,2018_Jul_26_1450,
pu.wav,0,1,1,349,R,0,36,36,36,,,,,None,,,,pu,4,blast_a_018,119.983694015,1C,auditory,2018_Jul_26_1450,
di.wav,0,2,1,350,R,0,37,37,37,,,,,3,0.308583769405,,,pu,4,blast_a_018,119.983694015,1C,auditory,2018_Jul_26_1450,
pi.wav,0,3,1,351,R,0,38,38,38,,,,,None,,,,pu,4,blast_a_018,119.983694015,1C,auditory,2018_Jul_26_1450,
du.wav,0,1,1,352,R,0,39,39,39,,,,,None,,,,pu,4,blast_a_018,119.983694015,1C,auditory,2018_Jul_26_1450,
da.wav,0,2,1,353,R,0,40,40,40,,,,,None,,,,pu,4,blast_a_018,119.983694015,1C,auditory,2018_Jul_26_1450,
pi.wav,0,3,1,354,R,0,41,41,41,,,,,None,,,,pu,4,blast_a_018,119.983694015,1C,auditory,2018_Jul_26_1450,
di.wav,0,1,1,355,R,0,42,42,42,,,,,None,,,,pu,4,blast_a_018,119.983694015,1C,auditory,2018_Jul_26_1450,
tu.wav,0,2,1,356,R,0,43,43,43,,,,,None,,,,pu,4,blast_a_018,119.983694015,1C,auditory,2018_Jul_26_1450,
pa.wav,0,3,1,357,R,0,44,44,44,,,,,None,,,,pu,4,blast_a_018,119.983694015,1C,auditory,2018_Jul_26_1450,
ta.wav,0,1,1,358,R,0,45,45,45,,,,,None,,,,pu,4,blast_a_018,119.983694015,1C,auditory,2018_Jul_26_1450,
da.wav,0,2,1,359,R,0,46,46,46,,,,,None,,,,pu,4,blast_a_018,119.983694015,1C,auditory,2018_Jul_26_1450,
bi.wav,0,3,1,360,R,0,47,47,47,,,,,None,,,,pu,4,blast_a_018,119.983694015,1C,auditory,2018_Jul_26_1450,
ba.wav,0,1,1,313,R,0,48,48,48,,,,,None,,,,pu,4,blast_a_018,119.983694015,1C,auditory,2018_Jul_26_1450,
di.wav,0,2,1,314,R,0,49,49,49,,,,,None,,,,pu,4,blast_a_018,119.983694015,1C,auditory,2018_Jul_26_1450,
pu.wav,0,3,1,315,R,0,50,50,50,,,,,None,,,,pu,4,blast_a_018,119.983694015,1C,auditory,2018_Jul_26_1450,
bu.wav,0,1,1,316,R,0,51,51,51,,,,,3,0.133636888058,,,pu,4,blast_a_018,119.983694015,1C,auditory,2018_Jul_26_1450,
pu.wav,0,2,1,317,R,0,52,52,52,,,,,None,,,,pu,4,blast_a_018,119.983694015,1C,auditory,2018_Jul_26_1450,
du.wav,0,3,1,318,R,0,53,53,53,,,,,None,,,,pu,4,blast_a_018,119.983694015,1C,auditory,2018_Jul_26_1450,
da.wav,0,1,1,319,R,0,54,54,54,,,,,None,,,,pu,4,blast_a_018,119.983694015,1C,auditory,2018_Jul_26_1450,
pa.wav,0,2,1,320,R,0,55,55,55,,,,,None,,,,pu,4,blast_a_018,119.983694015,1C,auditory,2018_Jul_26_1450,
da.wav,0,3,1,321,R,0,56,56,56,,,,,None,,,,pu,4,blast_a_018,119.983694015,1C,auditory,2018_Jul_26_1450,
ti.wav,0,1,1,322,R,0,57,57,57,,,,,None,,,,pu,4,blast_a_018,119.983694015,1C,auditory,2018_Jul_26_1450,
ti.wav,0,2,1,323,R,0,58,58,58,,,,,None,,,,pu,4,blast_a_018,119.983694015,1C,auditory,2018_Jul_26_1450,
bu.wav,0,3,1,324,R,0,59,59,59,,,,,None,,,,pu,4,blast_a_018,119.983694015,1C,auditory,2018_Jul_26_1450,
di.wav,0,1,1,325,R,0,60,60,60,,,,,None,,,,pu,4,blast_a_018,119.983694015,1C,auditory,2018_Jul_26_1450,
ta.wav,0,2,1,326,R,0,61,61,61,,,,,None,,,,pu,4,blast_a_018,119.983694015,1C,auditory,2018_Jul_26_1450,
pa.wav,0,3,1,327,R,0,62,62,62,,,,,None,,,,pu,4,blast_a_018,119.983694015,1C,auditory,2018_Jul_26_1450,
ta.wav,0,1,1,328,R,0,63,63,63,,,,,None,,,,pu,4,blast_a_018,119.983694015,1C,auditory,2018_Jul_26_1450,
ba.wav,0,2,1,329,R,0,64,64,64,,,,,None,,,,pu,4,blast_a_018,119.983694015,1C,auditory,2018_Jul_26_1450,
di.wav,0,3,1,330,R,0,65,65,65,,,,,None,,,,pu,4,blast_a_018,119.983694015,1C,auditory,2018_Jul_26_1450,
tu.wav,0,1,1,331,R,0,66,66,66,,,,,None,,,,pu,4,blast_a_018,119.983694015,1C,auditory,2018_Jul_26_1450,
pu.wav,0,2,1,332,R,0,67,67,67,,,,,None,,,,pu,4,blast_a_018,119.983694015,1C,auditory,2018_Jul_26_1450,
bi.wav,0,3,1,333,R,0,68,68,68,,,,,3,0.150371266041,,,pu,4,blast_a_018,119.983694015,1C,auditory,2018_Jul_26_1450,
ba.wav,0,1,1,334,R,0,69,69,69,,,,,None,,,,pu,4,blast_a_018,119.983694015,1C,auditory,2018_Jul_26_1450,
du.wav,0,2,1,335,R,0,70,70,70,,,,,None,,,,pu,4,blast_a_018,119.983694015,1C,auditory,2018_Jul_26_1450,
pi.wav,0,3,1,336,R,0,71,71,71,,,,,None,,,,pu,4,blast_a_018,119.983694015,1C,auditory,2018_Jul_26_1450,
di.wav,0,1,1,361,R,0,72,72,72,,,,,None,,,,pu,4,blast_a_018,119.983694015,1C,auditory,2018_Jul_26_1450,
pu.wav,0,2,1,362,R,0,73,73,73,,,,,None,,,,pu,4,blast_a_018,119.983694015,1C,auditory,2018_Jul_26_1450,
ta.wav,0,3,1,363,R,0,74,74,74,,,,,3,0.292022245168,,,pu,4,blast_a_018,119.983694015,1C,auditory,2018_Jul_26_1450,
pi.wav,0,1,1,364,R,0,75,75,75,,,,,None,,,,pu,4,blast_a_018,119.983694015,1C,auditory,2018_Jul_26_1450,
ti.wav,0,2,1,365,R,0,76,76,76,,,,,None,,,,pu,4,blast_a_018,119.983694015,1C,auditory,2018_Jul_26_1450,
pa.wav,0,3,1,366,R,0,77,77,77,,,,,None,,,,pu,4,blast_a_018,119.983694015,1C,auditory,2018_Jul_26_1450,
pu.wav,0,1,1,367,R,0,78,78,78,,,,,None,,,,pu,4,blast_a_018,119.983694015,1C,auditory,2018_Jul_26_1450,
di.wav,0,2,1,368,R,0,79,79,79,,,,,3,0.375351712217,,,pu,4,blast_a_018,119.983694015,1C,auditory,2018_Jul_26_1450,
bu.wav,0,3,1,369,R,0,80,80,80,,,,,None,,,,pu,4,blast_a_018,119.983694015,1C,auditory,2018_Jul_26_1450,
ta.wav,0,1,1,370,R,0,81,81,81,,,,,None,,,,pu,4,blast_a_018,119.983694015,1C,auditory,2018_Jul_26_1450,
bi.wav,0,2,1,371,R,0,82,82,82,,,,,None,,,,pu,4,blast_a_018,119.983694015,1C,auditory,2018_Jul_26_1450,
bu.wav,0,3,1,372,R,0,83,83,83,,,,,None,,,,pu,4,blast_a_018,119.983694015,1C,auditory,2018_Jul_26_1450,
du.wav,0,1,1,373,R,0,84,84,84,,,,,None,,,,pu,4,blast_a_018,119.983694015,1C,auditory,2018_Jul_26_1450,
da.wav,0,2,1,374,R,0,85,85,85,,,,,None,,,,pu,4,blast_a_018,119.983694015,1C,auditory,2018_Jul_26_1450,
pi.wav,0,3,1,375,R,0,86,86,86,,,,,None,,,,pu,4,blast_a_018,119.983694015,1C,auditory,2018_Jul_26_1450,
ba.wav,0,1,1,376,R,0,87,87,87,,,,,None,,,,pu,4,blast_a_018,119.983694015,1C,auditory,2018_Jul_26_1450,
ba.wav,0,2,1,377,R,0,88,88,88,,,,,None,,,,pu,4,blast_a_018,119.983694015,1C,auditory,2018_Jul_26_1450,
tu.wav,0,3,1,378,R,0,89,89,89,,,,,None,,,,pu,4,blast_a_018,119.983694015,1C,auditory,2018_Jul_26_1450,
ti.wav,0,1,1,379,R,0,90,90,90,,,,,None,,,,pu,4,blast_a_018,119.983694015,1C,auditory,2018_Jul_26_1450,
bi.wav,0,2,1,380,R,0,91,91,91,,,,,None,,,,pu,4,blast_a_018,119.983694015,1C,auditory,2018_Jul_26_1450,
du.wav,0,3,1,381,R,0,92,92,92,,,,,None,,,,pu,4,blast_a_018,119.983694015,1C,auditory,2018_Jul_26_1450,
pa.wav,0,1,1,382,R,0,93,93,93,,,,,None,,,,pu,4,blast_a_018,119.983694015,1C,auditory,2018_Jul_26_1450,
da.wav,0,2,1,383,R,0,94,94,94,,,,,None,,,,pu,4,blast_a_018,119.983694015,1C,auditory,2018_Jul_26_1450,
tu.wav,0,3,1,384,R,0,95,95,95,,,,,None,,,,pu,4,blast_a_018,119.983694015,1C,auditory,2018_Jul_26_1450,
silence.wav,0,0,0,0,B,0,96,96,96,,,,,None,,,,pu,4,blast_a_018,119.983694015,1C,auditory,2018_Jul_26_1450,
silence.wav,0,0,0,0,B,0,97,97,97,,,,,None,,,,pu,4,blast_a_018,119.983694015,1C,auditory,2018_Jul_26_1450,
silence.wav,0,0,0,0,B,0,98,98,98,,,,,None,,,,pu,4,blast_a_018,119.983694015,1C,auditory,2018_Jul_26_1450,
silence.wav,0,0,0,0,B,0,99,99,99,,,,,None,,,,pu,4,blast_a_018,119.983694015,1C,auditory,2018_Jul_26_1450,
silence.wav,0,0,0,0,B,0,100,100,100,,,,,None,,,,pu,4,blast_a_018,119.983694015,1C,auditory,2018_Jul_26_1450,
silence.wav,0,0,0,0,B,0,101,101,101,,,,,None,,,,pu,4,blast_a_018,119.983694015,1C,auditory,2018_Jul_26_1450,
silence.wav,0,0,0,0,B,0,102,102,102,,,,,None,,,,pu,4,blast_a_018,119.983694015,1C,auditory,2018_Jul_26_1450,
silence.wav,0,0,0,0,B,0,103,103,103,,,,,None,,,,pu,4,blast_a_018,119.983694015,1C,auditory,2018_Jul_26_1450,
silence.wav,0,0,0,0,B,0,104,104,104,,,,,None,,,,pu,4,blast_a_018,119.983694015,1C,auditory,2018_Jul_26_1450,
silence.wav,0,0,0,0,B,0,105,105,105,,,,,None,,,,pu,4,blast_a_018,119.983694015,1C,auditory,2018_Jul_26_1450,
silence.wav,0,0,0,0,B,0,106,106,106,,,,,None,,,,pu,4,blast_a_018,119.983694015,1C,auditory,2018_Jul_26_1450,
silence.wav,0,0,0,0,B,0,107,107,107,,,,,None,,,,pu,4,blast_a_018,119.983694015,1C,auditory,2018_Jul_26_1450,
silence.wav,0,0,0,0,B,0,108,108,108,,,,,None,,,,pu,4,blast_a_018,119.983694015,1C,auditory,2018_Jul_26_1450,
silence.wav,0,0,0,0,B,0,109,109,109,,,,,None,,,,pu,4,blast_a_018,119.983694015,1C,auditory,2018_Jul_26_1450,
silence.wav,0,0,0,0,B,0,110,110,110,,,,,None,,,,pu,4,blast_a_018,119.983694015,1C,auditory,2018_Jul_26_1450,
silence.wav,0,0,0,0,B,0,111,111,111,,,,,None,,,,pu,4,blast_a_018,119.983694015,1C,auditory,2018_Jul_26_1450,
silence.wav,0,0,0,0,B,0,112,112,112,,,,,None,,,,pu,4,blast_a_018,119.983694015,1C,auditory,2018_Jul_26_1450,
silence.wav,0,0,0,0,B,0,113,113,113,,,,,None,,,,pu,4,blast_a_018,119.983694015,1C,auditory,2018_Jul_26_1450,
silence.wav,0,0,0,0,B,0,114,114,114,,,,,None,,,,pu,4,blast_a_018,119.983694015,1C,auditory,2018_Jul_26_1450,
silence.wav,0,0,0,0,B,0,115,115,115,,,,,None,,,,pu,4,blast_a_018,119.983694015,1C,auditory,2018_Jul_26_1450,
silence.wav,0,0,0,0,B,0,116,116,116,,,,,None,,,,pu,4,blast_a_018,119.983694015,1C,auditory,2018_Jul_26_1450,
silence.wav,0,0,0,0,B,0,117,117,117,,,,,None,,,,pu,4,blast_a_018,119.983694015,1C,auditory,2018_Jul_26_1450,
silence.wav,0,0,0,0,B,0,118,118,118,,,,,None,,,,pu,4,blast_a_018,119.983694015,1C,auditory,2018_Jul_26_1450,
silence.wav,0,0,0,0,B,0,119,119,119,,,,,None,,,,pu,4,blast_a_018,119.983694015,1C,auditory,2018_Jul_26_1450,
silence.wav,0,0,0,0,B,0,120,120,120,,,,,None,,,,pu,4,blast_a_018,119.983694015,1C,auditory,2018_Jul_26_1450,
silence.wav,0,0,0,0,B,0,121,121,121,,,,,None,,,,pu,4,blast_a_018,119.983694015,1C,auditory,2018_Jul_26_1450,
silence.wav,0,0,0,0,B,0,122,122,122,,,,,None,,,,pu,4,blast_a_018,119.983694015,1C,auditory,2018_Jul_26_1450,
silence.wav,0,0,0,0,B,0,123,123,123,,,,,None,,,,pu,4,blast_a_018,119.983694015,1C,auditory,2018_Jul_26_1450,
silence.wav,0,0,0,0,B,0,124,124,124,,,,,None,,,,pu,4,blast_a_018,119.983694015,1C,auditory,2018_Jul_26_1450,
