soundFile,word,location,repetition,trialnum,condition,fam_trials_loop.thisRepN,fam_trials_loop.thisTrialN,fam_trials_loop.thisN,fam_trials_loop.thisIndex,trials_1.thisRepN,trials_1.thisTrialN,trials_1.thisN,trials_1.thisIndex,sound_block_key_resp.keys,sound_block_key_resp.rt,tone_block_key_resp.keys,tone_block_key_resp.rt,starget,Run,PartID,frameRate,ttarget,expName,date,
da.wav,0,1,1,193,R,0,0,0,0,,,,,None,,,,pu,3,blast_a_022,61.0810000015,1C,auditory,2018_Sep_24_1812,
ba.wav,0,2,1,194,R,0,1,1,1,,,,,None,,,,pu,3,blast_a_022,61.0810000015,1C,auditory,2018_Sep_24_1812,
bi.wav,0,3,1,195,R,0,2,2,2,,,,,None,,,,pu,3,blast_a_022,61.0810000015,1C,auditory,2018_Sep_24_1812,
ta.wav,0,1,1,196,R,0,3,3,3,,,,,None,,,,pu,3,blast_a_022,61.0810000015,1C,auditory,2018_Sep_24_1812,
pa.wav,0,2,1,197,R,0,4,4,4,,,,,None,,,,pu,3,blast_a_022,61.0810000015,1C,auditory,2018_Sep_24_1812,
du.wav,0,3,1,198,R,0,5,5,5,,,,,None,,,,pu,3,blast_a_022,61.0810000015,1C,auditory,2018_Sep_24_1812,
da.wav,0,1,1,199,R,0,6,6,6,,,,,None,,,,pu,3,blast_a_022,61.0810000015,1C,auditory,2018_Sep_24_1812,
tu.wav,0,2,1,200,R,0,7,7,7,,,,,None,,,,pu,3,blast_a_022,61.0810000015,1C,auditory,2018_Sep_24_1812,
bu.wav,0,3,1,201,R,0,8,8,8,,,,,4,0.438152074814,,,pu,3,blast_a_022,61.0810000015,1C,auditory,2018_Sep_24_1812,
pu.wav,0,1,1,202,R,0,9,9,9,,,,,None,,,,pu,3,blast_a_022,61.0810000015,1C,auditory,2018_Sep_24_1812,
ti.wav,0,2,1,203,R,0,10,10,10,,,,,4,0.154545068741,,,pu,3,blast_a_022,61.0810000015,1C,auditory,2018_Sep_24_1812,
pi.wav,0,3,1,204,R,0,11,11,11,,,,,None,,,,pu,3,blast_a_022,61.0810000015,1C,auditory,2018_Sep_24_1812,
bu.wav,0,1,1,205,R,0,12,12,12,,,,,None,,,,pu,3,blast_a_022,61.0810000015,1C,auditory,2018_Sep_24_1812,
tu.wav,0,2,1,206,R,0,13,13,13,,,,,None,,,,pu,3,blast_a_022,61.0810000015,1C,auditory,2018_Sep_24_1812,
ba.wav,0,3,1,207,R,0,14,14,14,,,,,None,,,,pu,3,blast_a_022,61.0810000015,1C,auditory,2018_Sep_24_1812,
pi.wav,0,1,1,208,R,0,15,15,15,,,,,None,,,,pu,3,blast_a_022,61.0810000015,1C,auditory,2018_Sep_24_1812,
di.wav,0,2,1,209,R,0,16,16,16,,,,,None,,,,pu,3,blast_a_022,61.0810000015,1C,auditory,2018_Sep_24_1812,
da.wav,0,3,1,210,R,0,17,17,17,,,,,None,,,,pu,3,blast_a_022,61.0810000015,1C,auditory,2018_Sep_24_1812,
du.wav,0,1,1,211,R,0,18,18,18,,,,,None,,,,pu,3,blast_a_022,61.0810000015,1C,auditory,2018_Sep_24_1812,
di.wav,0,2,1,212,R,0,19,19,19,,,,,None,,,,pu,3,blast_a_022,61.0810000015,1C,auditory,2018_Sep_24_1812,
pu.wav,0,3,1,213,R,0,20,20,20,,,,,None,,,,pu,3,blast_a_022,61.0810000015,1C,auditory,2018_Sep_24_1812,
ti.wav,0,1,1,214,R,0,21,21,21,,,,,4,0.00616788864136,,,pu,3,blast_a_022,61.0810000015,1C,auditory,2018_Sep_24_1812,
pa.wav,0,2,1,215,R,0,22,22,22,,,,,None,,,,pu,3,blast_a_022,61.0810000015,1C,auditory,2018_Sep_24_1812,
ta.wav,0,3,1,216,R,0,23,23,23,,,,,None,,,,pu,3,blast_a_022,61.0810000015,1C,auditory,2018_Sep_24_1812,
bi.wav,0,1,1,217,R,0,24,24,24,,,,,None,,,,pu,3,blast_a_022,61.0810000015,1C,auditory,2018_Sep_24_1812,
du.wav,0,2,1,218,R,0,25,25,25,,,,,None,,,,pu,3,blast_a_022,61.0810000015,1C,auditory,2018_Sep_24_1812,
ti.wav,0,3,1,219,R,0,26,26,26,,,,,4,0.00758004188538,,,pu,3,blast_a_022,61.0810000015,1C,auditory,2018_Sep_24_1812,
du.wav,0,1,1,220,R,0,27,27,27,,,,,None,,,,pu,3,blast_a_022,61.0810000015,1C,auditory,2018_Sep_24_1812,
pi.wav,0,2,1,221,R,0,28,28,28,,,,,None,,,,pu,3,blast_a_022,61.0810000015,1C,auditory,2018_Sep_24_1812,
ba.wav,0,3,1,222,R,0,29,29,29,,,,,None,,,,pu,3,blast_a_022,61.0810000015,1C,auditory,2018_Sep_24_1812,
bu.wav,0,1,1,223,R,0,30,30,30,,,,,4,0.439479112625,,,pu,3,blast_a_022,61.0810000015,1C,auditory,2018_Sep_24_1812,
pa.wav,0,2,1,224,R,0,31,31,31,,,,,None,,,,pu,3,blast_a_022,61.0810000015,1C,auditory,2018_Sep_24_1812,
pi.wav,0,3,1,225,R,0,32,32,32,,,,,None,,,,pu,3,blast_a_022,61.0810000015,1C,auditory,2018_Sep_24_1812,
pa.wav,0,1,1,226,R,0,33,33,33,,,,,None,,,,pu,3,blast_a_022,61.0810000015,1C,auditory,2018_Sep_24_1812,
ti.wav,0,2,1,227,R,0,34,34,34,,,,,None,,,,pu,3,blast_a_022,61.0810000015,1C,auditory,2018_Sep_24_1812,
da.wav,0,3,1,228,R,0,35,35,35,,,,,None,,,,pu,3,blast_a_022,61.0810000015,1C,auditory,2018_Sep_24_1812,
pu.wav,0,1,1,229,R,0,36,36,36,,,,,None,,,,pu,3,blast_a_022,61.0810000015,1C,auditory,2018_Sep_24_1812,
bu.wav,0,2,1,230,R,0,37,37,37,,,,,4,0.0405290126801,,,pu,3,blast_a_022,61.0810000015,1C,auditory,2018_Sep_24_1812,
bi.wav,0,3,1,231,R,0,38,38,38,,,,,4,0.0258491039276,,,pu,3,blast_a_022,61.0810000015,1C,auditory,2018_Sep_24_1812,
di.wav,0,1,1,232,R,0,39,39,39,,,,,None,,,,pu,3,blast_a_022,61.0810000015,1C,auditory,2018_Sep_24_1812,
da.wav,0,2,1,233,R,0,40,40,40,,,,,None,,,,pu,3,blast_a_022,61.0810000015,1C,auditory,2018_Sep_24_1812,
pa.wav,0,3,1,234,R,0,41,41,41,,,,,None,,,,pu,3,blast_a_022,61.0810000015,1C,auditory,2018_Sep_24_1812,
ta.wav,0,1,1,235,R,0,42,42,42,,,,,None,,,,pu,3,blast_a_022,61.0810000015,1C,auditory,2018_Sep_24_1812,
da.wav,0,2,1,236,R,0,43,43,43,,,,,None,,,,pu,3,blast_a_022,61.0810000015,1C,auditory,2018_Sep_24_1812,
ta.wav,0,3,1,237,R,0,44,44,44,,,,,None,,,,pu,3,blast_a_022,61.0810000015,1C,auditory,2018_Sep_24_1812,
tu.wav,0,1,1,238,R,0,45,45,45,,,,,None,,,,pu,3,blast_a_022,61.0810000015,1C,auditory,2018_Sep_24_1812,
bu.wav,0,2,1,239,R,0,46,46,46,,,,,None,,,,pu,3,blast_a_022,61.0810000015,1C,auditory,2018_Sep_24_1812,
tu.wav,0,3,1,240,R,0,47,47,47,,,,,4,0.404522895813,,,pu,3,blast_a_022,61.0810000015,1C,auditory,2018_Sep_24_1812,
ti.wav,0,1,1,241,R,0,48,48,48,,,,,None,,,,pu,3,blast_a_022,61.0810000015,1C,auditory,2018_Sep_24_1812,
ba.wav,0,2,1,242,R,0,49,49,49,,,,,None,,,,pu,3,blast_a_022,61.0810000015,1C,auditory,2018_Sep_24_1812,
di.wav,0,3,1,243,R,0,50,50,50,,,,,None,,,,pu,3,blast_a_022,61.0810000015,1C,auditory,2018_Sep_24_1812,
pu.wav,0,1,1,244,R,0,51,51,51,,,,,None,,,,pu,3,blast_a_022,61.0810000015,1C,auditory,2018_Sep_24_1812,
pu.wav,0,2,1,245,R,0,52,52,52,,,,,4,0.104609966278,,,pu,3,blast_a_022,61.0810000015,1C,auditory,2018_Sep_24_1812,
ba.wav,0,3,1,246,R,0,53,53,53,,,,,None,,,,pu,3,blast_a_022,61.0810000015,1C,auditory,2018_Sep_24_1812,
du.wav,0,1,1,247,R,0,54,54,54,,,,,None,,,,pu,3,blast_a_022,61.0810000015,1C,auditory,2018_Sep_24_1812,
bi.wav,0,2,1,248,R,0,55,55,55,,,,,None,,,,pu,3,blast_a_022,61.0810000015,1C,auditory,2018_Sep_24_1812,
bi.wav,0,3,1,249,R,0,56,56,56,,,,,None,,,,pu,3,blast_a_022,61.0810000015,1C,auditory,2018_Sep_24_1812,
ta.wav,0,1,1,250,R,0,57,57,57,,,,,None,,,,pu,3,blast_a_022,61.0810000015,1C,auditory,2018_Sep_24_1812,
ta.wav,0,2,1,251,R,0,58,58,58,,,,,None,,,,pu,3,blast_a_022,61.0810000015,1C,auditory,2018_Sep_24_1812,
ba.wav,0,3,1,252,R,0,59,59,59,,,,,None,,,,pu,3,blast_a_022,61.0810000015,1C,auditory,2018_Sep_24_1812,
da.wav,0,1,1,253,R,0,60,60,60,,,,,None,,,,pu,3,blast_a_022,61.0810000015,1C,auditory,2018_Sep_24_1812,
tu.wav,0,2,1,254,R,0,61,61,61,,,,,None,,,,pu,3,blast_a_022,61.0810000015,1C,auditory,2018_Sep_24_1812,
di.wav,0,3,1,255,R,0,62,62,62,,,,,None,,,,pu,3,blast_a_022,61.0810000015,1C,auditory,2018_Sep_24_1812,
ti.wav,0,1,1,256,R,0,63,63,63,,,,,None,,,,pu,3,blast_a_022,61.0810000015,1C,auditory,2018_Sep_24_1812,
pi.wav,0,2,1,257,R,0,64,64,64,,,,,None,,,,pu,3,blast_a_022,61.0810000015,1C,auditory,2018_Sep_24_1812,
pu.wav,0,3,1,258,R,0,65,65,65,,,,,None,,,,pu,3,blast_a_022,61.0810000015,1C,auditory,2018_Sep_24_1812,
pi.wav,0,1,1,259,R,0,66,66,66,,,,,4,0.106123209,,,pu,3,blast_a_022,61.0810000015,1C,auditory,2018_Sep_24_1812,
du.wav,0,2,1,260,R,0,67,67,67,,,,,None,,,,pu,3,blast_a_022,61.0810000015,1C,auditory,2018_Sep_24_1812,
di.wav,0,3,1,261,R,0,68,68,68,,,,,None,,,,pu,3,blast_a_022,61.0810000015,1C,auditory,2018_Sep_24_1812,
bu.wav,0,1,1,262,R,0,69,69,69,,,,,None,,,,pu,3,blast_a_022,61.0810000015,1C,auditory,2018_Sep_24_1812,
pa.wav,0,2,1,263,R,0,70,70,70,,,,,4,0.137531995773,,,pu,3,blast_a_022,61.0810000015,1C,auditory,2018_Sep_24_1812,
tu.wav,0,3,1,264,R,0,71,71,71,,,,,None,,,,pu,3,blast_a_022,61.0810000015,1C,auditory,2018_Sep_24_1812,
pi.wav,0,1,1,265,R,0,72,72,72,,,,,None,,,,pu,3,blast_a_022,61.0810000015,1C,auditory,2018_Sep_24_1812,
ta.wav,0,2,1,266,R,0,73,73,73,,,,,None,,,,pu,3,blast_a_022,61.0810000015,1C,auditory,2018_Sep_24_1812,
da.wav,0,3,1,267,R,0,74,74,74,,,,,None,,,,pu,3,blast_a_022,61.0810000015,1C,auditory,2018_Sep_24_1812,
ta.wav,0,1,1,268,R,0,75,75,75,,,,,None,,,,pu,3,blast_a_022,61.0810000015,1C,auditory,2018_Sep_24_1812,
tu.wav,0,2,1,269,R,0,76,76,76,,,,,None,,,,pu,3,blast_a_022,61.0810000015,1C,auditory,2018_Sep_24_1812,
tu.wav,0,3,1,270,R,0,77,77,77,,,,,None,,,,pu,3,blast_a_022,61.0810000015,1C,auditory,2018_Sep_24_1812,
ba.wav,0,1,1,271,R,0,78,78,78,,,,,None,,,,pu,3,blast_a_022,61.0810000015,1C,auditory,2018_Sep_24_1812,
pu.wav,0,2,1,272,R,0,79,79,79,,,,,None,,,,pu,3,blast_a_022,61.0810000015,1C,auditory,2018_Sep_24_1812,
pa.wav,0,3,1,273,R,0,80,80,80,,,,,4,0.00527215003967,,,pu,3,blast_a_022,61.0810000015,1C,auditory,2018_Sep_24_1812,
bi.wav,0,1,1,274,R,0,81,81,81,,,,,None,,,,pu,3,blast_a_022,61.0810000015,1C,auditory,2018_Sep_24_1812,
pu.wav,0,2,1,275,R,0,82,82,82,,,,,None,,,,pu,3,blast_a_022,61.0810000015,1C,auditory,2018_Sep_24_1812,
bu.wav,0,3,1,276,R,0,83,83,83,,,,,4,0.385903120041,,,pu,3,blast_a_022,61.0810000015,1C,auditory,2018_Sep_24_1812,
ti.wav,0,1,1,277,R,0,84,84,84,,,,,None,,,,pu,3,blast_a_022,61.0810000015,1C,auditory,2018_Sep_24_1812,
du.wav,0,2,1,278,R,0,85,85,85,,,,,None,,,,pu,3,blast_a_022,61.0810000015,1C,auditory,2018_Sep_24_1812,
tu.wav,0,3,1,279,R,0,86,86,86,,,,,None,,,,pu,3,blast_a_022,61.0810000015,1C,auditory,2018_Sep_24_1812,
du.wav,0,1,1,280,R,0,87,87,87,,,,,None,,,,pu,3,blast_a_022,61.0810000015,1C,auditory,2018_Sep_24_1812,
di.wav,0,2,1,281,R,0,88,88,88,,,,,None,,,,pu,3,blast_a_022,61.0810000015,1C,auditory,2018_Sep_24_1812,
bi.wav,0,3,1,282,R,0,89,89,89,,,,,None,,,,pu,3,blast_a_022,61.0810000015,1C,auditory,2018_Sep_24_1812,
ti.wav,0,1,1,283,R,0,90,90,90,,,,,None,,,,pu,3,blast_a_022,61.0810000015,1C,auditory,2018_Sep_24_1812,
di.wav,0,2,1,284,R,0,91,91,91,,,,,None,,,,pu,3,blast_a_022,61.0810000015,1C,auditory,2018_Sep_24_1812,
bi.wav,0,3,1,285,R,0,92,92,92,,,,,None,,,,pu,3,blast_a_022,61.0810000015,1C,auditory,2018_Sep_24_1812,
ba.wav,0,1,1,286,R,0,93,93,93,,,,,None,,,,pu,3,blast_a_022,61.0810000015,1C,auditory,2018_Sep_24_1812,
pi.wav,0,2,1,287,R,0,94,94,94,,,,,None,,,,pu,3,blast_a_022,61.0810000015,1C,auditory,2018_Sep_24_1812,
pi.wav,0,3,1,288,R,0,95,95,95,,,,,None,,,,pu,3,blast_a_022,61.0810000015,1C,auditory,2018_Sep_24_1812,
silence.wav,0,0,0,0,B,0,96,96,96,,,,,None,,,,pu,3,blast_a_022,61.0810000015,1C,auditory,2018_Sep_24_1812,
silence.wav,0,0,0,0,B,0,97,97,97,,,,,None,,,,pu,3,blast_a_022,61.0810000015,1C,auditory,2018_Sep_24_1812,
silence.wav,0,0,0,0,B,0,98,98,98,,,,,None,,,,pu,3,blast_a_022,61.0810000015,1C,auditory,2018_Sep_24_1812,
silence.wav,0,0,0,0,B,0,99,99,99,,,,,None,,,,pu,3,blast_a_022,61.0810000015,1C,auditory,2018_Sep_24_1812,
silence.wav,0,0,0,0,B,0,100,100,100,,,,,None,,,,pu,3,blast_a_022,61.0810000015,1C,auditory,2018_Sep_24_1812,
silence.wav,0,0,0,0,B,0,101,101,101,,,,,None,,,,pu,3,blast_a_022,61.0810000015,1C,auditory,2018_Sep_24_1812,
silence.wav,0,0,0,0,B,0,102,102,102,,,,,None,,,,pu,3,blast_a_022,61.0810000015,1C,auditory,2018_Sep_24_1812,
silence.wav,0,0,0,0,B,0,103,103,103,,,,,None,,,,pu,3,blast_a_022,61.0810000015,1C,auditory,2018_Sep_24_1812,
silence.wav,0,0,0,0,B,0,104,104,104,,,,,None,,,,pu,3,blast_a_022,61.0810000015,1C,auditory,2018_Sep_24_1812,
silence.wav,0,0,0,0,B,0,105,105,105,,,,,None,,,,pu,3,blast_a_022,61.0810000015,1C,auditory,2018_Sep_24_1812,
silence.wav,0,0,0,0,B,0,106,106,106,,,,,None,,,,pu,3,blast_a_022,61.0810000015,1C,auditory,2018_Sep_24_1812,
silence.wav,0,0,0,0,B,0,107,107,107,,,,,None,,,,pu,3,blast_a_022,61.0810000015,1C,auditory,2018_Sep_24_1812,
silence.wav,0,0,0,0,B,0,108,108,108,,,,,None,,,,pu,3,blast_a_022,61.0810000015,1C,auditory,2018_Sep_24_1812,
silence.wav,0,0,0,0,B,0,109,109,109,,,,,None,,,,pu,3,blast_a_022,61.0810000015,1C,auditory,2018_Sep_24_1812,
silence.wav,0,0,0,0,B,0,110,110,110,,,,,None,,,,pu,3,blast_a_022,61.0810000015,1C,auditory,2018_Sep_24_1812,
silence.wav,0,0,0,0,B,0,111,111,111,,,,,None,,,,pu,3,blast_a_022,61.0810000015,1C,auditory,2018_Sep_24_1812,
silence.wav,0,0,0,0,B,0,112,112,112,,,,,None,,,,pu,3,blast_a_022,61.0810000015,1C,auditory,2018_Sep_24_1812,
silence.wav,0,0,0,0,B,0,113,113,113,,,,,None,,,,pu,3,blast_a_022,61.0810000015,1C,auditory,2018_Sep_24_1812,
silence.wav,0,0,0,0,B,0,114,114,114,,,,,None,,,,pu,3,blast_a_022,61.0810000015,1C,auditory,2018_Sep_24_1812,
silence.wav,0,0,0,0,B,0,115,115,115,,,,,None,,,,pu,3,blast_a_022,61.0810000015,1C,auditory,2018_Sep_24_1812,
silence.wav,0,0,0,0,B,0,116,116,116,,,,,None,,,,pu,3,blast_a_022,61.0810000015,1C,auditory,2018_Sep_24_1812,
silence.wav,0,0,0,0,B,0,117,117,117,,,,,None,,,,pu,3,blast_a_022,61.0810000015,1C,auditory,2018_Sep_24_1812,
silence.wav,0,0,0,0,B,0,118,118,118,,,,,None,,,,pu,3,blast_a_022,61.0810000015,1C,auditory,2018_Sep_24_1812,
silence.wav,0,0,0,0,B,0,119,119,119,,,,,None,,,,pu,3,blast_a_022,61.0810000015,1C,auditory,2018_Sep_24_1812,
silence.wav,0,0,0,0,B,0,120,120,120,,,,,None,,,,pu,3,blast_a_022,61.0810000015,1C,auditory,2018_Sep_24_1812,
silence.wav,0,0,0,0,B,0,121,121,121,,,,,None,,,,pu,3,blast_a_022,61.0810000015,1C,auditory,2018_Sep_24_1812,
silence.wav,0,0,0,0,B,0,122,122,122,,,,,None,,,,pu,3,blast_a_022,61.0810000015,1C,auditory,2018_Sep_24_1812,
silence.wav,0,0,0,0,B,0,123,123,123,,,,,None,,,,pu,3,blast_a_022,61.0810000015,1C,auditory,2018_Sep_24_1812,
silence.wav,0,0,0,0,B,0,124,124,124,,,,,None,,,,pu,3,blast_a_022,61.0810000015,1C,auditory,2018_Sep_24_1812,
3A.wav,1,1,1,1,S,,,,,0,0,0,0,,,None,,pu,3,blast_a_022,61.0810000015,1C,auditory,2018_Sep_24_1812,
3B.wav,1,2,1,2,S,,,,,0,1,1,1,,,4,0.0748329162598,pu,3,blast_a_022,61.0810000015,1C,auditory,2018_Sep_24_1812,
3C.wav,1,3,1,3,S,,,,,0,2,2,2,,,4,0.455332040787,pu,3,blast_a_022,61.0810000015,1C,auditory,2018_Sep_24_1812,
1A.wav,2,1,1,4,S,,,,,0,3,3,3,,,None,,pu,3,blast_a_022,61.0810000015,1C,auditory,2018_Sep_24_1812,
1B.wav,2,2,1,5,S,,,,,0,4,4,4,,,None,,pu,3,blast_a_022,61.0810000015,1C,auditory,2018_Sep_24_1812,
1C.wav,2,3,1,6,S,,,,,0,5,5,5,,,4,0.322023153305,pu,3,blast_a_022,61.0810000015,1C,auditory,2018_Sep_24_1812,
4A.wav,3,1,1,7,S,,,,,0,6,6,6,,,None,,pu,3,blast_a_022,61.0810000015,1C,auditory,2018_Sep_24_1812,
4B.wav,3,2,1,8,S,,,,,0,7,7,7,,,None,,pu,3,blast_a_022,61.0810000015,1C,auditory,2018_Sep_24_1812,
4C.wav,3,3,1,9,S,,,,,0,8,8,8,,,None,,pu,3,blast_a_022,61.0810000015,1C,auditory,2018_Sep_24_1812,
3A.wav,1,1,2,10,S,,,,,0,9,9,9,,,4,0.323218107224,pu,3,blast_a_022,61.0810000015,1C,auditory,2018_Sep_24_1812,
3B.wav,1,2,2,11,S,,,,,0,10,10,10,,,None,,pu,3,blast_a_022,61.0810000015,1C,auditory,2018_Sep_24_1812,
3C.wav,1,3,2,12,S,,,,,0,11,11,11,,,None,,pu,3,blast_a_022,61.0810000015,1C,auditory,2018_Sep_24_1812,
2A.wav,4,1,1,13,S,,,,,0,12,12,12,,,4,0.0561888217926,pu,3,blast_a_022,61.0810000015,1C,auditory,2018_Sep_24_1812,
2B.wav,4,2,1,14,S,,,,,0,13,13,13,,,4,0.270935058594,pu,3,blast_a_022,61.0810000015,1C,auditory,2018_Sep_24_1812,
2C.wav,4,3,1,15,S,,,,,0,14,14,14,,,None,,pu,3,blast_a_022,61.0810000015,1C,auditory,2018_Sep_24_1812,
1A.wav,2,1,2,16,S,,,,,0,15,15,15,,,4,0.375985860825,pu,3,blast_a_022,61.0810000015,1C,auditory,2018_Sep_24_1812,
1B.wav,2,2,2,17,S,,,,,0,16,16,16,,,None,,pu,3,blast_a_022,61.0810000015,1C,auditory,2018_Sep_24_1812,
1C.wav,2,3,2,18,S,,,,,0,17,17,17,,,4,0.372982978821,pu,3,blast_a_022,61.0810000015,1C,auditory,2018_Sep_24_1812,
4A.wav,3,1,2,19,S,,,,,0,18,18,18,,,None,,pu,3,blast_a_022,61.0810000015,1C,auditory,2018_Sep_24_1812,
4B.wav,3,2,2,20,S,,,,,0,19,19,19,,,None,,pu,3,blast_a_022,61.0810000015,1C,auditory,2018_Sep_24_1812,
4C.wav,3,3,2,21,S,,,,,0,20,20,20,,,None,,pu,3,blast_a_022,61.0810000015,1C,auditory,2018_Sep_24_1812,
3A.wav,1,1,3,22,S,,,,,0,21,21,21,,,4,0.306463003159,pu,3,blast_a_022,61.0810000015,1C,auditory,2018_Sep_24_1812,
3B.wav,1,2,3,23,S,,,,,0,22,22,22,,,None,,pu,3,blast_a_022,61.0810000015,1C,auditory,2018_Sep_24_1812,
3C.wav,1,3,3,24,S,,,,,0,23,23,23,,,4,0.39156794548,pu,3,blast_a_022,61.0810000015,1C,auditory,2018_Sep_24_1812,
2A.wav,4,1,2,25,S,,,,,0,24,24,24,,,None,,pu,3,blast_a_022,61.0810000015,1C,auditory,2018_Sep_24_1812,
2B.wav,4,2,2,26,S,,,,,0,25,25,25,,,4,0.269201993942,pu,3,blast_a_022,61.0810000015,1C,auditory,2018_Sep_24_1812,
2C.wav,4,3,2,27,S,,,,,0,26,26,26,,,None,,pu,3,blast_a_022,61.0810000015,1C,auditory,2018_Sep_24_1812,
1A.wav,2,1,3,28,S,,,,,0,27,27,27,,,4,0.375670909882,pu,3,blast_a_022,61.0810000015,1C,auditory,2018_Sep_24_1812,
1B.wav,2,2,3,29,S,,,,,0,28,28,28,,,None,,pu,3,blast_a_022,61.0810000015,1C,auditory,2018_Sep_24_1812,
1C.wav,2,3,3,30,S,,,,,0,29,29,29,,,4,0.238625049591,pu,3,blast_a_022,61.0810000015,1C,auditory,2018_Sep_24_1812,
2A.wav,4,1,3,31,S,,,,,0,30,30,30,,,None,,pu,3,blast_a_022,61.0810000015,1C,auditory,2018_Sep_24_1812,
2B.wav,4,2,3,32,S,,,,,0,31,31,31,,,4,0.118856906891,pu,3,blast_a_022,61.0810000015,1C,auditory,2018_Sep_24_1812,
2C.wav,4,3,3,33,S,,,,,0,32,32,32,,,None,,pu,3,blast_a_022,61.0810000015,1C,auditory,2018_Sep_24_1812,
4A.wav,3,1,3,34,S,,,,,0,33,33,33,,,4,0.289388895035,pu,3,blast_a_022,61.0810000015,1C,auditory,2018_Sep_24_1812,
4B.wav,3,2,3,35,S,,,,,0,34,34,34,,,None,,pu,3,blast_a_022,61.0810000015,1C,auditory,2018_Sep_24_1812,
4C.wav,3,3,3,36,S,,,,,0,35,35,35,,,None,,pu,3,blast_a_022,61.0810000015,1C,auditory,2018_Sep_24_1812,
3A.wav,1,1,4,37,S,,,,,0,36,36,36,,,4,0.24200296402,pu,3,blast_a_022,61.0810000015,1C,auditory,2018_Sep_24_1812,
3B.wav,1,2,4,38,S,,,,,0,37,37,37,,,None,,pu,3,blast_a_022,61.0810000015,1C,auditory,2018_Sep_24_1812,
3C.wav,1,3,4,39,S,,,,,0,38,38,38,,,None,,pu,3,blast_a_022,61.0810000015,1C,auditory,2018_Sep_24_1812,
4A.wav,3,1,4,40,S,,,,,0,39,39,39,,,None,,pu,3,blast_a_022,61.0810000015,1C,auditory,2018_Sep_24_1812,
4B.wav,3,2,4,41,S,,,,,0,40,40,40,,,4,0.270781993866,pu,3,blast_a_022,61.0810000015,1C,auditory,2018_Sep_24_1812,
4C.wav,3,3,4,42,S,,,,,0,41,41,41,,,None,,pu,3,blast_a_022,61.0810000015,1C,auditory,2018_Sep_24_1812,
3A.wav,1,1,5,43,S,,,,,0,42,42,42,,,4,0.289331912994,pu,3,blast_a_022,61.0810000015,1C,auditory,2018_Sep_24_1812,
3B.wav,1,2,5,44,S,,,,,0,43,43,43,,,None,,pu,3,blast_a_022,61.0810000015,1C,auditory,2018_Sep_24_1812,
3C.wav,1,3,5,45,S,,,,,0,44,44,44,,,4,0.452971935272,pu,3,blast_a_022,61.0810000015,1C,auditory,2018_Sep_24_1812,
2A.wav,4,1,4,46,S,,,,,0,45,45,45,,,None,,pu,3,blast_a_022,61.0810000015,1C,auditory,2018_Sep_24_1812,
2B.wav,4,2,4,47,S,,,,,0,46,46,46,,,4,0.325762033463,pu,3,blast_a_022,61.0810000015,1C,auditory,2018_Sep_24_1812,
2C.wav,4,3,4,48,S,,,,,0,47,47,47,,,None,,pu,3,blast_a_022,61.0810000015,1C,auditory,2018_Sep_24_1812,
1A.wav,2,1,4,49,S,,,,,0,48,48,48,,,4,0.252727031708,pu,3,blast_a_022,61.0810000015,1C,auditory,2018_Sep_24_1812,
1B.wav,2,2,4,50,S,,,,,0,49,49,49,,,None,,pu,3,blast_a_022,61.0810000015,1C,auditory,2018_Sep_24_1812,
1C.wav,2,3,4,51,S,,,,,0,50,50,50,,,4,0.0514409542084,pu,3,blast_a_022,61.0810000015,1C,auditory,2018_Sep_24_1812,
4A.wav,3,1,5,52,S,,,,,0,51,51,51,,,4,0.322545051575,pu,3,blast_a_022,61.0810000015,1C,auditory,2018_Sep_24_1812,
4B.wav,3,2,5,53,S,,,,,0,52,52,52,,,4,0.20814704895,pu,3,blast_a_022,61.0810000015,1C,auditory,2018_Sep_24_1812,
4C.wav,3,3,5,54,S,,,,,0,53,53,53,,,None,,pu,3,blast_a_022,61.0810000015,1C,auditory,2018_Sep_24_1812,
3A.wav,1,1,6,55,S,,,,,0,54,54,54,,,4,0.339350938797,pu,3,blast_a_022,61.0810000015,1C,auditory,2018_Sep_24_1812,
3B.wav,1,2,6,56,S,,,,,0,55,55,55,,,None,,pu,3,blast_a_022,61.0810000015,1C,auditory,2018_Sep_24_1812,
3C.wav,1,3,6,57,S,,,,,0,56,56,56,,,4,0.357922792435,pu,3,blast_a_022,61.0810000015,1C,auditory,2018_Sep_24_1812,
2A.wav,4,1,5,58,S,,,,,0,57,57,57,,,None,,pu,3,blast_a_022,61.0810000015,1C,auditory,2018_Sep_24_1812,
2B.wav,4,2,5,59,S,,,,,0,58,58,58,,,4,0.364379882812,pu,3,blast_a_022,61.0810000015,1C,auditory,2018_Sep_24_1812,
2C.wav,4,3,5,60,S,,,,,0,59,59,59,,,None,,pu,3,blast_a_022,61.0810000015,1C,auditory,2018_Sep_24_1812,
1A.wav,2,1,5,61,S,,,,,0,60,60,60,,,4,0.20520401001,pu,3,blast_a_022,61.0810000015,1C,auditory,2018_Sep_24_1812,
1B.wav,2,2,5,62,S,,,,,0,61,61,61,,,None,,pu,3,blast_a_022,61.0810000015,1C,auditory,2018_Sep_24_1812,
1C.wav,2,3,5,63,S,,,,,0,62,62,62,,,4,0.375341892242,pu,3,blast_a_022,61.0810000015,1C,auditory,2018_Sep_24_1812,
2A.wav,4,1,6,64,S,,,,,0,63,63,63,,,None,,pu,3,blast_a_022,61.0810000015,1C,auditory,2018_Sep_24_1812,
2B.wav,4,2,6,65,S,,,,,0,64,64,64,,,4,0.318035125732,pu,3,blast_a_022,61.0810000015,1C,auditory,2018_Sep_24_1812,
2C.wav,4,3,6,66,S,,,,,0,65,65,65,,,None,,pu,3,blast_a_022,61.0810000015,1C,auditory,2018_Sep_24_1812,
3A.wav,1,1,7,67,S,,,,,0,66,66,66,,,4,0.287820100784,pu,3,blast_a_022,61.0810000015,1C,auditory,2018_Sep_24_1812,
3B.wav,1,2,7,68,S,,,,,0,67,67,67,,,None,,pu,3,blast_a_022,61.0810000015,1C,auditory,2018_Sep_24_1812,
3C.wav,1,3,7,69,S,,,,,0,68,68,68,,,None,,pu,3,blast_a_022,61.0810000015,1C,auditory,2018_Sep_24_1812,
4A.wav,3,1,6,70,S,,,,,0,69,69,69,,,None,,pu,3,blast_a_022,61.0810000015,1C,auditory,2018_Sep_24_1812,
4B.wav,3,2,6,71,S,,,,,0,70,70,70,,,None,,pu,3,blast_a_022,61.0810000015,1C,auditory,2018_Sep_24_1812,
4C.wav,3,3,6,72,S,,,,,0,71,71,71,,,None,,pu,3,blast_a_022,61.0810000015,1C,auditory,2018_Sep_24_1812,
1A.wav,2,1,6,73,S,,,,,0,72,72,72,,,4,0.325111150742,pu,3,blast_a_022,61.0810000015,1C,auditory,2018_Sep_24_1812,
1B.wav,2,2,6,74,S,,,,,0,73,73,73,,,None,,pu,3,blast_a_022,61.0810000015,1C,auditory,2018_Sep_24_1812,
1C.wav,2,3,6,75,S,,,,,0,74,74,74,,,4,0.342692136765,pu,3,blast_a_022,61.0810000015,1C,auditory,2018_Sep_24_1812,
3A.wav,1,1,8,76,S,,,,,0,75,75,75,,,4,0.319635868073,pu,3,blast_a_022,61.0810000015,1C,auditory,2018_Sep_24_1812,
3B.wav,1,2,8,77,S,,,,,0,76,76,76,,,None,,pu,3,blast_a_022,61.0810000015,1C,auditory,2018_Sep_24_1812,
3C.wav,1,3,8,78,S,,,,,0,77,77,77,,,4,0.439273118973,pu,3,blast_a_022,61.0810000015,1C,auditory,2018_Sep_24_1812,
2A.wav,4,1,7,79,S,,,,,0,78,78,78,,,None,,pu,3,blast_a_022,61.0810000015,1C,auditory,2018_Sep_24_1812,
2B.wav,4,2,7,80,S,,,,,0,79,79,79,,,4,0.306932926178,pu,3,blast_a_022,61.0810000015,1C,auditory,2018_Sep_24_1812,
2C.wav,4,3,7,81,S,,,,,0,80,80,80,,,None,,pu,3,blast_a_022,61.0810000015,1C,auditory,2018_Sep_24_1812,
4A.wav,3,1,7,82,S,,,,,0,81,81,81,,,4,0.0930550098419,pu,3,blast_a_022,61.0810000015,1C,auditory,2018_Sep_24_1812,
4B.wav,3,2,7,83,S,,,,,0,82,82,82,,,None,,pu,3,blast_a_022,61.0810000015,1C,auditory,2018_Sep_24_1812,
4C.wav,3,3,7,84,S,,,,,0,83,83,83,,,None,,pu,3,blast_a_022,61.0810000015,1C,auditory,2018_Sep_24_1812,
1A.wav,2,1,7,85,S,,,,,0,84,84,84,,,4,0.309019088745,pu,3,blast_a_022,61.0810000015,1C,auditory,2018_Sep_24_1812,
1B.wav,2,2,7,86,S,,,,,0,85,85,85,,,None,,pu,3,blast_a_022,61.0810000015,1C,auditory,2018_Sep_24_1812,
1C.wav,2,3,7,87,S,,,,,0,86,86,86,,,4,0.390187978745,pu,3,blast_a_022,61.0810000015,1C,auditory,2018_Sep_24_1812,
2A.wav,4,1,8,88,S,,,,,0,87,87,87,,,None,,pu,3,blast_a_022,61.0810000015,1C,auditory,2018_Sep_24_1812,
2B.wav,4,2,8,89,S,,,,,0,88,88,88,,,4,0.273622989655,pu,3,blast_a_022,61.0810000015,1C,auditory,2018_Sep_24_1812,
2C.wav,4,3,8,90,S,,,,,0,89,89,89,,,None,,pu,3,blast_a_022,61.0810000015,1C,auditory,2018_Sep_24_1812,
3A.wav,1,1,9,91,S,,,,,0,90,90,90,,,4,0.219471931458,pu,3,blast_a_022,61.0810000015,1C,auditory,2018_Sep_24_1812,
3B.wav,1,2,9,92,S,,,,,0,91,91,91,,,4,0.452795028687,pu,3,blast_a_022,61.0810000015,1C,auditory,2018_Sep_24_1812,
3C.wav,1,3,9,93,S,,,,,0,92,92,92,,,None,,pu,3,blast_a_022,61.0810000015,1C,auditory,2018_Sep_24_1812,
4A.wav,3,1,8,94,S,,,,,0,93,93,93,,,None,,pu,3,blast_a_022,61.0810000015,1C,auditory,2018_Sep_24_1812,
4B.wav,3,2,8,95,S,,,,,0,94,94,94,,,None,,pu,3,blast_a_022,61.0810000015,1C,auditory,2018_Sep_24_1812,
4C.wav,3,3,8,96,S,,,,,0,95,95,95,,,None,,pu,3,blast_a_022,61.0810000015,1C,auditory,2018_Sep_24_1812,
silence.wav,0,0,0,0,B,,,,,0,96,96,96,,,None,,pu,3,blast_a_022,61.0810000015,1C,auditory,2018_Sep_24_1812,
silence.wav,0,0,0,0,B,,,,,0,97,97,97,,,None,,pu,3,blast_a_022,61.0810000015,1C,auditory,2018_Sep_24_1812,
silence.wav,0,0,0,0,B,,,,,0,98,98,98,,,None,,pu,3,blast_a_022,61.0810000015,1C,auditory,2018_Sep_24_1812,
silence.wav,0,0,0,0,B,,,,,0,99,99,99,,,None,,pu,3,blast_a_022,61.0810000015,1C,auditory,2018_Sep_24_1812,
silence.wav,0,0,0,0,B,,,,,0,100,100,100,,,None,,pu,3,blast_a_022,61.0810000015,1C,auditory,2018_Sep_24_1812,
silence.wav,0,0,0,0,B,,,,,0,101,101,101,,,None,,pu,3,blast_a_022,61.0810000015,1C,auditory,2018_Sep_24_1812,
silence.wav,0,0,0,0,B,,,,,0,102,102,102,,,None,,pu,3,blast_a_022,61.0810000015,1C,auditory,2018_Sep_24_1812,
silence.wav,0,0,0,0,B,,,,,0,103,103,103,,,None,,pu,3,blast_a_022,61.0810000015,1C,auditory,2018_Sep_24_1812,
silence.wav,0,0,0,0,B,,,,,0,104,104,104,,,None,,pu,3,blast_a_022,61.0810000015,1C,auditory,2018_Sep_24_1812,
silence.wav,0,0,0,0,B,,,,,0,105,105,105,,,None,,pu,3,blast_a_022,61.0810000015,1C,auditory,2018_Sep_24_1812,
silence.wav,0,0,0,0,B,,,,,0,106,106,106,,,None,,pu,3,blast_a_022,61.0810000015,1C,auditory,2018_Sep_24_1812,
silence.wav,0,0,0,0,B,,,,,0,107,107,107,,,None,,pu,3,blast_a_022,61.0810000015,1C,auditory,2018_Sep_24_1812,
silence.wav,0,0,0,0,B,,,,,0,108,108,108,,,None,,pu,3,blast_a_022,61.0810000015,1C,auditory,2018_Sep_24_1812,
silence.wav,0,0,0,0,B,,,,,0,109,109,109,,,None,,pu,3,blast_a_022,61.0810000015,1C,auditory,2018_Sep_24_1812,
silence.wav,0,0,0,0,B,,,,,0,110,110,110,,,None,,pu,3,blast_a_022,61.0810000015,1C,auditory,2018_Sep_24_1812,
silence.wav,0,0,0,0,B,,,,,0,111,111,111,,,None,,pu,3,blast_a_022,61.0810000015,1C,auditory,2018_Sep_24_1812,
silence.wav,0,0,0,0,B,,,,,0,112,112,112,,,None,,pu,3,blast_a_022,61.0810000015,1C,auditory,2018_Sep_24_1812,
silence.wav,0,0,0,0,B,,,,,0,113,113,113,,,None,,pu,3,blast_a_022,61.0810000015,1C,auditory,2018_Sep_24_1812,
silence.wav,0,0,0,0,B,,,,,0,114,114,114,,,None,,pu,3,blast_a_022,61.0810000015,1C,auditory,2018_Sep_24_1812,
silence.wav,0,0,0,0,B,,,,,0,115,115,115,,,None,,pu,3,blast_a_022,61.0810000015,1C,auditory,2018_Sep_24_1812,
silence.wav,0,0,0,0,B,,,,,0,116,116,116,,,None,,pu,3,blast_a_022,61.0810000015,1C,auditory,2018_Sep_24_1812,
silence.wav,0,0,0,0,B,,,,,0,117,117,117,,,None,,pu,3,blast_a_022,61.0810000015,1C,auditory,2018_Sep_24_1812,
silence.wav,0,0,0,0,B,,,,,0,118,118,118,,,None,,pu,3,blast_a_022,61.0810000015,1C,auditory,2018_Sep_24_1812,
silence.wav,0,0,0,0,B,,,,,0,119,119,119,,,None,,pu,3,blast_a_022,61.0810000015,1C,auditory,2018_Sep_24_1812,
silence.wav,0,0,0,0,B,,,,,0,120,120,120,,,None,,pu,3,blast_a_022,61.0810000015,1C,auditory,2018_Sep_24_1812,
silence.wav,0,0,0,0,B,,,,,0,121,121,121,,,None,,pu,3,blast_a_022,61.0810000015,1C,auditory,2018_Sep_24_1812,
silence.wav,0,0,0,0,B,,,,,0,122,122,122,,,None,,pu,3,blast_a_022,61.0810000015,1C,auditory,2018_Sep_24_1812,
silence.wav,0,0,0,0,B,,,,,0,123,123,123,,,None,,pu,3,blast_a_022,61.0810000015,1C,auditory,2018_Sep_24_1812,
silence.wav,0,0,0,0,B,,,,,0,124,124,124,,,None,,pu,3,blast_a_022,61.0810000015,1C,auditory,2018_Sep_24_1812,
3A.wav,1,1,10,97,S,,,,,0,0,0,0,,,4,0.395722866058,pu,3,blast_a_022,61.0810000015,1C,auditory,2018_Sep_24_1812,
3B.wav,1,2,10,98,S,,,,,0,1,1,1,,,None,,pu,3,blast_a_022,61.0810000015,1C,auditory,2018_Sep_24_1812,
3C.wav,1,3,10,99,S,,,,,0,2,2,2,,,4,0.374158143997,pu,3,blast_a_022,61.0810000015,1C,auditory,2018_Sep_24_1812,
1A.wav,2,1,8,100,S,,,,,0,3,3,3,,,None,,pu,3,blast_a_022,61.0810000015,1C,auditory,2018_Sep_24_1812,
1B.wav,2,2,8,101,S,,,,,0,4,4,4,,,None,,pu,3,blast_a_022,61.0810000015,1C,auditory,2018_Sep_24_1812,
1C.wav,2,3,8,102,S,,,,,0,5,5,5,,,4,0.240377902985,pu,3,blast_a_022,61.0810000015,1C,auditory,2018_Sep_24_1812,
2A.wav,4,1,9,103,S,,,,,0,6,6,6,,,None,,pu,3,blast_a_022,61.0810000015,1C,auditory,2018_Sep_24_1812,
2B.wav,4,2,9,104,S,,,,,0,7,7,7,,,4,0.322958946228,pu,3,blast_a_022,61.0810000015,1C,auditory,2018_Sep_24_1812,
2C.wav,4,3,9,105,S,,,,,0,8,8,8,,,None,,pu,3,blast_a_022,61.0810000015,1C,auditory,2018_Sep_24_1812,
4A.wav,3,1,9,106,S,,,,,0,9,9,9,,,4,0.30773806572,pu,3,blast_a_022,61.0810000015,1C,auditory,2018_Sep_24_1812,
4B.wav,3,2,9,107,S,,,,,0,10,10,10,,,None,,pu,3,blast_a_022,61.0810000015,1C,auditory,2018_Sep_24_1812,
4C.wav,3,3,9,108,S,,,,,0,11,11,11,,,None,,pu,3,blast_a_022,61.0810000015,1C,auditory,2018_Sep_24_1812,
1A.wav,2,1,9,109,S,,,,,0,12,12,12,,,4,0.306332111359,pu,3,blast_a_022,61.0810000015,1C,auditory,2018_Sep_24_1812,
1B.wav,2,2,9,110,S,,,,,0,13,13,13,,,None,,pu,3,blast_a_022,61.0810000015,1C,auditory,2018_Sep_24_1812,
1C.wav,2,3,9,111,S,,,,,0,14,14,14,,,4,0.411031007767,pu,3,blast_a_022,61.0810000015,1C,auditory,2018_Sep_24_1812,
3A.wav,1,1,11,112,S,,,,,0,15,15,15,,,4,0.423715829849,pu,3,blast_a_022,61.0810000015,1C,auditory,2018_Sep_24_1812,
3B.wav,1,2,11,113,S,,,,,0,16,16,16,,,None,,pu,3,blast_a_022,61.0810000015,1C,auditory,2018_Sep_24_1812,
3C.wav,1,3,11,114,S,,,,,0,17,17,17,,,4,0.440748929977,pu,3,blast_a_022,61.0810000015,1C,auditory,2018_Sep_24_1812,
4A.wav,3,1,10,115,S,,,,,0,18,18,18,,,4,0.357685804367,pu,3,blast_a_022,61.0810000015,1C,auditory,2018_Sep_24_1812,
4B.wav,3,2,10,116,S,,,,,0,19,19,19,,,None,,pu,3,blast_a_022,61.0810000015,1C,auditory,2018_Sep_24_1812,
4C.wav,3,3,10,117,S,,,,,0,20,20,20,,,None,,pu,3,blast_a_022,61.0810000015,1C,auditory,2018_Sep_24_1812,
2A.wav,4,1,10,118,S,,,,,0,21,21,21,,,None,,pu,3,blast_a_022,61.0810000015,1C,auditory,2018_Sep_24_1812,
2B.wav,4,2,10,119,S,,,,,0,22,22,22,,,4,0.254132986069,pu,3,blast_a_022,61.0810000015,1C,auditory,2018_Sep_24_1812,
2C.wav,4,3,10,120,S,,,,,0,23,23,23,,,None,,pu,3,blast_a_022,61.0810000015,1C,auditory,2018_Sep_24_1812,
1A.wav,2,1,10,121,S,,,,,0,24,24,24,,,4,0.237794876099,pu,3,blast_a_022,61.0810000015,1C,auditory,2018_Sep_24_1812,
1B.wav,2,2,10,122,S,,,,,0,25,25,25,,,None,,pu,3,blast_a_022,61.0810000015,1C,auditory,2018_Sep_24_1812,
1C.wav,2,3,10,123,S,,,,,0,26,26,26,,,4,0.358105897903,pu,3,blast_a_022,61.0810000015,1C,auditory,2018_Sep_24_1812,
3A.wav,1,1,12,124,S,,,,,0,27,27,27,,,4,0.356271982193,pu,3,blast_a_022,61.0810000015,1C,auditory,2018_Sep_24_1812,
3B.wav,1,2,12,125,S,,,,,0,28,28,28,,,None,,pu,3,blast_a_022,61.0810000015,1C,auditory,2018_Sep_24_1812,
3C.wav,1,3,12,126,S,,,,,0,29,29,29,,,4,0.43633389473,pu,3,blast_a_022,61.0810000015,1C,auditory,2018_Sep_24_1812,
1A.wav,2,1,11,127,S,,,,,0,30,30,30,,,None,,pu,3,blast_a_022,61.0810000015,1C,auditory,2018_Sep_24_1812,
1B.wav,2,2,11,128,S,,,,,0,31,31,31,,,None,,pu,3,blast_a_022,61.0810000015,1C,auditory,2018_Sep_24_1812,
1C.wav,2,3,11,129,S,,,,,0,32,32,32,,,4,0.306136131287,pu,3,blast_a_022,61.0810000015,1C,auditory,2018_Sep_24_1812,
2A.wav,4,1,11,130,S,,,,,0,33,33,33,,,None,,pu,3,blast_a_022,61.0810000015,1C,auditory,2018_Sep_24_1812,
2B.wav,4,2,11,131,S,,,,,0,34,34,34,,,4,0.274662017822,pu,3,blast_a_022,61.0810000015,1C,auditory,2018_Sep_24_1812,
2C.wav,4,3,11,132,S,,,,,0,35,35,35,,,None,,pu,3,blast_a_022,61.0810000015,1C,auditory,2018_Sep_24_1812,
4A.wav,3,1,11,133,S,,,,,0,36,36,36,,,4,0.357502222061,pu,3,blast_a_022,61.0810000015,1C,auditory,2018_Sep_24_1812,
4B.wav,3,2,11,134,S,,,,,0,37,37,37,,,None,,pu,3,blast_a_022,61.0810000015,1C,auditory,2018_Sep_24_1812,
4C.wav,3,3,11,135,S,,,,,0,38,38,38,,,None,,pu,3,blast_a_022,61.0810000015,1C,auditory,2018_Sep_24_1812,
2A.wav,4,1,12,136,S,,,,,0,39,39,39,,,None,,pu,3,blast_a_022,61.0810000015,1C,auditory,2018_Sep_24_1812,
2B.wav,4,2,12,137,S,,,,,0,40,40,40,,,4,0.275223016739,pu,3,blast_a_022,61.0810000015,1C,auditory,2018_Sep_24_1812,
2C.wav,4,3,12,138,S,,,,,0,41,41,41,,,None,,pu,3,blast_a_022,61.0810000015,1C,auditory,2018_Sep_24_1812,
4A.wav,3,1,12,139,S,,,,,0,42,42,42,,,4,0.257819890976,pu,3,blast_a_022,61.0810000015,1C,auditory,2018_Sep_24_1812,
4B.wav,3,2,12,140,S,,,,,0,43,43,43,,,None,,pu,3,blast_a_022,61.0810000015,1C,auditory,2018_Sep_24_1812,
4C.wav,3,3,12,141,S,,,,,0,44,44,44,,,None,,pu,3,blast_a_022,61.0810000015,1C,auditory,2018_Sep_24_1812,
1A.wav,2,1,12,142,S,,,,,0,45,45,45,,,4,0.339468002319,pu,3,blast_a_022,61.0810000015,1C,auditory,2018_Sep_24_1812,
1B.wav,2,2,12,143,S,,,,,0,46,46,46,,,None,,pu,3,blast_a_022,61.0810000015,1C,auditory,2018_Sep_24_1812,
1C.wav,2,3,12,144,S,,,,,0,47,47,47,,,4,0.357808113098,pu,3,blast_a_022,61.0810000015,1C,auditory,2018_Sep_24_1812,
3A.wav,1,1,13,145,S,,,,,0,48,48,48,,,4,0.292814016342,pu,3,blast_a_022,61.0810000015,1C,auditory,2018_Sep_24_1812,
3B.wav,1,2,13,146,S,,,,,0,49,49,49,,,None,,pu,3,blast_a_022,61.0810000015,1C,auditory,2018_Sep_24_1812,
3C.wav,1,3,13,147,S,,,,,0,50,50,50,,,4,0.389940977097,pu,3,blast_a_022,61.0810000015,1C,auditory,2018_Sep_24_1812,
4A.wav,3,1,13,148,S,,,,,0,51,51,51,,,4,0.322405099869,pu,3,blast_a_022,61.0810000015,1C,auditory,2018_Sep_24_1812,
4B.wav,3,2,13,149,S,,,,,0,52,52,52,,,None,,pu,3,blast_a_022,61.0810000015,1C,auditory,2018_Sep_24_1812,
4C.wav,3,3,13,150,S,,,,,0,53,53,53,,,None,,pu,3,blast_a_022,61.0810000015,1C,auditory,2018_Sep_24_1812,
3A.wav,1,1,14,151,S,,,,,0,54,54,54,,,4,0.351398944855,pu,3,blast_a_022,61.0810000015,1C,auditory,2018_Sep_24_1812,
3B.wav,1,2,14,152,S,,,,,0,55,55,55,,,None,,pu,3,blast_a_022,61.0810000015,1C,auditory,2018_Sep_24_1812,
3C.wav,1,3,14,153,S,,,,,0,56,56,56,,,4,0.304718017578,pu,3,blast_a_022,61.0810000015,1C,auditory,2018_Sep_24_1812,
2A.wav,4,1,13,154,S,,,,,0,57,57,57,,,None,,pu,3,blast_a_022,61.0810000015,1C,auditory,2018_Sep_24_1812,
2B.wav,4,2,13,155,S,,,,,0,58,58,58,,,4,0.240782022476,pu,3,blast_a_022,61.0810000015,1C,auditory,2018_Sep_24_1812,
2C.wav,4,3,13,156,S,,,,,0,59,59,59,,,None,,pu,3,blast_a_022,61.0810000015,1C,auditory,2018_Sep_24_1812,
1A.wav,2,1,13,157,S,,,,,0,60,60,60,,,4,0.204720020294,pu,3,blast_a_022,61.0810000015,1C,auditory,2018_Sep_24_1812,
1B.wav,2,2,13,158,S,,,,,0,61,61,61,,,None,,pu,3,blast_a_022,61.0810000015,1C,auditory,2018_Sep_24_1812,
1C.wav,2,3,13,159,S,,,,,0,62,62,62,,,4,0.358128070831,pu,3,blast_a_022,61.0810000015,1C,auditory,2018_Sep_24_1812,
3A.wav,1,1,15,160,S,,,,,0,63,63,63,,,4,0.40704703331,pu,3,blast_a_022,61.0810000015,1C,auditory,2018_Sep_24_1812,
3B.wav,1,2,15,161,S,,,,,0,64,64,64,,,None,,pu,3,blast_a_022,61.0810000015,1C,auditory,2018_Sep_24_1812,
3C.wav,1,3,15,162,S,,,,,0,65,65,65,,,None,,pu,3,blast_a_022,61.0810000015,1C,auditory,2018_Sep_24_1812,
2A.wav,4,1,14,163,S,,,,,0,66,66,66,,,4,0.105841159821,pu,3,blast_a_022,61.0810000015,1C,auditory,2018_Sep_24_1812,
2B.wav,4,2,14,164,S,,,,,0,67,67,67,,,4,0.325845003128,pu,3,blast_a_022,61.0810000015,1C,auditory,2018_Sep_24_1812,
2C.wav,4,3,14,165,S,,,,,0,68,68,68,,,None,,pu,3,blast_a_022,61.0810000015,1C,auditory,2018_Sep_24_1812,
1A.wav,2,1,14,166,S,,,,,0,69,69,69,,,4,0.237463951111,pu,3,blast_a_022,61.0810000015,1C,auditory,2018_Sep_24_1812,
1B.wav,2,2,14,167,S,,,,,0,70,70,70,,,None,,pu,3,blast_a_022,61.0810000015,1C,auditory,2018_Sep_24_1812,
1C.wav,2,3,14,168,S,,,,,0,71,71,71,,,4,0.258661985397,pu,3,blast_a_022,61.0810000015,1C,auditory,2018_Sep_24_1812,
4A.wav,3,1,14,169,S,,,,,0,72,72,72,,,None,,pu,3,blast_a_022,61.0810000015,1C,auditory,2018_Sep_24_1812,
4B.wav,3,2,14,170,S,,,,,0,73,73,73,,,4,0.151879072189,pu,3,blast_a_022,61.0810000015,1C,auditory,2018_Sep_24_1812,
4C.wav,3,3,14,171,S,,,,,0,74,74,74,,,None,,pu,3,blast_a_022,61.0810000015,1C,auditory,2018_Sep_24_1812,
1A.wav,2,1,15,172,S,,,,,0,75,75,75,,,4,0.121784925461,pu,3,blast_a_022,61.0810000015,1C,auditory,2018_Sep_24_1812,
1B.wav,2,2,15,173,S,,,,,0,76,76,76,,,None,,pu,3,blast_a_022,61.0810000015,1C,auditory,2018_Sep_24_1812,
1C.wav,2,3,15,174,S,,,,,0,77,77,77,,,4,0.00535798072815,pu,3,blast_a_022,61.0810000015,1C,auditory,2018_Sep_24_1812,
3A.wav,1,1,16,175,S,,,,,0,78,78,78,,,4,0.355792999268,pu,3,blast_a_022,61.0810000015,1C,auditory,2018_Sep_24_1812,
3B.wav,1,2,16,176,S,,,,,0,79,79,79,,,None,,pu,3,blast_a_022,61.0810000015,1C,auditory,2018_Sep_24_1812,
3C.wav,1,3,16,177,S,,,,,0,80,80,80,,,4,0.103172063828,pu,3,blast_a_022,61.0810000015,1C,auditory,2018_Sep_24_1812,
4A.wav,3,1,15,178,S,,,,,0,81,81,81,,,4,0.424237012863,pu,3,blast_a_022,61.0810000015,1C,auditory,2018_Sep_24_1812,
4B.wav,3,2,15,179,S,,,,,0,82,82,82,,,None,,pu,3,blast_a_022,61.0810000015,1C,auditory,2018_Sep_24_1812,
4C.wav,3,3,15,180,S,,,,,0,83,83,83,,,None,,pu,3,blast_a_022,61.0810000015,1C,auditory,2018_Sep_24_1812,
2A.wav,4,1,15,181,S,,,,,0,84,84,84,,,None,,pu,3,blast_a_022,61.0810000015,1C,auditory,2018_Sep_24_1812,
2B.wav,4,2,15,182,S,,,,,0,85,85,85,,,4,0.324910879135,pu,3,blast_a_022,61.0810000015,1C,auditory,2018_Sep_24_1812,
2C.wav,4,3,15,183,S,,,,,0,86,86,86,,,None,,pu,3,blast_a_022,61.0810000015,1C,auditory,2018_Sep_24_1812,
4A.wav,3,1,16,184,S,,,,,0,87,87,87,,,4,0.289851903915,pu,3,blast_a_022,61.0810000015,1C,auditory,2018_Sep_24_1812,
4B.wav,3,2,16,185,S,,,,,0,88,88,88,,,None,,pu,3,blast_a_022,61.0810000015,1C,auditory,2018_Sep_24_1812,
4C.wav,3,3,16,186,S,,,,,0,89,89,89,,,4,0.0402829647064,pu,3,blast_a_022,61.0810000015,1C,auditory,2018_Sep_24_1812,
1A.wav,2,1,16,187,S,,,,,0,90,90,90,,,None,,pu,3,blast_a_022,61.0810000015,1C,auditory,2018_Sep_24_1812,
1B.wav,2,2,16,188,S,,,,,0,91,91,91,,,None,,pu,3,blast_a_022,61.0810000015,1C,auditory,2018_Sep_24_1812,
1C.wav,2,3,16,189,S,,,,,0,92,92,92,,,4,0.25430393219,pu,3,blast_a_022,61.0810000015,1C,auditory,2018_Sep_24_1812,
2A.wav,4,1,16,190,S,,,,,0,93,93,93,,,None,,pu,3,blast_a_022,61.0810000015,1C,auditory,2018_Sep_24_1812,
2B.wav,4,2,16,191,S,,,,,0,94,94,94,,,4,0.271727085114,pu,3,blast_a_022,61.0810000015,1C,auditory,2018_Sep_24_1812,
2C.wav,4,3,16,192,S,,,,,0,95,95,95,,,None,,pu,3,blast_a_022,61.0810000015,1C,auditory,2018_Sep_24_1812,
silence.wav,0,0,0,0,B,,,,,0,96,96,96,,,None,,pu,3,blast_a_022,61.0810000015,1C,auditory,2018_Sep_24_1812,
silence.wav,0,0,0,0,B,,,,,0,97,97,97,,,None,,pu,3,blast_a_022,61.0810000015,1C,auditory,2018_Sep_24_1812,
silence.wav,0,0,0,0,B,,,,,0,98,98,98,,,None,,pu,3,blast_a_022,61.0810000015,1C,auditory,2018_Sep_24_1812,
silence.wav,0,0,0,0,B,,,,,0,99,99,99,,,None,,pu,3,blast_a_022,61.0810000015,1C,auditory,2018_Sep_24_1812,
silence.wav,0,0,0,0,B,,,,,0,100,100,100,,,None,,pu,3,blast_a_022,61.0810000015,1C,auditory,2018_Sep_24_1812,
silence.wav,0,0,0,0,B,,,,,0,101,101,101,,,None,,pu,3,blast_a_022,61.0810000015,1C,auditory,2018_Sep_24_1812,
silence.wav,0,0,0,0,B,,,,,0,102,102,102,,,None,,pu,3,blast_a_022,61.0810000015,1C,auditory,2018_Sep_24_1812,
silence.wav,0,0,0,0,B,,,,,0,103,103,103,,,None,,pu,3,blast_a_022,61.0810000015,1C,auditory,2018_Sep_24_1812,
silence.wav,0,0,0,0,B,,,,,0,104,104,104,,,None,,pu,3,blast_a_022,61.0810000015,1C,auditory,2018_Sep_24_1812,
silence.wav,0,0,0,0,B,,,,,0,105,105,105,,,None,,pu,3,blast_a_022,61.0810000015,1C,auditory,2018_Sep_24_1812,
silence.wav,0,0,0,0,B,,,,,0,106,106,106,,,None,,pu,3,blast_a_022,61.0810000015,1C,auditory,2018_Sep_24_1812,
silence.wav,0,0,0,0,B,,,,,0,107,107,107,,,None,,pu,3,blast_a_022,61.0810000015,1C,auditory,2018_Sep_24_1812,
silence.wav,0,0,0,0,B,,,,,0,108,108,108,,,None,,pu,3,blast_a_022,61.0810000015,1C,auditory,2018_Sep_24_1812,
silence.wav,0,0,0,0,B,,,,,0,109,109,109,,,None,,pu,3,blast_a_022,61.0810000015,1C,auditory,2018_Sep_24_1812,
silence.wav,0,0,0,0,B,,,,,0,110,110,110,,,None,,pu,3,blast_a_022,61.0810000015,1C,auditory,2018_Sep_24_1812,
silence.wav,0,0,0,0,B,,,,,0,111,111,111,,,None,,pu,3,blast_a_022,61.0810000015,1C,auditory,2018_Sep_24_1812,
silence.wav,0,0,0,0,B,,,,,0,112,112,112,,,None,,pu,3,blast_a_022,61.0810000015,1C,auditory,2018_Sep_24_1812,
silence.wav,0,0,0,0,B,,,,,0,113,113,113,,,None,,pu,3,blast_a_022,61.0810000015,1C,auditory,2018_Sep_24_1812,
silence.wav,0,0,0,0,B,,,,,0,114,114,114,,,None,,pu,3,blast_a_022,61.0810000015,1C,auditory,2018_Sep_24_1812,
silence.wav,0,0,0,0,B,,,,,0,115,115,115,,,None,,pu,3,blast_a_022,61.0810000015,1C,auditory,2018_Sep_24_1812,
silence.wav,0,0,0,0,B,,,,,0,116,116,116,,,None,,pu,3,blast_a_022,61.0810000015,1C,auditory,2018_Sep_24_1812,
silence.wav,0,0,0,0,B,,,,,0,117,117,117,,,None,,pu,3,blast_a_022,61.0810000015,1C,auditory,2018_Sep_24_1812,
silence.wav,0,0,0,0,B,,,,,0,118,118,118,,,None,,pu,3,blast_a_022,61.0810000015,1C,auditory,2018_Sep_24_1812,
silence.wav,0,0,0,0,B,,,,,0,119,119,119,,,None,,pu,3,blast_a_022,61.0810000015,1C,auditory,2018_Sep_24_1812,
silence.wav,0,0,0,0,B,,,,,0,120,120,120,,,None,,pu,3,blast_a_022,61.0810000015,1C,auditory,2018_Sep_24_1812,
silence.wav,0,0,0,0,B,,,,,0,121,121,121,,,None,,pu,3,blast_a_022,61.0810000015,1C,auditory,2018_Sep_24_1812,
silence.wav,0,0,0,0,B,,,,,0,122,122,122,,,None,,pu,3,blast_a_022,61.0810000015,1C,auditory,2018_Sep_24_1812,
silence.wav,0,0,0,0,B,,,,,0,123,123,123,,,None,,pu,3,blast_a_022,61.0810000015,1C,auditory,2018_Sep_24_1812,
silence.wav,0,0,0,0,B,,,,,0,124,124,124,,,None,,pu,3,blast_a_022,61.0810000015,1C,auditory,2018_Sep_24_1812,
pu.wav,0,1,1,1,R,0,0,0,0,,,,,None,,,,pu,3,blast_a_022,61.0810000015,1C,auditory,2018_Sep_24_1812,
da.wav,0,2,1,2,R,0,1,1,1,,,,,4,0.20766210556,,,pu,3,blast_a_022,61.0810000015,1C,auditory,2018_Sep_24_1812,
pi.wav,0,3,1,3,R,0,2,2,2,,,,,None,,,,pu,3,blast_a_022,61.0810000015,1C,auditory,2018_Sep_24_1812,
du.wav,0,1,1,4,R,0,3,3,3,,,,,None,,,,pu,3,blast_a_022,61.0810000015,1C,auditory,2018_Sep_24_1812,
ba.wav,0,2,1,5,R,0,4,4,4,,,,,None,,,,pu,3,blast_a_022,61.0810000015,1C,auditory,2018_Sep_24_1812,
ta.wav,0,3,1,6,R,0,5,5,5,,,,,None,,,,pu,3,blast_a_022,61.0810000015,1C,auditory,2018_Sep_24_1812,
ti.wav,0,1,1,7,R,0,6,6,6,,,,,None,,,,pu,3,blast_a_022,61.0810000015,1C,auditory,2018_Sep_24_1812,
pi.wav,0,2,1,8,R,0,7,7,7,,,,,None,,,,pu,3,blast_a_022,61.0810000015,1C,auditory,2018_Sep_24_1812,
bu.wav,0,3,1,9,R,0,8,8,8,,,,,None,,,,pu,3,blast_a_022,61.0810000015,1C,auditory,2018_Sep_24_1812,
ta.wav,0,1,1,10,R,0,9,9,9,,,,,4,0.0411701202393,,,pu,3,blast_a_022,61.0810000015,1C,auditory,2018_Sep_24_1812,
di.wav,0,2,1,11,R,0,10,10,10,,,,,None,,,,pu,3,blast_a_022,61.0810000015,1C,auditory,2018_Sep_24_1812,
pi.wav,0,3,1,12,R,0,11,11,11,,,,,None,,,,pu,3,blast_a_022,61.0810000015,1C,auditory,2018_Sep_24_1812,
du.wav,0,1,1,13,R,0,12,12,12,,,,,None,,,,pu,3,blast_a_022,61.0810000015,1C,auditory,2018_Sep_24_1812,
tu.wav,0,2,1,14,R,0,13,13,13,,,,,None,,,,pu,3,blast_a_022,61.0810000015,1C,auditory,2018_Sep_24_1812,
ti.wav,0,3,1,15,R,0,14,14,14,,,,,None,,,,pu,3,blast_a_022,61.0810000015,1C,auditory,2018_Sep_24_1812,
tu.wav,0,1,1,16,R,0,15,15,15,,,,,None,,,,pu,3,blast_a_022,61.0810000015,1C,auditory,2018_Sep_24_1812,
bi.wav,0,2,1,17,R,0,16,16,16,,,,,None,,,,pu,3,blast_a_022,61.0810000015,1C,auditory,2018_Sep_24_1812,
pu.wav,0,3,1,18,R,0,17,17,17,,,,,4,0.456543922424,,,pu,3,blast_a_022,61.0810000015,1C,auditory,2018_Sep_24_1812,
tu.wav,0,1,1,19,R,0,18,18,18,,,,,None,,,,pu,3,blast_a_022,61.0810000015,1C,auditory,2018_Sep_24_1812,
ba.wav,0,2,1,20,R,0,19,19,19,,,,,None,,,,pu,3,blast_a_022,61.0810000015,1C,auditory,2018_Sep_24_1812,
di.wav,0,3,1,21,R,0,20,20,20,,,,,None,,,,pu,3,blast_a_022,61.0810000015,1C,auditory,2018_Sep_24_1812,
pa.wav,0,1,1,22,R,0,21,21,21,,,,,None,,,,pu,3,blast_a_022,61.0810000015,1C,auditory,2018_Sep_24_1812,
pu.wav,0,2,1,23,R,0,22,22,22,,,,,None,,,,pu,3,blast_a_022,61.0810000015,1C,auditory,2018_Sep_24_1812,
bi.wav,0,3,1,24,R,0,23,23,23,,,,,None,,,,pu,3,blast_a_022,61.0810000015,1C,auditory,2018_Sep_24_1812,
bi.wav,0,1,1,25,R,0,24,24,24,,,,,None,,,,pu,3,blast_a_022,61.0810000015,1C,auditory,2018_Sep_24_1812,
bu.wav,0,2,1,26,R,0,25,25,25,,,,,None,,,,pu,3,blast_a_022,61.0810000015,1C,auditory,2018_Sep_24_1812,
pu.wav,0,3,1,27,R,0,26,26,26,,,,,4,0.368171930313,,,pu,3,blast_a_022,61.0810000015,1C,auditory,2018_Sep_24_1812,
pi.wav,0,1,1,28,R,0,27,27,27,,,,,4,0.236918926239,,,pu,3,blast_a_022,61.0810000015,1C,auditory,2018_Sep_24_1812,
ti.wav,0,2,1,29,R,0,28,28,28,,,,,None,,,,pu,3,blast_a_022,61.0810000015,1C,auditory,2018_Sep_24_1812,
ta.wav,0,3,1,30,R,0,29,29,29,,,,,None,,,,pu,3,blast_a_022,61.0810000015,1C,auditory,2018_Sep_24_1812,
tu.wav,0,1,1,31,R,0,30,30,30,,,,,None,,,,pu,3,blast_a_022,61.0810000015,1C,auditory,2018_Sep_24_1812,
pi.wav,0,2,1,32,R,0,31,31,31,,,,,4,0.187367916107,,,pu,3,blast_a_022,61.0810000015,1C,auditory,2018_Sep_24_1812,
ta.wav,0,3,1,33,R,0,32,32,32,,,,,None,,,,pu,3,blast_a_022,61.0810000015,1C,auditory,2018_Sep_24_1812,
du.wav,0,1,1,34,R,0,33,33,33,,,,,None,,,,pu,3,blast_a_022,61.0810000015,1C,auditory,2018_Sep_24_1812,
tu.wav,0,2,1,35,R,0,34,34,34,,,,,4,0.00526785850525,,,pu,3,blast_a_022,61.0810000015,1C,auditory,2018_Sep_24_1812,
bu.wav,0,3,1,36,R,0,35,35,35,,,,,None,,,,pu,3,blast_a_022,61.0810000015,1C,auditory,2018_Sep_24_1812,
di.wav,0,1,1,37,R,0,36,36,36,,,,,None,,,,pu,3,blast_a_022,61.0810000015,1C,auditory,2018_Sep_24_1812,
da.wav,0,2,1,38,R,0,37,37,37,,,,,None,,,,pu,3,blast_a_022,61.0810000015,1C,auditory,2018_Sep_24_1812,
pa.wav,0,3,1,39,R,0,38,38,38,,,,,None,,,,pu,3,blast_a_022,61.0810000015,1C,auditory,2018_Sep_24_1812,
pa.wav,0,1,1,40,R,0,39,39,39,,,,,None,,,,pu,3,blast_a_022,61.0810000015,1C,auditory,2018_Sep_24_1812,
da.wav,0,2,1,41,R,0,40,40,40,,,,,None,,,,pu,3,blast_a_022,61.0810000015,1C,auditory,2018_Sep_24_1812,
ba.wav,0,3,1,42,R,0,41,41,41,,,,,None,,,,pu,3,blast_a_022,61.0810000015,1C,auditory,2018_Sep_24_1812,
pa.wav,0,1,1,43,R,0,42,42,42,,,,,None,,,,pu,3,blast_a_022,61.0810000015,1C,auditory,2018_Sep_24_1812,
ti.wav,0,2,1,44,R,0,43,43,43,,,,,None,,,,pu,3,blast_a_022,61.0810000015,1C,auditory,2018_Sep_24_1812,
bu.wav,0,3,1,45,R,0,44,44,44,,,,,None,,,,pu,3,blast_a_022,61.0810000015,1C,auditory,2018_Sep_24_1812,
bi.wav,0,1,1,46,R,0,45,45,45,,,,,4,0.0698838233948,,,pu,3,blast_a_022,61.0810000015,1C,auditory,2018_Sep_24_1812,
du.wav,0,2,1,47,R,0,46,46,46,,,,,None,,,,pu,3,blast_a_022,61.0810000015,1C,auditory,2018_Sep_24_1812,
da.wav,0,3,1,48,R,0,47,47,47,,,,,None,,,,pu,3,blast_a_022,61.0810000015,1C,auditory,2018_Sep_24_1812,
pu.wav,0,1,1,49,R,0,48,48,48,,,,,None,,,,pu,3,blast_a_022,61.0810000015,1C,auditory,2018_Sep_24_1812,
ba.wav,0,2,1,50,R,0,49,49,49,,,,,4,0.175301074982,,,pu,3,blast_a_022,61.0810000015,1C,auditory,2018_Sep_24_1812,
du.wav,0,3,1,51,R,0,50,50,50,,,,,None,,,,pu,3,blast_a_022,61.0810000015,1C,auditory,2018_Sep_24_1812,
ta.wav,0,1,1,52,R,0,51,51,51,,,,,None,,,,pu,3,blast_a_022,61.0810000015,1C,auditory,2018_Sep_24_1812,
ba.wav,0,2,1,53,R,0,52,52,52,,,,,None,,,,pu,3,blast_a_022,61.0810000015,1C,auditory,2018_Sep_24_1812,
ta.wav,0,3,1,54,R,0,53,53,53,,,,,None,,,,pu,3,blast_a_022,61.0810000015,1C,auditory,2018_Sep_24_1812,
bu.wav,0,1,1,55,R,0,54,54,54,,,,,None,,,,pu,3,blast_a_022,61.0810000015,1C,auditory,2018_Sep_24_1812,
da.wav,0,2,1,56,R,0,55,55,55,,,,,4,0.0878381729126,,,pu,3,blast_a_022,61.0810000015,1C,auditory,2018_Sep_24_1812,
pa.wav,0,3,1,57,R,0,56,56,56,,,,,None,,,,pu,3,blast_a_022,61.0810000015,1C,auditory,2018_Sep_24_1812,
bi.wav,0,1,1,58,R,0,57,57,57,,,,,None,,,,pu,3,blast_a_022,61.0810000015,1C,auditory,2018_Sep_24_1812,
ti.wav,0,2,1,59,R,0,58,58,58,,,,,None,,,,pu,3,blast_a_022,61.0810000015,1C,auditory,2018_Sep_24_1812,
pa.wav,0,3,1,60,R,0,59,59,59,,,,,None,,,,pu,3,blast_a_022,61.0810000015,1C,auditory,2018_Sep_24_1812,
du.wav,0,1,1,61,R,0,60,60,60,,,,,None,,,,pu,3,blast_a_022,61.0810000015,1C,auditory,2018_Sep_24_1812,
tu.wav,0,2,1,62,R,0,61,61,61,,,,,None,,,,pu,3,blast_a_022,61.0810000015,1C,auditory,2018_Sep_24_1812,
di.wav,0,3,1,63,R,0,62,62,62,,,,,None,,,,pu,3,blast_a_022,61.0810000015,1C,auditory,2018_Sep_24_1812,
bu.wav,0,1,1,64,R,0,63,63,63,,,,,None,,,,pu,3,blast_a_022,61.0810000015,1C,auditory,2018_Sep_24_1812,
bi.wav,0,2,1,65,R,0,64,64,64,,,,,4,0.0904071331024,,,pu,3,blast_a_022,61.0810000015,1C,auditory,2018_Sep_24_1812,
tu.wav,0,3,1,66,R,0,65,65,65,,,,,None,,,,pu,3,blast_a_022,61.0810000015,1C,auditory,2018_Sep_24_1812,
pu.wav,0,1,1,67,R,0,66,66,66,,,,,None,,,,pu,3,blast_a_022,61.0810000015,1C,auditory,2018_Sep_24_1812,
ti.wav,0,2,1,68,R,0,67,67,67,,,,,4,0.153759002686,,,pu,3,blast_a_022,61.0810000015,1C,auditory,2018_Sep_24_1812,
pi.wav,0,3,1,69,R,0,68,68,68,,,,,None,,,,pu,3,blast_a_022,61.0810000015,1C,auditory,2018_Sep_24_1812,
di.wav,0,1,1,70,R,0,69,69,69,,,,,None,,,,pu,3,blast_a_022,61.0810000015,1C,auditory,2018_Sep_24_1812,
da.wav,0,2,1,71,R,0,70,70,70,,,,,None,,,,pu,3,blast_a_022,61.0810000015,1C,auditory,2018_Sep_24_1812,
pi.wav,0,3,1,72,R,0,71,71,71,,,,,None,,,,pu,3,blast_a_022,61.0810000015,1C,auditory,2018_Sep_24_1812,
bu.wav,0,1,1,73,R,0,72,72,72,,,,,None,,,,pu,3,blast_a_022,61.0810000015,1C,auditory,2018_Sep_24_1812,
pi.wav,0,2,1,74,R,0,73,73,73,,,,,None,,,,pu,3,blast_a_022,61.0810000015,1C,auditory,2018_Sep_24_1812,
ba.wav,0,3,1,75,R,0,74,74,74,,,,,None,,,,pu,3,blast_a_022,61.0810000015,1C,auditory,2018_Sep_24_1812,
ti.wav,0,1,1,76,R,0,75,75,75,,,,,None,,,,pu,3,blast_a_022,61.0810000015,1C,auditory,2018_Sep_24_1812,
ba.wav,0,2,1,77,R,0,76,76,76,,,,,None,,,,pu,3,blast_a_022,61.0810000015,1C,auditory,2018_Sep_24_1812,
di.wav,0,3,1,78,R,0,77,77,77,,,,,None,,,,pu,3,blast_a_022,61.0810000015,1C,auditory,2018_Sep_24_1812,
tu.wav,0,1,1,79,R,0,78,78,78,,,,,None,,,,pu,3,blast_a_022,61.0810000015,1C,auditory,2018_Sep_24_1812,
ta.wav,0,2,1,80,R,0,79,79,79,,,,,None,,,,pu,3,blast_a_022,61.0810000015,1C,auditory,2018_Sep_24_1812,
bu.wav,0,3,1,81,R,0,80,80,80,,,,,None,,,,pu,3,blast_a_022,61.0810000015,1C,auditory,2018_Sep_24_1812,
du.wav,0,1,1,82,R,0,81,81,81,,,,,4,0.000725030899048,,,pu,3,blast_a_022,61.0810000015,1C,auditory,2018_Sep_24_1812,
bi.wav,0,2,1,83,R,0,82,82,82,,,,,4,0.13866019249,,,pu,3,blast_a_022,61.0810000015,1C,auditory,2018_Sep_24_1812,
pi.wav,0,3,1,84,R,0,83,83,83,,,,,None,,,,pu,3,blast_a_022,61.0810000015,1C,auditory,2018_Sep_24_1812,
du.wav,0,1,1,85,R,0,84,84,84,,,,,None,,,,pu,3,blast_a_022,61.0810000015,1C,auditory,2018_Sep_24_1812,
pu.wav,0,2,1,86,R,0,85,85,85,,,,,None,,,,pu,3,blast_a_022,61.0810000015,1C,auditory,2018_Sep_24_1812,
ta.wav,0,3,1,87,R,0,86,86,86,,,,,4,0.102087974548,,,pu,3,blast_a_022,61.0810000015,1C,auditory,2018_Sep_24_1812,
da.wav,0,1,1,88,R,0,87,87,87,,,,,None,,,,pu,3,blast_a_022,61.0810000015,1C,auditory,2018_Sep_24_1812,
pu.wav,0,2,1,89,R,0,88,88,88,,,,,4,0.439149141312,,,pu,3,blast_a_022,61.0810000015,1C,auditory,2018_Sep_24_1812,
ti.wav,0,3,1,90,R,0,89,89,89,,,,,None,,,,pu,3,blast_a_022,61.0810000015,1C,auditory,2018_Sep_24_1812,
pa.wav,0,1,1,91,R,0,90,90,90,,,,,None,,,,pu,3,blast_a_022,61.0810000015,1C,auditory,2018_Sep_24_1812,
pa.wav,0,2,1,92,R,0,91,91,91,,,,,None,,,,pu,3,blast_a_022,61.0810000015,1C,auditory,2018_Sep_24_1812,
bi.wav,0,3,1,93,R,0,92,92,92,,,,,None,,,,pu,3,blast_a_022,61.0810000015,1C,auditory,2018_Sep_24_1812,
tu.wav,0,1,1,94,R,0,93,93,93,,,,,None,,,,pu,3,blast_a_022,61.0810000015,1C,auditory,2018_Sep_24_1812,
di.wav,0,2,1,95,R,0,94,94,94,,,,,None,,,,pu,3,blast_a_022,61.0810000015,1C,auditory,2018_Sep_24_1812,
da.wav,0,3,1,96,R,0,95,95,95,,,,,None,,,,pu,3,blast_a_022,61.0810000015,1C,auditory,2018_Sep_24_1812,
silence.wav,0,0,0,0,B,0,96,96,96,,,,,None,,,,pu,3,blast_a_022,61.0810000015,1C,auditory,2018_Sep_24_1812,
silence.wav,0,0,0,0,B,0,97,97,97,,,,,None,,,,pu,3,blast_a_022,61.0810000015,1C,auditory,2018_Sep_24_1812,
silence.wav,0,0,0,0,B,0,98,98,98,,,,,None,,,,pu,3,blast_a_022,61.0810000015,1C,auditory,2018_Sep_24_1812,
silence.wav,0,0,0,0,B,0,99,99,99,,,,,None,,,,pu,3,blast_a_022,61.0810000015,1C,auditory,2018_Sep_24_1812,
silence.wav,0,0,0,0,B,0,100,100,100,,,,,None,,,,pu,3,blast_a_022,61.0810000015,1C,auditory,2018_Sep_24_1812,
silence.wav,0,0,0,0,B,0,101,101,101,,,,,None,,,,pu,3,blast_a_022,61.0810000015,1C,auditory,2018_Sep_24_1812,
silence.wav,0,0,0,0,B,0,102,102,102,,,,,None,,,,pu,3,blast_a_022,61.0810000015,1C,auditory,2018_Sep_24_1812,
silence.wav,0,0,0,0,B,0,103,103,103,,,,,None,,,,pu,3,blast_a_022,61.0810000015,1C,auditory,2018_Sep_24_1812,
silence.wav,0,0,0,0,B,0,104,104,104,,,,,None,,,,pu,3,blast_a_022,61.0810000015,1C,auditory,2018_Sep_24_1812,
silence.wav,0,0,0,0,B,0,105,105,105,,,,,None,,,,pu,3,blast_a_022,61.0810000015,1C,auditory,2018_Sep_24_1812,
silence.wav,0,0,0,0,B,0,106,106,106,,,,,None,,,,pu,3,blast_a_022,61.0810000015,1C,auditory,2018_Sep_24_1812,
silence.wav,0,0,0,0,B,0,107,107,107,,,,,None,,,,pu,3,blast_a_022,61.0810000015,1C,auditory,2018_Sep_24_1812,
silence.wav,0,0,0,0,B,0,108,108,108,,,,,None,,,,pu,3,blast_a_022,61.0810000015,1C,auditory,2018_Sep_24_1812,
silence.wav,0,0,0,0,B,0,109,109,109,,,,,None,,,,pu,3,blast_a_022,61.0810000015,1C,auditory,2018_Sep_24_1812,
silence.wav,0,0,0,0,B,0,110,110,110,,,,,None,,,,pu,3,blast_a_022,61.0810000015,1C,auditory,2018_Sep_24_1812,
silence.wav,0,0,0,0,B,0,111,111,111,,,,,None,,,,pu,3,blast_a_022,61.0810000015,1C,auditory,2018_Sep_24_1812,
silence.wav,0,0,0,0,B,0,112,112,112,,,,,None,,,,pu,3,blast_a_022,61.0810000015,1C,auditory,2018_Sep_24_1812,
silence.wav,0,0,0,0,B,0,113,113,113,,,,,None,,,,pu,3,blast_a_022,61.0810000015,1C,auditory,2018_Sep_24_1812,
silence.wav,0,0,0,0,B,0,114,114,114,,,,,None,,,,pu,3,blast_a_022,61.0810000015,1C,auditory,2018_Sep_24_1812,
silence.wav,0,0,0,0,B,0,115,115,115,,,,,None,,,,pu,3,blast_a_022,61.0810000015,1C,auditory,2018_Sep_24_1812,
silence.wav,0,0,0,0,B,0,116,116,116,,,,,None,,,,pu,3,blast_a_022,61.0810000015,1C,auditory,2018_Sep_24_1812,
silence.wav,0,0,0,0,B,0,117,117,117,,,,,None,,,,pu,3,blast_a_022,61.0810000015,1C,auditory,2018_Sep_24_1812,
silence.wav,0,0,0,0,B,0,118,118,118,,,,,None,,,,pu,3,blast_a_022,61.0810000015,1C,auditory,2018_Sep_24_1812,
silence.wav,0,0,0,0,B,0,119,119,119,,,,,None,,,,pu,3,blast_a_022,61.0810000015,1C,auditory,2018_Sep_24_1812,
silence.wav,0,0,0,0,B,0,120,120,120,,,,,None,,,,pu,3,blast_a_022,61.0810000015,1C,auditory,2018_Sep_24_1812,
silence.wav,0,0,0,0,B,0,121,121,121,,,,,None,,,,pu,3,blast_a_022,61.0810000015,1C,auditory,2018_Sep_24_1812,
silence.wav,0,0,0,0,B,0,122,122,122,,,,,None,,,,pu,3,blast_a_022,61.0810000015,1C,auditory,2018_Sep_24_1812,
silence.wav,0,0,0,0,B,0,123,123,123,,,,,None,,,,pu,3,blast_a_022,61.0810000015,1C,auditory,2018_Sep_24_1812,
silence.wav,0,0,0,0,B,0,124,124,124,,,,,None,,,,pu,3,blast_a_022,61.0810000015,1C,auditory,2018_Sep_24_1812,
ba.wav,0,1,1,97,R,0,0,0,0,,,,,None,,,,pu,3,blast_a_022,61.0810000015,1C,auditory,2018_Sep_24_1812,
bu.wav,0,2,1,98,R,0,1,1,1,,,,,4,0.457491874695,,,pu,3,blast_a_022,61.0810000015,1C,auditory,2018_Sep_24_1812,
tu.wav,0,3,1,99,R,0,2,2,2,,,,,None,,,,pu,3,blast_a_022,61.0810000015,1C,auditory,2018_Sep_24_1812,
du.wav,0,1,1,100,R,0,3,3,3,,,,,None,,,,pu,3,blast_a_022,61.0810000015,1C,auditory,2018_Sep_24_1812,
bu.wav,0,2,1,101,R,0,4,4,4,,,,,None,,,,pu,3,blast_a_022,61.0810000015,1C,auditory,2018_Sep_24_1812,
di.wav,0,3,1,102,R,0,5,5,5,,,,,4,0.0406270027161,,,pu,3,blast_a_022,61.0810000015,1C,auditory,2018_Sep_24_1812,
ti.wav,0,1,1,103,R,0,6,6,6,,,,,None,,,,pu,3,blast_a_022,61.0810000015,1C,auditory,2018_Sep_24_1812,
di.wav,0,2,1,104,R,0,7,7,7,,,,,None,,,,pu,3,blast_a_022,61.0810000015,1C,auditory,2018_Sep_24_1812,
da.wav,0,3,1,105,R,0,8,8,8,,,,,None,,,,pu,3,blast_a_022,61.0810000015,1C,auditory,2018_Sep_24_1812,
da.wav,0,1,1,106,R,0,9,9,9,,,,,None,,,,pu,3,blast_a_022,61.0810000015,1C,auditory,2018_Sep_24_1812,
pi.wav,0,2,1,107,R,0,10,10,10,,,,,None,,,,pu,3,blast_a_022,61.0810000015,1C,auditory,2018_Sep_24_1812,
tu.wav,0,3,1,108,R,0,11,11,11,,,,,None,,,,pu,3,blast_a_022,61.0810000015,1C,auditory,2018_Sep_24_1812,
pa.wav,0,1,1,109,R,0,12,12,12,,,,,None,,,,pu,3,blast_a_022,61.0810000015,1C,auditory,2018_Sep_24_1812,
ta.wav,0,2,1,110,R,0,13,13,13,,,,,None,,,,pu,3,blast_a_022,61.0810000015,1C,auditory,2018_Sep_24_1812,
ba.wav,0,3,1,111,R,0,14,14,14,,,,,None,,,,pu,3,blast_a_022,61.0810000015,1C,auditory,2018_Sep_24_1812,
pu.wav,0,1,1,112,R,0,15,15,15,,,,,4,0.418222904205,,,pu,3,blast_a_022,61.0810000015,1C,auditory,2018_Sep_24_1812,
bi.wav,0,2,1,113,R,0,16,16,16,,,,,None,,,,pu,3,blast_a_022,61.0810000015,1C,auditory,2018_Sep_24_1812,
ti.wav,0,3,1,114,R,0,17,17,17,,,,,None,,,,pu,3,blast_a_022,61.0810000015,1C,auditory,2018_Sep_24_1812,
pi.wav,0,1,1,115,R,0,18,18,18,,,,,None,,,,pu,3,blast_a_022,61.0810000015,1C,auditory,2018_Sep_24_1812,
du.wav,0,2,1,116,R,0,19,19,19,,,,,None,,,,pu,3,blast_a_022,61.0810000015,1C,auditory,2018_Sep_24_1812,
ta.wav,0,3,1,117,R,0,20,20,20,,,,,None,,,,pu,3,blast_a_022,61.0810000015,1C,auditory,2018_Sep_24_1812,
pa.wav,0,1,1,118,R,0,21,21,21,,,,,None,,,,pu,3,blast_a_022,61.0810000015,1C,auditory,2018_Sep_24_1812,
pu.wav,0,2,1,119,R,0,22,22,22,,,,,4,0.440670967102,,,pu,3,blast_a_022,61.0810000015,1C,auditory,2018_Sep_24_1812,
bi.wav,0,3,1,120,R,0,23,23,23,,,,,None,,,,pu,3,blast_a_022,61.0810000015,1C,auditory,2018_Sep_24_1812,
pu.wav,0,1,1,121,R,0,24,24,24,,,,,None,,,,pu,3,blast_a_022,61.0810000015,1C,auditory,2018_Sep_24_1812,
ti.wav,0,2,1,122,R,0,25,25,25,,,,,4,0.086207151413,,,pu,3,blast_a_022,61.0810000015,1C,auditory,2018_Sep_24_1812,
tu.wav,0,3,1,123,R,0,26,26,26,,,,,None,,,,pu,3,blast_a_022,61.0810000015,1C,auditory,2018_Sep_24_1812,
ba.wav,0,1,1,124,R,0,27,27,27,,,,,4,0.0727710723877,,,pu,3,blast_a_022,61.0810000015,1C,auditory,2018_Sep_24_1812,
ta.wav,0,2,1,125,R,0,28,28,28,,,,,None,,,,pu,3,blast_a_022,61.0810000015,1C,auditory,2018_Sep_24_1812,
da.wav,0,3,1,126,R,0,29,29,29,,,,,None,,,,pu,3,blast_a_022,61.0810000015,1C,auditory,2018_Sep_24_1812,
di.wav,0,1,1,127,R,0,30,30,30,,,,,None,,,,pu,3,blast_a_022,61.0810000015,1C,auditory,2018_Sep_24_1812,
ti.wav,0,2,1,128,R,0,31,31,31,,,,,None,,,,pu,3,blast_a_022,61.0810000015,1C,auditory,2018_Sep_24_1812,
du.wav,0,3,1,129,R,0,32,32,32,,,,,None,,,,pu,3,blast_a_022,61.0810000015,1C,auditory,2018_Sep_24_1812,
da.wav,0,1,1,130,R,0,33,33,33,,,,,None,,,,pu,3,blast_a_022,61.0810000015,1C,auditory,2018_Sep_24_1812,
ba.wav,0,2,1,131,R,0,34,34,34,,,,,None,,,,pu,3,blast_a_022,61.0810000015,1C,auditory,2018_Sep_24_1812,
bu.wav,0,3,1,132,R,0,35,35,35,,,,,None,,,,pu,3,blast_a_022,61.0810000015,1C,auditory,2018_Sep_24_1812,
du.wav,0,1,1,133,R,0,36,36,36,,,,,4,0.0346088409424,,,pu,3,blast_a_022,61.0810000015,1C,auditory,2018_Sep_24_1812,
di.wav,0,2,1,134,R,0,37,37,37,,,,,None,,,,pu,3,blast_a_022,61.0810000015,1C,auditory,2018_Sep_24_1812,
di.wav,0,3,1,135,R,0,38,38,38,,,,,None,,,,pu,3,blast_a_022,61.0810000015,1C,auditory,2018_Sep_24_1812,
bi.wav,0,1,1,136,R,0,39,39,39,,,,,None,,,,pu,3,blast_a_022,61.0810000015,1C,auditory,2018_Sep_24_1812,
pi.wav,0,2,1,137,R,0,40,40,40,,,,,None,,,,pu,3,blast_a_022,61.0810000015,1C,auditory,2018_Sep_24_1812,
pa.wav,0,3,1,138,R,0,41,41,41,,,,,None,,,,pu,3,blast_a_022,61.0810000015,1C,auditory,2018_Sep_24_1812,
pa.wav,0,1,1,139,R,0,42,42,42,,,,,None,,,,pu,3,blast_a_022,61.0810000015,1C,auditory,2018_Sep_24_1812,
bi.wav,0,2,1,140,R,0,43,43,43,,,,,None,,,,pu,3,blast_a_022,61.0810000015,1C,auditory,2018_Sep_24_1812,
ba.wav,0,3,1,141,R,0,44,44,44,,,,,None,,,,pu,3,blast_a_022,61.0810000015,1C,auditory,2018_Sep_24_1812,
pu.wav,0,1,1,142,R,0,45,45,45,,,,,4,0.419981956482,,,pu,3,blast_a_022,61.0810000015,1C,auditory,2018_Sep_24_1812,
ta.wav,0,2,1,143,R,0,46,46,46,,,,,None,,,,pu,3,blast_a_022,61.0810000015,1C,auditory,2018_Sep_24_1812,
bu.wav,0,3,1,144,R,0,47,47,47,,,,,None,,,,pu,3,blast_a_022,61.0810000015,1C,auditory,2018_Sep_24_1812,
di.wav,0,1,1,145,R,0,48,48,48,,,,,4,0.269824028015,,,pu,3,blast_a_022,61.0810000015,1C,auditory,2018_Sep_24_1812,
bu.wav,0,2,1,146,R,0,49,49,49,,,,,None,,,,pu,3,blast_a_022,61.0810000015,1C,auditory,2018_Sep_24_1812,
bi.wav,0,3,1,147,R,0,50,50,50,,,,,4,0.140650987625,,,pu,3,blast_a_022,61.0810000015,1C,auditory,2018_Sep_24_1812,
bi.wav,0,1,1,148,R,0,51,51,51,,,,,None,,,,pu,3,blast_a_022,61.0810000015,1C,auditory,2018_Sep_24_1812,
ba.wav,0,2,1,149,R,0,52,52,52,,,,,None,,,,pu,3,blast_a_022,61.0810000015,1C,auditory,2018_Sep_24_1812,
tu.wav,0,3,1,150,R,0,53,53,53,,,,,None,,,,pu,3,blast_a_022,61.0810000015,1C,auditory,2018_Sep_24_1812,
tu.wav,0,1,1,151,R,0,54,54,54,,,,,None,,,,pu,3,blast_a_022,61.0810000015,1C,auditory,2018_Sep_24_1812,
pu.wav,0,2,1,152,R,0,55,55,55,,,,,4,0.441785097122,,,pu,3,blast_a_022,61.0810000015,1C,auditory,2018_Sep_24_1812,
du.wav,0,3,1,153,R,0,56,56,56,,,,,None,,,,pu,3,blast_a_022,61.0810000015,1C,auditory,2018_Sep_24_1812,
ba.wav,0,1,1,154,R,0,57,57,57,,,,,None,,,,pu,3,blast_a_022,61.0810000015,1C,auditory,2018_Sep_24_1812,
tu.wav,0,2,1,155,R,0,58,58,58,,,,,None,,,,pu,3,blast_a_022,61.0810000015,1C,auditory,2018_Sep_24_1812,
ti.wav,0,3,1,156,R,0,59,59,59,,,,,None,,,,pu,3,blast_a_022,61.0810000015,1C,auditory,2018_Sep_24_1812,
ta.wav,0,1,1,157,R,0,60,60,60,,,,,None,,,,pu,3,blast_a_022,61.0810000015,1C,auditory,2018_Sep_24_1812,
pa.wav,0,2,1,158,R,0,61,61,61,,,,,None,,,,pu,3,blast_a_022,61.0810000015,1C,auditory,2018_Sep_24_1812,
da.wav,0,3,1,159,R,0,62,62,62,,,,,None,,,,pu,3,blast_a_022,61.0810000015,1C,auditory,2018_Sep_24_1812,
di.wav,0,1,1,160,R,0,63,63,63,,,,,None,,,,pu,3,blast_a_022,61.0810000015,1C,auditory,2018_Sep_24_1812,
pi.wav,0,2,1,161,R,0,64,64,64,,,,,None,,,,pu,3,blast_a_022,61.0810000015,1C,auditory,2018_Sep_24_1812,
pu.wav,0,3,1,162,R,0,65,65,65,,,,,None,,,,pu,3,blast_a_022,61.0810000015,1C,auditory,2018_Sep_24_1812,
pi.wav,0,1,1,163,R,0,66,66,66,,,,,4,0.0528788566589,,,pu,3,blast_a_022,61.0810000015,1C,auditory,2018_Sep_24_1812,
bi.wav,0,2,1,164,R,0,67,67,67,,,,,None,,,,pu,3,blast_a_022,61.0810000015,1C,auditory,2018_Sep_24_1812,
pa.wav,0,3,1,165,R,0,68,68,68,,,,,None,,,,pu,3,blast_a_022,61.0810000015,1C,auditory,2018_Sep_24_1812,
da.wav,0,1,1,166,R,0,69,69,69,,,,,None,,,,pu,3,blast_a_022,61.0810000015,1C,auditory,2018_Sep_24_1812,
bu.wav,0,2,1,167,R,0,70,70,70,,,,,None,,,,pu,3,blast_a_022,61.0810000015,1C,auditory,2018_Sep_24_1812,
pi.wav,0,3,1,168,R,0,71,71,71,,,,,4,0.0762960910797,,,pu,3,blast_a_022,61.0810000015,1C,auditory,2018_Sep_24_1812,
pa.wav,0,1,1,169,R,0,72,72,72,,,,,None,,,,pu,3,blast_a_022,61.0810000015,1C,auditory,2018_Sep_24_1812,
ba.wav,0,2,1,170,R,0,73,73,73,,,,,None,,,,pu,3,blast_a_022,61.0810000015,1C,auditory,2018_Sep_24_1812,
ta.wav,0,3,1,171,R,0,74,74,74,,,,,None,,,,pu,3,blast_a_022,61.0810000015,1C,auditory,2018_Sep_24_1812,
pi.wav,0,1,1,172,R,0,75,75,75,,,,,None,,,,pu,3,blast_a_022,61.0810000015,1C,auditory,2018_Sep_24_1812,
di.wav,0,2,1,173,R,0,76,76,76,,,,,None,,,,pu,3,blast_a_022,61.0810000015,1C,auditory,2018_Sep_24_1812,
pa.wav,0,3,1,174,R,0,77,77,77,,,,,None,,,,pu,3,blast_a_022,61.0810000015,1C,auditory,2018_Sep_24_1812,
ti.wav,0,1,1,175,R,0,78,78,78,,,,,None,,,,pu,3,blast_a_022,61.0810000015,1C,auditory,2018_Sep_24_1812,
bi.wav,0,2,1,176,R,0,79,79,79,,,,,None,,,,pu,3,blast_a_022,61.0810000015,1C,auditory,2018_Sep_24_1812,
ti.wav,0,3,1,177,R,0,80,80,80,,,,,None,,,,pu,3,blast_a_022,61.0810000015,1C,auditory,2018_Sep_24_1812,
tu.wav,0,1,1,178,R,0,81,81,81,,,,,None,,,,pu,3,blast_a_022,61.0810000015,1C,auditory,2018_Sep_24_1812,
bu.wav,0,2,1,179,R,0,82,82,82,,,,,4,0.418556928635,,,pu,3,blast_a_022,61.0810000015,1C,auditory,2018_Sep_24_1812,
du.wav,0,3,1,180,R,0,83,83,83,,,,,None,,,,pu,3,blast_a_022,61.0810000015,1C,auditory,2018_Sep_24_1812,
du.wav,0,1,1,181,R,0,84,84,84,,,,,None,,,,pu,3,blast_a_022,61.0810000015,1C,auditory,2018_Sep_24_1812,
pu.wav,0,2,1,182,R,0,85,85,85,,,,,None,,,,pu,3,blast_a_022,61.0810000015,1C,auditory,2018_Sep_24_1812,
da.wav,0,3,1,183,R,0,86,86,86,,,,,4,0.304871082306,,,pu,3,blast_a_022,61.0810000015,1C,auditory,2018_Sep_24_1812,
ba.wav,0,1,1,184,R,0,87,87,87,,,,,None,,,,pu,3,blast_a_022,61.0810000015,1C,auditory,2018_Sep_24_1812,
ta.wav,0,2,1,185,R,0,88,88,88,,,,,None,,,,pu,3,blast_a_022,61.0810000015,1C,auditory,2018_Sep_24_1812,
da.wav,0,3,1,186,R,0,89,89,89,,,,,None,,,,pu,3,blast_a_022,61.0810000015,1C,auditory,2018_Sep_24_1812,
ti.wav,0,1,1,187,R,0,90,90,90,,,,,None,,,,pu,3,blast_a_022,61.0810000015,1C,auditory,2018_Sep_24_1812,
pu.wav,0,2,1,188,R,0,91,91,91,,,,,None,,,,pu,3,blast_a_022,61.0810000015,1C,auditory,2018_Sep_24_1812,
ta.wav,0,3,1,189,R,0,92,92,92,,,,,4,0.133099079132,,,pu,3,blast_a_022,61.0810000015,1C,auditory,2018_Sep_24_1812,
du.wav,0,1,1,190,R,0,93,93,93,,,,,None,,,,pu,3,blast_a_022,61.0810000015,1C,auditory,2018_Sep_24_1812,
bu.wav,0,2,1,191,R,0,94,94,94,,,,,4,0.139034986496,,,pu,3,blast_a_022,61.0810000015,1C,auditory,2018_Sep_24_1812,
di.wav,0,3,1,192,R,0,95,95,95,,,,,None,,,,pu,3,blast_a_022,61.0810000015,1C,auditory,2018_Sep_24_1812,
silence.wav,0,0,0,0,B,0,96,96,96,,,,,None,,,,pu,3,blast_a_022,61.0810000015,1C,auditory,2018_Sep_24_1812,
silence.wav,0,0,0,0,B,0,97,97,97,,,,,None,,,,pu,3,blast_a_022,61.0810000015,1C,auditory,2018_Sep_24_1812,
silence.wav,0,0,0,0,B,0,98,98,98,,,,,None,,,,pu,3,blast_a_022,61.0810000015,1C,auditory,2018_Sep_24_1812,
silence.wav,0,0,0,0,B,0,99,99,99,,,,,None,,,,pu,3,blast_a_022,61.0810000015,1C,auditory,2018_Sep_24_1812,
silence.wav,0,0,0,0,B,0,100,100,100,,,,,None,,,,pu,3,blast_a_022,61.0810000015,1C,auditory,2018_Sep_24_1812,
silence.wav,0,0,0,0,B,0,101,101,101,,,,,None,,,,pu,3,blast_a_022,61.0810000015,1C,auditory,2018_Sep_24_1812,
silence.wav,0,0,0,0,B,0,102,102,102,,,,,None,,,,pu,3,blast_a_022,61.0810000015,1C,auditory,2018_Sep_24_1812,
silence.wav,0,0,0,0,B,0,103,103,103,,,,,None,,,,pu,3,blast_a_022,61.0810000015,1C,auditory,2018_Sep_24_1812,
silence.wav,0,0,0,0,B,0,104,104,104,,,,,None,,,,pu,3,blast_a_022,61.0810000015,1C,auditory,2018_Sep_24_1812,
silence.wav,0,0,0,0,B,0,105,105,105,,,,,None,,,,pu,3,blast_a_022,61.0810000015,1C,auditory,2018_Sep_24_1812,
silence.wav,0,0,0,0,B,0,106,106,106,,,,,None,,,,pu,3,blast_a_022,61.0810000015,1C,auditory,2018_Sep_24_1812,
silence.wav,0,0,0,0,B,0,107,107,107,,,,,None,,,,pu,3,blast_a_022,61.0810000015,1C,auditory,2018_Sep_24_1812,
silence.wav,0,0,0,0,B,0,108,108,108,,,,,None,,,,pu,3,blast_a_022,61.0810000015,1C,auditory,2018_Sep_24_1812,
silence.wav,0,0,0,0,B,0,109,109,109,,,,,None,,,,pu,3,blast_a_022,61.0810000015,1C,auditory,2018_Sep_24_1812,
silence.wav,0,0,0,0,B,0,110,110,110,,,,,None,,,,pu,3,blast_a_022,61.0810000015,1C,auditory,2018_Sep_24_1812,
silence.wav,0,0,0,0,B,0,111,111,111,,,,,None,,,,pu,3,blast_a_022,61.0810000015,1C,auditory,2018_Sep_24_1812,
silence.wav,0,0,0,0,B,0,112,112,112,,,,,None,,,,pu,3,blast_a_022,61.0810000015,1C,auditory,2018_Sep_24_1812,
silence.wav,0,0,0,0,B,0,113,113,113,,,,,None,,,,pu,3,blast_a_022,61.0810000015,1C,auditory,2018_Sep_24_1812,
silence.wav,0,0,0,0,B,0,114,114,114,,,,,None,,,,pu,3,blast_a_022,61.0810000015,1C,auditory,2018_Sep_24_1812,
silence.wav,0,0,0,0,B,0,115,115,115,,,,,None,,,,pu,3,blast_a_022,61.0810000015,1C,auditory,2018_Sep_24_1812,
silence.wav,0,0,0,0,B,0,116,116,116,,,,,None,,,,pu,3,blast_a_022,61.0810000015,1C,auditory,2018_Sep_24_1812,
silence.wav,0,0,0,0,B,0,117,117,117,,,,,None,,,,pu,3,blast_a_022,61.0810000015,1C,auditory,2018_Sep_24_1812,
silence.wav,0,0,0,0,B,0,118,118,118,,,,,None,,,,pu,3,blast_a_022,61.0810000015,1C,auditory,2018_Sep_24_1812,
silence.wav,0,0,0,0,B,0,119,119,119,,,,,None,,,,pu,3,blast_a_022,61.0810000015,1C,auditory,2018_Sep_24_1812,
silence.wav,0,0,0,0,B,0,120,120,120,,,,,None,,,,pu,3,blast_a_022,61.0810000015,1C,auditory,2018_Sep_24_1812,
silence.wav,0,0,0,0,B,0,121,121,121,,,,,None,,,,pu,3,blast_a_022,61.0810000015,1C,auditory,2018_Sep_24_1812,
silence.wav,0,0,0,0,B,0,122,122,122,,,,,None,,,,pu,3,blast_a_022,61.0810000015,1C,auditory,2018_Sep_24_1812,
silence.wav,0,0,0,0,B,0,123,123,123,,,,,None,,,,pu,3,blast_a_022,61.0810000015,1C,auditory,2018_Sep_24_1812,
silence.wav,0,0,0,0,B,0,124,124,124,,,,,None,,,,pu,3,blast_a_022,61.0810000015,1C,auditory,2018_Sep_24_1812,
3A.wav,1,1,17,193,S,,,,,0,0,0,0,,,4,0.414124011993,pu,3,blast_a_022,61.0810000015,1C,auditory,2018_Sep_24_1812,
3B.wav,1,2,17,194,S,,,,,0,1,1,1,,,None,,pu,3,blast_a_022,61.0810000015,1C,auditory,2018_Sep_24_1812,
3C.wav,1,3,17,195,S,,,,,0,2,2,2,,,4,0.376067876816,pu,3,blast_a_022,61.0810000015,1C,auditory,2018_Sep_24_1812,
2A.wav,4,1,17,196,S,,,,,0,3,3,3,,,None,,pu,3,blast_a_022,61.0810000015,1C,auditory,2018_Sep_24_1812,
2B.wav,4,2,17,197,S,,,,,0,4,4,4,,,4,0.324680089951,pu,3,blast_a_022,61.0810000015,1C,auditory,2018_Sep_24_1812,
2C.wav,4,3,17,198,S,,,,,0,5,5,5,,,None,,pu,3,blast_a_022,61.0810000015,1C,auditory,2018_Sep_24_1812,
1A.wav,2,1,17,199,S,,,,,0,6,6,6,,,4,0.30782699585,pu,3,blast_a_022,61.0810000015,1C,auditory,2018_Sep_24_1812,
1B.wav,2,2,17,200,S,,,,,0,7,7,7,,,None,,pu,3,blast_a_022,61.0810000015,1C,auditory,2018_Sep_24_1812,
1C.wav,2,3,17,201,S,,,,,0,8,8,8,,,4,0.28914809227,pu,3,blast_a_022,61.0810000015,1C,auditory,2018_Sep_24_1812,
4A.wav,3,1,17,202,S,,,,,0,9,9,9,,,4,0.338979959488,pu,3,blast_a_022,61.0810000015,1C,auditory,2018_Sep_24_1812,
4B.wav,3,2,17,203,S,,,,,0,10,10,10,,,None,,pu,3,blast_a_022,61.0810000015,1C,auditory,2018_Sep_24_1812,
4C.wav,3,3,17,204,S,,,,,0,11,11,11,,,None,,pu,3,blast_a_022,61.0810000015,1C,auditory,2018_Sep_24_1812,
2A.wav,4,1,18,205,S,,,,,0,12,12,12,,,None,,pu,3,blast_a_022,61.0810000015,1C,auditory,2018_Sep_24_1812,
2B.wav,4,2,18,206,S,,,,,0,13,13,13,,,4,0.288291931152,pu,3,blast_a_022,61.0810000015,1C,auditory,2018_Sep_24_1812,
2C.wav,4,3,18,207,S,,,,,0,14,14,14,,,None,,pu,3,blast_a_022,61.0810000015,1C,auditory,2018_Sep_24_1812,
3A.wav,1,1,18,208,S,,,,,0,15,15,15,,,4,0.219783067703,pu,3,blast_a_022,61.0810000015,1C,auditory,2018_Sep_24_1812,
3B.wav,1,2,18,209,S,,,,,0,16,16,16,,,None,,pu,3,blast_a_022,61.0810000015,1C,auditory,2018_Sep_24_1812,
3C.wav,1,3,18,210,S,,,,,0,17,17,17,,,None,,pu,3,blast_a_022,61.0810000015,1C,auditory,2018_Sep_24_1812,
1A.wav,2,1,18,211,S,,,,,0,18,18,18,,,4,0.0418601036072,pu,3,blast_a_022,61.0810000015,1C,auditory,2018_Sep_24_1812,
1B.wav,2,2,18,212,S,,,,,0,19,19,19,,,None,,pu,3,blast_a_022,61.0810000015,1C,auditory,2018_Sep_24_1812,
1C.wav,2,3,18,213,S,,,,,0,20,20,20,,,4,0.257733821869,pu,3,blast_a_022,61.0810000015,1C,auditory,2018_Sep_24_1812,
4A.wav,3,1,18,214,S,,,,,0,21,21,21,,,None,,pu,3,blast_a_022,61.0810000015,1C,auditory,2018_Sep_24_1812,
4B.wav,3,2,18,215,S,,,,,0,22,22,22,,,None,,pu,3,blast_a_022,61.0810000015,1C,auditory,2018_Sep_24_1812,
4C.wav,3,3,18,216,S,,,,,0,23,23,23,,,None,,pu,3,blast_a_022,61.0810000015,1C,auditory,2018_Sep_24_1812,
3A.wav,1,1,19,217,S,,,,,0,24,24,24,,,4,0.288712024689,pu,3,blast_a_022,61.0810000015,1C,auditory,2018_Sep_24_1812,
3B.wav,1,2,19,218,S,,,,,0,25,25,25,,,None,,pu,3,blast_a_022,61.0810000015,1C,auditory,2018_Sep_24_1812,
3C.wav,1,3,19,219,S,,,,,0,26,26,26,,,4,0.458661079407,pu,3,blast_a_022,61.0810000015,1C,auditory,2018_Sep_24_1812,
4A.wav,3,1,19,220,S,,,,,0,27,27,27,,,None,,pu,3,blast_a_022,61.0810000015,1C,auditory,2018_Sep_24_1812,
4B.wav,3,2,19,221,S,,,,,0,28,28,28,,,4,0.0219879150391,pu,3,blast_a_022,61.0810000015,1C,auditory,2018_Sep_24_1812,
4C.wav,3,3,19,222,S,,,,,0,29,29,29,,,None,,pu,3,blast_a_022,61.0810000015,1C,auditory,2018_Sep_24_1812,
2A.wav,4,1,19,223,S,,,,,0,30,30,30,,,None,,pu,3,blast_a_022,61.0810000015,1C,auditory,2018_Sep_24_1812,
2B.wav,4,2,19,224,S,,,,,0,31,31,31,,,4,0.28792309761,pu,3,blast_a_022,61.0810000015,1C,auditory,2018_Sep_24_1812,
2C.wav,4,3,19,225,S,,,,,0,32,32,32,,,4,0.286189079285,pu,3,blast_a_022,61.0810000015,1C,auditory,2018_Sep_24_1812,
1A.wav,2,1,19,226,S,,,,,0,33,33,33,,,4,0.290642023087,pu,3,blast_a_022,61.0810000015,1C,auditory,2018_Sep_24_1812,
1B.wav,2,2,19,227,S,,,,,0,34,34,34,,,None,,pu,3,blast_a_022,61.0810000015,1C,auditory,2018_Sep_24_1812,
1C.wav,2,3,19,228,S,,,,,0,35,35,35,,,4,0.338176965714,pu,3,blast_a_022,61.0810000015,1C,auditory,2018_Sep_24_1812,
2A.wav,4,1,20,229,S,,,,,0,36,36,36,,,None,,pu,3,blast_a_022,61.0810000015,1C,auditory,2018_Sep_24_1812,
2B.wav,4,2,20,230,S,,,,,0,37,37,37,,,4,0.273738861084,pu,3,blast_a_022,61.0810000015,1C,auditory,2018_Sep_24_1812,
2C.wav,4,3,20,231,S,,,,,0,38,38,38,,,None,,pu,3,blast_a_022,61.0810000015,1C,auditory,2018_Sep_24_1812,
4A.wav,3,1,20,232,S,,,,,0,39,39,39,,,4,0.256455898285,pu,3,blast_a_022,61.0810000015,1C,auditory,2018_Sep_24_1812,
4B.wav,3,2,20,233,S,,,,,0,40,40,40,,,None,,pu,3,blast_a_022,61.0810000015,1C,auditory,2018_Sep_24_1812,
4C.wav,3,3,20,234,S,,,,,0,41,41,41,,,None,,pu,3,blast_a_022,61.0810000015,1C,auditory,2018_Sep_24_1812,
3A.wav,1,1,20,235,S,,,,,0,42,42,42,,,4,0.318807125092,pu,3,blast_a_022,61.0810000015,1C,auditory,2018_Sep_24_1812,
3B.wav,1,2,20,236,S,,,,,0,43,43,43,,,None,,pu,3,blast_a_022,61.0810000015,1C,auditory,2018_Sep_24_1812,
3C.wav,1,3,20,237,S,,,,,0,44,44,44,,,None,,pu,3,blast_a_022,61.0810000015,1C,auditory,2018_Sep_24_1812,
1A.wav,2,1,20,238,S,,,,,0,45,45,45,,,4,0.225129127502,pu,3,blast_a_022,61.0810000015,1C,auditory,2018_Sep_24_1812,
1B.wav,2,2,20,239,S,,,,,0,46,46,46,,,None,,pu,3,blast_a_022,61.0810000015,1C,auditory,2018_Sep_24_1812,
1C.wav,2,3,20,240,S,,,,,0,47,47,47,,,4,0.322815895081,pu,3,blast_a_022,61.0810000015,1C,auditory,2018_Sep_24_1812,
2A.wav,4,1,21,241,S,,,,,0,48,48,48,,,None,,pu,3,blast_a_022,61.0810000015,1C,auditory,2018_Sep_24_1812,
2B.wav,4,2,21,242,S,,,,,0,49,49,49,,,4,0.305692195892,pu,3,blast_a_022,61.0810000015,1C,auditory,2018_Sep_24_1812,
2C.wav,4,3,21,243,S,,,,,0,50,50,50,,,None,,pu,3,blast_a_022,61.0810000015,1C,auditory,2018_Sep_24_1812,
3A.wav,1,1,21,244,S,,,,,0,51,51,51,,,4,0.238885879517,pu,3,blast_a_022,61.0810000015,1C,auditory,2018_Sep_24_1812,
3B.wav,1,2,21,245,S,,,,,0,52,52,52,,,None,,pu,3,blast_a_022,61.0810000015,1C,auditory,2018_Sep_24_1812,
3C.wav,1,3,21,246,S,,,,,0,53,53,53,,,4,0.0872509479523,pu,3,blast_a_022,61.0810000015,1C,auditory,2018_Sep_24_1812,
4A.wav,3,1,21,247,S,,,,,0,54,54,54,,,None,,pu,3,blast_a_022,61.0810000015,1C,auditory,2018_Sep_24_1812,
4B.wav,3,2,21,248,S,,,,,0,55,55,55,,,None,,pu,3,blast_a_022,61.0810000015,1C,auditory,2018_Sep_24_1812,
4C.wav,3,3,21,249,S,,,,,0,56,56,56,,,None,,pu,3,blast_a_022,61.0810000015,1C,auditory,2018_Sep_24_1812,
2A.wav,4,1,22,250,S,,,,,0,57,57,57,,,None,,pu,3,blast_a_022,61.0810000015,1C,auditory,2018_Sep_24_1812,
2B.wav,4,2,22,251,S,,,,,0,58,58,58,,,4,0.335845947266,pu,3,blast_a_022,61.0810000015,1C,auditory,2018_Sep_24_1812,
2C.wav,4,3,22,252,S,,,,,0,59,59,59,,,None,,pu,3,blast_a_022,61.0810000015,1C,auditory,2018_Sep_24_1812,
3A.wav,1,1,22,253,S,,,,,0,60,60,60,,,4,0.253867864609,pu,3,blast_a_022,61.0810000015,1C,auditory,2018_Sep_24_1812,
3B.wav,1,2,22,254,S,,,,,0,61,61,61,,,None,,pu,3,blast_a_022,61.0810000015,1C,auditory,2018_Sep_24_1812,
3C.wav,1,3,22,255,S,,,,,0,62,62,62,,,None,,pu,3,blast_a_022,61.0810000015,1C,auditory,2018_Sep_24_1812,
4A.wav,3,1,22,256,S,,,,,0,63,63,63,,,None,,pu,3,blast_a_022,61.0810000015,1C,auditory,2018_Sep_24_1812,
4B.wav,3,2,22,257,S,,,,,0,64,64,64,,,None,,pu,3,blast_a_022,61.0810000015,1C,auditory,2018_Sep_24_1812,
4C.wav,3,3,22,258,S,,,,,0,65,65,65,,,None,,pu,3,blast_a_022,61.0810000015,1C,auditory,2018_Sep_24_1812,
1A.wav,2,1,21,259,S,,,,,0,66,66,66,,,None,,pu,3,blast_a_022,61.0810000015,1C,auditory,2018_Sep_24_1812,
1B.wav,2,2,21,260,S,,,,,0,67,67,67,,,None,,pu,3,blast_a_022,61.0810000015,1C,auditory,2018_Sep_24_1812,
1C.wav,2,3,21,261,S,,,,,0,68,68,68,,,4,0.289836168289,pu,3,blast_a_022,61.0810000015,1C,auditory,2018_Sep_24_1812,
2A.wav,4,1,23,262,S,,,,,0,69,69,69,,,None,,pu,3,blast_a_022,61.0810000015,1C,auditory,2018_Sep_24_1812,
2B.wav,4,2,23,263,S,,,,,0,70,70,70,,,4,0.222437858582,pu,3,blast_a_022,61.0810000015,1C,auditory,2018_Sep_24_1812,
2C.wav,4,3,23,264,S,,,,,0,71,71,71,,,None,,pu,3,blast_a_022,61.0810000015,1C,auditory,2018_Sep_24_1812,
1A.wav,2,1,22,265,S,,,,,0,72,72,72,,,4,0.333982944489,pu,3,blast_a_022,61.0810000015,1C,auditory,2018_Sep_24_1812,
1B.wav,2,2,22,266,S,,,,,0,73,73,73,,,None,,pu,3,blast_a_022,61.0810000015,1C,auditory,2018_Sep_24_1812,
1C.wav,2,3,22,267,S,,,,,0,74,74,74,,,4,0.291514873505,pu,3,blast_a_022,61.0810000015,1C,auditory,2018_Sep_24_1812,
4A.wav,3,1,23,268,S,,,,,0,75,75,75,,,4,0.406141996384,pu,3,blast_a_022,61.0810000015,1C,auditory,2018_Sep_24_1812,
4B.wav,3,2,23,269,S,,,,,0,76,76,76,,,None,,pu,3,blast_a_022,61.0810000015,1C,auditory,2018_Sep_24_1812,
4C.wav,3,3,23,270,S,,,,,0,77,77,77,,,None,,pu,3,blast_a_022,61.0810000015,1C,auditory,2018_Sep_24_1812,
3A.wav,1,1,23,271,S,,,,,0,78,78,78,,,4,0.270171880722,pu,3,blast_a_022,61.0810000015,1C,auditory,2018_Sep_24_1812,
3B.wav,1,2,23,272,S,,,,,0,79,79,79,,,None,,pu,3,blast_a_022,61.0810000015,1C,auditory,2018_Sep_24_1812,
3C.wav,1,3,23,273,S,,,,,0,80,80,80,,,None,,pu,3,blast_a_022,61.0810000015,1C,auditory,2018_Sep_24_1812,
1A.wav,2,1,23,274,S,,,,,0,81,81,81,,,None,,pu,3,blast_a_022,61.0810000015,1C,auditory,2018_Sep_24_1812,
1B.wav,2,2,23,275,S,,,,,0,82,82,82,,,None,,pu,3,blast_a_022,61.0810000015,1C,auditory,2018_Sep_24_1812,
1C.wav,2,3,23,276,S,,,,,0,83,83,83,,,4,0.308497190475,pu,3,blast_a_022,61.0810000015,1C,auditory,2018_Sep_24_1812,
4A.wav,3,1,24,277,S,,,,,0,84,84,84,,,4,0.421001911163,pu,3,blast_a_022,61.0810000015,1C,auditory,2018_Sep_24_1812,
4B.wav,3,2,24,278,S,,,,,0,85,85,85,,,None,,pu,3,blast_a_022,61.0810000015,1C,auditory,2018_Sep_24_1812,
4C.wav,3,3,24,279,S,,,,,0,86,86,86,,,None,,pu,3,blast_a_022,61.0810000015,1C,auditory,2018_Sep_24_1812,
2A.wav,4,1,24,280,S,,,,,0,87,87,87,,,None,,pu,3,blast_a_022,61.0810000015,1C,auditory,2018_Sep_24_1812,
2B.wav,4,2,24,281,S,,,,,0,88,88,88,,,4,0.355025053024,pu,3,blast_a_022,61.0810000015,1C,auditory,2018_Sep_24_1812,
2C.wav,4,3,24,282,S,,,,,0,89,89,89,,,None,,pu,3,blast_a_022,61.0810000015,1C,auditory,2018_Sep_24_1812,
3A.wav,1,1,24,283,S,,,,,0,90,90,90,,,4,0.318764925003,pu,3,blast_a_022,61.0810000015,1C,auditory,2018_Sep_24_1812,
3B.wav,1,2,24,284,S,,,,,0,91,91,91,,,None,,pu,3,blast_a_022,61.0810000015,1C,auditory,2018_Sep_24_1812,
3C.wav,1,3,24,285,S,,,,,0,92,92,92,,,None,,pu,3,blast_a_022,61.0810000015,1C,auditory,2018_Sep_24_1812,
1A.wav,2,1,24,286,S,,,,,0,93,93,93,,,4,0.00623917579651,pu,3,blast_a_022,61.0810000015,1C,auditory,2018_Sep_24_1812,
1B.wav,2,2,24,287,S,,,,,0,94,94,94,,,4,0.221068143845,pu,3,blast_a_022,61.0810000015,1C,auditory,2018_Sep_24_1812,
1C.wav,2,3,24,288,S,,,,,0,95,95,95,,,None,,pu,3,blast_a_022,61.0810000015,1C,auditory,2018_Sep_24_1812,
silence.wav,0,0,0,0,B,,,,,0,96,96,96,,,None,,pu,3,blast_a_022,61.0810000015,1C,auditory,2018_Sep_24_1812,
silence.wav,0,0,0,0,B,,,,,0,97,97,97,,,None,,pu,3,blast_a_022,61.0810000015,1C,auditory,2018_Sep_24_1812,
silence.wav,0,0,0,0,B,,,,,0,98,98,98,,,None,,pu,3,blast_a_022,61.0810000015,1C,auditory,2018_Sep_24_1812,
silence.wav,0,0,0,0,B,,,,,0,99,99,99,,,None,,pu,3,blast_a_022,61.0810000015,1C,auditory,2018_Sep_24_1812,
silence.wav,0,0,0,0,B,,,,,0,100,100,100,,,None,,pu,3,blast_a_022,61.0810000015,1C,auditory,2018_Sep_24_1812,
silence.wav,0,0,0,0,B,,,,,0,101,101,101,,,None,,pu,3,blast_a_022,61.0810000015,1C,auditory,2018_Sep_24_1812,
silence.wav,0,0,0,0,B,,,,,0,102,102,102,,,None,,pu,3,blast_a_022,61.0810000015,1C,auditory,2018_Sep_24_1812,
silence.wav,0,0,0,0,B,,,,,0,103,103,103,,,None,,pu,3,blast_a_022,61.0810000015,1C,auditory,2018_Sep_24_1812,
silence.wav,0,0,0,0,B,,,,,0,104,104,104,,,None,,pu,3,blast_a_022,61.0810000015,1C,auditory,2018_Sep_24_1812,
silence.wav,0,0,0,0,B,,,,,0,105,105,105,,,None,,pu,3,blast_a_022,61.0810000015,1C,auditory,2018_Sep_24_1812,
silence.wav,0,0,0,0,B,,,,,0,106,106,106,,,None,,pu,3,blast_a_022,61.0810000015,1C,auditory,2018_Sep_24_1812,
silence.wav,0,0,0,0,B,,,,,0,107,107,107,,,None,,pu,3,blast_a_022,61.0810000015,1C,auditory,2018_Sep_24_1812,
silence.wav,0,0,0,0,B,,,,,0,108,108,108,,,None,,pu,3,blast_a_022,61.0810000015,1C,auditory,2018_Sep_24_1812,
silence.wav,0,0,0,0,B,,,,,0,109,109,109,,,None,,pu,3,blast_a_022,61.0810000015,1C,auditory,2018_Sep_24_1812,
silence.wav,0,0,0,0,B,,,,,0,110,110,110,,,None,,pu,3,blast_a_022,61.0810000015,1C,auditory,2018_Sep_24_1812,
silence.wav,0,0,0,0,B,,,,,0,111,111,111,,,None,,pu,3,blast_a_022,61.0810000015,1C,auditory,2018_Sep_24_1812,
silence.wav,0,0,0,0,B,,,,,0,112,112,112,,,None,,pu,3,blast_a_022,61.0810000015,1C,auditory,2018_Sep_24_1812,
silence.wav,0,0,0,0,B,,,,,0,113,113,113,,,None,,pu,3,blast_a_022,61.0810000015,1C,auditory,2018_Sep_24_1812,
silence.wav,0,0,0,0,B,,,,,0,114,114,114,,,None,,pu,3,blast_a_022,61.0810000015,1C,auditory,2018_Sep_24_1812,
silence.wav,0,0,0,0,B,,,,,0,115,115,115,,,None,,pu,3,blast_a_022,61.0810000015,1C,auditory,2018_Sep_24_1812,
silence.wav,0,0,0,0,B,,,,,0,116,116,116,,,None,,pu,3,blast_a_022,61.0810000015,1C,auditory,2018_Sep_24_1812,
silence.wav,0,0,0,0,B,,,,,0,117,117,117,,,None,,pu,3,blast_a_022,61.0810000015,1C,auditory,2018_Sep_24_1812,
silence.wav,0,0,0,0,B,,,,,0,118,118,118,,,None,,pu,3,blast_a_022,61.0810000015,1C,auditory,2018_Sep_24_1812,
silence.wav,0,0,0,0,B,,,,,0,119,119,119,,,None,,pu,3,blast_a_022,61.0810000015,1C,auditory,2018_Sep_24_1812,
silence.wav,0,0,0,0,B,,,,,0,120,120,120,,,None,,pu,3,blast_a_022,61.0810000015,1C,auditory,2018_Sep_24_1812,
silence.wav,0,0,0,0,B,,,,,0,121,121,121,,,None,,pu,3,blast_a_022,61.0810000015,1C,auditory,2018_Sep_24_1812,
silence.wav,0,0,0,0,B,,,,,0,122,122,122,,,None,,pu,3,blast_a_022,61.0810000015,1C,auditory,2018_Sep_24_1812,
silence.wav,0,0,0,0,B,,,,,0,123,123,123,,,None,,pu,3,blast_a_022,61.0810000015,1C,auditory,2018_Sep_24_1812,
silence.wav,0,0,0,0,B,,,,,0,124,124,124,,,None,,pu,3,blast_a_022,61.0810000015,1C,auditory,2018_Sep_24_1812,
