"","image","trialnum","condition","l_block_trial_key_resp.keys","l_block_trial_key_resp.rt","v_block_trial_key_resp.keys","v_block_trial_key_resp.rt","vtarget","Run","PartID","ltarget","expName"
"1","Alien4.bmp",379,"S","",NA,"None",NA,6,6,"f001","H","visual"
"2","Alien5.bmp",380,"S","",NA,"None",NA,6,6,"f001","H","visual"
"3","Alien6.bmp",381,"S","",NA,"3",0.283967838157,6,6,"f001","H","visual"
"4","Alien4.bmp",385,"S","",NA,"None",NA,6,6,"f001","H","visual"
"5","Alien5.bmp",386,"S","",NA,"None",NA,6,6,"f001","H","visual"
"6","Alien6.bmp",387,"S","",NA,"3",0.0837733922526,6,6,"f001","H","visual"
"7","Alien7.bmp",391,"S","",NA,"None",NA,6,6,"f001","H","visual"
"8","Alien8.bmp",392,"S","",NA,"None",NA,6,6,"f001","H","visual"
"9","Alien9.bmp",393,"S","",NA,"None",NA,6,6,"f001","H","visual"
"10","Alien10.bmp",394,"S","",NA,"None",NA,6,6,"f001","H","visual"
"11","Alien11.bmp",395,"S","",NA,"None",NA,6,6,"f001","H","visual"
"12","Alien12.bmp",396,"S","",NA,"None",NA,6,6,"f001","H","visual"
"13","Alien1.bmp",397,"S","",NA,"None",NA,6,6,"f001","H","visual"
"14","Alien2.bmp",398,"S","",NA,"None",NA,6,6,"f001","H","visual"
"15","Alien3.bmp",399,"S","",NA,"None",NA,6,6,"f001","H","visual"
"16","Alien4.bmp",400,"S","",NA,"None",NA,6,6,"f001","H","visual"
"17","Alien5.bmp",401,"S","",NA,"None",NA,6,6,"f001","H","visual"
"18","Alien6.bmp",402,"S","",NA,"3",0.00873158639297,6,6,"f001","H","visual"
"19","Alien10.bmp",403,"S","",NA,"None",NA,6,6,"f001","H","visual"
"20","Alien11.bmp",404,"S","",NA,"None",NA,6,6,"f001","H","visual"
"21","Alien12.bmp",405,"S","",NA,"None",NA,6,6,"f001","H","visual"
"22","Alien7.bmp",406,"S","",NA,"None",NA,6,6,"f001","H","visual"
"23","Alien8.bmp",407,"S","",NA,"None",NA,6,6,"f001","H","visual"
"24","Alien9.bmp",408,"S","",NA,"None",NA,6,6,"f001","H","visual"
"25","Alien1.bmp",409,"S","",NA,"None",NA,6,6,"f001","H","visual"
"26","Alien2.bmp",410,"S","",NA,"None",NA,6,6,"f001","H","visual"
"27","Alien3.bmp",411,"S","",NA,"None",NA,6,6,"f001","H","visual"
"28","Alien4.bmp",412,"S","",NA,"None",NA,6,6,"f001","H","visual"
"29","Alien5.bmp",413,"S","",NA,"None",NA,6,6,"f001","H","visual"
"30","Alien6.bmp",414,"S","",NA,"3",0.100074040703,6,6,"f001","H","visual"
"31","Alien1.bmp",415,"S","",NA,"None",NA,6,6,"f001","H","visual"
"32","Alien2.bmp",416,"S","",NA,"None",NA,6,6,"f001","H","visual"
"33","Alien3.bmp",417,"S","",NA,"None",NA,6,6,"f001","H","visual"
"34","Alien7.bmp",418,"S","",NA,"None",NA,6,6,"f001","H","visual"
"35","Alien8.bmp",419,"S","",NA,"None",NA,6,6,"f001","H","visual"
"36","Alien9.bmp",420,"S","",NA,"None",NA,6,6,"f001","H","visual"
"37","Alien10.bmp",421,"S","",NA,"None",NA,6,6,"f001","H","visual"
"38","Alien11.bmp",422,"S","",NA,"None",NA,6,6,"f001","H","visual"
"39","Alien12.bmp",423,"S","",NA,"None",NA,6,6,"f001","H","visual"
"40","Alien7.bmp",424,"S","",NA,"None",NA,6,6,"f001","H","visual"
"41","Alien8.bmp",425,"S","",NA,"None",NA,6,6,"f001","H","visual"
"42","Alien9.bmp",426,"S","",NA,"None",NA,6,6,"f001","H","visual"
"43","Alien10.bmp",427,"S","",NA,"None",NA,6,6,"f001","H","visual"
"44","Alien11.bmp",428,"S","",NA,"None",NA,6,6,"f001","H","visual"
"45","Alien12.bmp",429,"S","",NA,"None",NA,6,6,"f001","H","visual"
"46","Alien1.bmp",430,"S","",NA,"None",NA,6,6,"f001","H","visual"
"47","Alien2.bmp",431,"S","",NA,"None",NA,6,6,"f001","H","visual"
"48","Alien3.bmp",432,"S","",NA,"None",NA,6,6,"f001","H","visual"
"49","blank.png",0,"B","",NA,"None",NA,6,6,"f001","H","visual"
"50","blank.png",0,"B","",NA,"None",NA,6,6,"f001","H","visual"
"51","blank.png",0,"B","",NA,"None",NA,6,6,"f001","H","visual"
"52","blank.png",0,"B","",NA,"None",NA,6,6,"f001","H","visual"
"53","blank.png",0,"B","",NA,"None",NA,6,6,"f001","H","visual"
"54","blank.png",0,"B","",NA,"None",NA,6,6,"f001","H","visual"
"55","blank.png",0,"B","",NA,"None",NA,6,6,"f001","H","visual"
"56","blank.png",0,"B","",NA,"None",NA,6,6,"f001","H","visual"
"57","blank.png",0,"B","",NA,"None",NA,6,6,"f001","H","visual"
"58","blank.png",0,"B","",NA,"None",NA,6,6,"f001","H","visual"
"59","blank.png",0,"B","",NA,"None",NA,6,6,"f001","H","visual"
"60","blank.png",0,"B","",NA,"None",NA,6,6,"f001","H","visual"
"61","K.png",385,"R","None",NA,"",NA,6,6,"f001","H","visual"
"62","E.png",386,"R","None",NA,"",NA,6,6,"f001","H","visual"
"63","B.png",387,"R","None",NA,"",NA,6,6,"f001","H","visual"
"64","B.png",388,"R","None",NA,"",NA,6,6,"f001","H","visual"
"65","D.png",389,"R","None",NA,"",NA,6,6,"f001","H","visual"
"66","B.png",390,"R","None",NA,"",NA,6,6,"f001","H","visual"
"67","G.png",391,"R","None",NA,"",NA,6,6,"f001","H","visual"
"68","K.png",392,"R","None",NA,"",NA,6,6,"f001","H","visual"
"69","D.png",393,"R","None",NA,"",NA,6,6,"f001","H","visual"
"70","L.png",394,"R","None",NA,"",NA,6,6,"f001","H","visual"
"71","L.png",395,"R","None",NA,"",NA,6,6,"f001","H","visual"
"72","G.png",396,"R","None",NA,"",NA,6,6,"f001","H","visual"
"73","E.png",397,"R","None",NA,"",NA,6,6,"f001","H","visual"
"74","M.png",398,"R","None",NA,"",NA,6,6,"f001","H","visual"
"75","K.png",399,"R","None",NA,"",NA,6,6,"f001","H","visual"
"76","C.png",400,"R","None",NA,"",NA,6,6,"f001","H","visual"
"77","A.png",401,"R","None",NA,"",NA,6,6,"f001","H","visual"
"78","F.png",402,"R","None",NA,"",NA,6,6,"f001","H","visual"
"79","J.png",403,"R","None",NA,"",NA,6,6,"f001","H","visual"
"80","M.png",404,"R","None",NA,"",NA,6,6,"f001","H","visual"
"81","C.png",405,"R","None",NA,"",NA,6,6,"f001","H","visual"
"82","H.png",406,"R","3",0.342030880973,"",NA,6,6,"f001","H","visual"
"83","M.png",407,"R","None",NA,"",NA,6,6,"f001","H","visual"
"84","H.png",408,"R","3",0.550287615974,"",NA,6,6,"f001","H","visual"
"85","blank.png",0,"B","",NA,"",NA,6,6,"f001","H","visual"
"86","blank.png",0,"B","",NA,"",NA,6,6,"f001","H","visual"
"87","blank.png",0,"B","",NA,"",NA,6,6,"f001","H","visual"
"88","blank.png",0,"B","",NA,"",NA,6,6,"f001","H","visual"
"89","blank.png",0,"B","",NA,"",NA,6,6,"f001","H","visual"
"90","blank.png",0,"B","",NA,"",NA,6,6,"f001","H","visual"
"91","blank.png",0,"B","",NA,"",NA,6,6,"f001","H","visual"
"92","blank.png",0,"B","",NA,"",NA,6,6,"f001","H","visual"
"93","blank.png",0,"B","",NA,"",NA,6,6,"f001","H","visual"
"94","blank.png",0,"B","",NA,"",NA,6,6,"f001","H","visual"
"95","blank.png",0,"B","",NA,"",NA,6,6,"f001","H","visual"
"96","blank.png",0,"B","",NA,"",NA,6,6,"f001","H","visual"
"97","A.png",433,"R","None",NA,"",NA,6,6,"f001","H","visual"
"98","E.png",434,"R","None",NA,"",NA,6,6,"f001","H","visual"
"99","E.png",435,"R","None",NA,"",NA,6,6,"f001","H","visual"
"100","B.png",436,"R","None",NA,"",NA,6,6,"f001","H","visual"
"101","C.png",437,"R","None",NA,"",NA,6,6,"f001","H","visual"
"102","J.png",438,"R","None",NA,"",NA,6,6,"f001","H","visual"
"103","M.png",439,"R","None",NA,"",NA,6,6,"f001","H","visual"
"104","G.png",440,"R","None",NA,"",NA,6,6,"f001","H","visual"
"105","A.png",441,"R","None",NA,"",NA,6,6,"f001","H","visual"
"106","M.png",442,"R","None",NA,"",NA,6,6,"f001","H","visual"
"107","M.png",443,"R","None",NA,"",NA,6,6,"f001","H","visual"
"108","H.png",444,"R","3",0.367091275286,"",NA,6,6,"f001","H","visual"
"109","K.png",445,"R","None",NA,"",NA,6,6,"f001","H","visual"
"110","B.png",446,"R","None",NA,"",NA,6,6,"f001","H","visual"
"111","J.png",447,"R","None",NA,"",NA,6,6,"f001","H","visual"
"112","F.png",448,"R","None",NA,"",NA,6,6,"f001","H","visual"
"113","F.png",449,"R","None",NA,"",NA,6,6,"f001","H","visual"
"114","H.png",450,"R","3",0.492070120294,"",NA,6,6,"f001","H","visual"
"115","L.png",451,"R","None",NA,"",NA,6,6,"f001","H","visual"
"116","K.png",452,"R","None",NA,"",NA,6,6,"f001","H","visual"
"117","L.png",453,"R","None",NA,"",NA,6,6,"f001","H","visual"
"118","D.png",454,"R","None",NA,"",NA,6,6,"f001","H","visual"
"119","K.png",455,"R","None",NA,"",NA,6,6,"f001","H","visual"
"120","B.png",456,"R","None",NA,"",NA,6,6,"f001","H","visual"
"121","C.png",409,"R","None",NA,"",NA,6,6,"f001","H","visual"
"122","L.png",410,"R","None",NA,"",NA,6,6,"f001","H","visual"
"123","A.png",411,"R","None",NA,"",NA,6,6,"f001","H","visual"
"124","G.png",412,"R","None",NA,"",NA,6,6,"f001","H","visual"
"125","H.png",413,"R","3",0.317021971103,"",NA,6,6,"f001","H","visual"
"126","A.png",414,"R","None",NA,"",NA,6,6,"f001","H","visual"
"127","F.png",415,"R","None",NA,"",NA,6,6,"f001","H","visual"
"128","K.png",416,"R","None",NA,"",NA,6,6,"f001","H","visual"
"129","E.png",417,"R","None",NA,"",NA,6,6,"f001","H","visual"
"130","J.png",418,"R","None",NA,"",NA,6,6,"f001","H","visual"
"131","C.png",419,"R","None",NA,"",NA,6,6,"f001","H","visual"
"132","D.png",420,"R","None",NA,"",NA,6,6,"f001","H","visual"
"133","B.png",421,"R","None",NA,"",NA,6,6,"f001","H","visual"
"134","H.png",422,"R","3",0.392116399016,"",NA,6,6,"f001","H","visual"
"135","L.png",423,"R","None",NA,"",NA,6,6,"f001","H","visual"
"136","G.png",424,"R","None",NA,"",NA,6,6,"f001","H","visual"
"137","F.png",425,"R","None",NA,"",NA,6,6,"f001","H","visual"
"138","J.png",426,"R","None",NA,"",NA,6,6,"f001","H","visual"
"139","A.png",427,"R","None",NA,"",NA,6,6,"f001","H","visual"
"140","F.png",428,"R","None",NA,"",NA,6,6,"f001","H","visual"
"141","M.png",429,"R","None",NA,"",NA,6,6,"f001","H","visual"
"142","D.png",430,"R","None",NA,"",NA,6,6,"f001","H","visual"
"143","E.png",431,"R","None",NA,"",NA,6,6,"f001","H","visual"
"144","J.png",432,"R","None",NA,"",NA,6,6,"f001","H","visual"
"145","blank.png",0,"B","",NA,"",NA,6,6,"f001","H","visual"
"146","blank.png",0,"B","",NA,"",NA,6,6,"f001","H","visual"
"147","blank.png",0,"B","",NA,"",NA,6,6,"f001","H","visual"
"148","blank.png",0,"B","",NA,"",NA,6,6,"f001","H","visual"
"149","blank.png",0,"B","",NA,"",NA,6,6,"f001","H","visual"
"150","blank.png",0,"B","",NA,"",NA,6,6,"f001","H","visual"
"151","blank.png",0,"B","",NA,"",NA,6,6,"f001","H","visual"
"152","blank.png",0,"B","",NA,"",NA,6,6,"f001","H","visual"
"153","blank.png",0,"B","",NA,"",NA,6,6,"f001","H","visual"
"154","blank.png",0,"B","",NA,"",NA,6,6,"f001","H","visual"
"155","blank.png",0,"B","",NA,"",NA,6,6,"f001","H","visual"
"156","blank.png",0,"B","",NA,"",NA,6,6,"f001","H","visual"
"157","A.png",433,"R","None",NA,"",NA,6,6,"f001","H","visual"
"158","E.png",434,"R","None",NA,"",NA,6,6,"f001","H","visual"
"159","E.png",435,"R","None",NA,"",NA,6,6,"f001","H","visual"
"160","B.png",436,"R","None",NA,"",NA,6,6,"f001","H","visual"
"161","C.png",437,"R","None",NA,"",NA,6,6,"f001","H","visual"
"162","J.png",438,"R","None",NA,"",NA,6,6,"f001","H","visual"
"163","M.png",439,"R","None",NA,"",NA,6,6,"f001","H","visual"
"164","G.png",440,"R","None",NA,"",NA,6,6,"f001","H","visual"
"165","A.png",441,"R","None",NA,"",NA,6,6,"f001","H","visual"
"166","M.png",442,"R","None",NA,"",NA,6,6,"f001","H","visual"
"167","M.png",443,"R","None",NA,"",NA,6,6,"f001","H","visual"
"168","H.png",444,"R","3",0.633699763566,"",NA,6,6,"f001","H","visual"
"169","K.png",445,"R","None",NA,"",NA,6,6,"f001","H","visual"
"170","B.png",446,"R","None",NA,"",NA,6,6,"f001","H","visual"
"171","J.png",447,"R","None",NA,"",NA,6,6,"f001","H","visual"
"172","F.png",448,"R","None",NA,"",NA,6,6,"f001","H","visual"
"173","F.png",449,"R","None",NA,"",NA,6,6,"f001","H","visual"
"174","H.png",450,"R","3",0.583768698853,"",NA,6,6,"f001","H","visual"
"175","L.png",451,"R","None",NA,"",NA,6,6,"f001","H","visual"
"176","K.png",452,"R","None",NA,"",NA,6,6,"f001","H","visual"
"177","L.png",453,"R","None",NA,"",NA,6,6,"f001","H","visual"
"178","D.png",454,"R","None",NA,"",NA,6,6,"f001","H","visual"
"179","K.png",455,"R","None",NA,"",NA,6,6,"f001","H","visual"
"180","B.png",456,"R","None",NA,"",NA,6,6,"f001","H","visual"
"181","blank.png",0,"B","",NA,"",NA,6,6,"f001","H","visual"
"182","blank.png",0,"B","",NA,"",NA,6,6,"f001","H","visual"
"183","blank.png",0,"B","",NA,"",NA,6,6,"f001","H","visual"
"184","blank.png",0,"B","",NA,"",NA,6,6,"f001","H","visual"
"185","blank.png",0,"B","",NA,"",NA,6,6,"f001","H","visual"
"186","blank.png",0,"B","",NA,"",NA,6,6,"f001","H","visual"
"187","blank.png",0,"B","",NA,"",NA,6,6,"f001","H","visual"
"188","blank.png",0,"B","",NA,"",NA,6,6,"f001","H","visual"
"189","blank.png",0,"B","",NA,"",NA,6,6,"f001","H","visual"
"190","blank.png",0,"B","",NA,"",NA,6,6,"f001","H","visual"
"191","blank.png",0,"B","",NA,"",NA,6,6,"f001","H","visual"
"192","blank.png",0,"B","",NA,"",NA,6,6,"f001","H","visual"
"193","Alien4.bmp",433,"S","",NA,"None",NA,6,6,"f001","H","visual"
"194","Alien5.bmp",434,"S","",NA,"None",NA,6,6,"f001","H","visual"
"195","Alien6.bmp",435,"S","",NA,"3",0.0336702386849,6,6,"f001","H","visual"
"196","Alien10.bmp",436,"S","",NA,"None",NA,6,6,"f001","H","visual"
"197","Alien11.bmp",437,"S","",NA,"None",NA,6,6,"f001","H","visual"
"198","Alien12.bmp",438,"S","",NA,"None",NA,6,6,"f001","H","visual"
"199","Alien4.bmp",439,"S","",NA,"None",NA,6,6,"f001","H","visual"
"200","Alien5.bmp",440,"S","",NA,"None",NA,6,6,"f001","H","visual"
"201","Alien6.bmp",441,"S","",NA,"3",0.0170635282993,6,6,"f001","H","visual"
"202","Alien7.bmp",442,"S","",NA,"None",NA,6,6,"f001","H","visual"
"203","Alien8.bmp",443,"S","",NA,"None",NA,6,6,"f001","H","visual"
"204","Alien9.bmp",444,"S","",NA,"None",NA,6,6,"f001","H","visual"
"205","Alien1.bmp",445,"S","",NA,"None",NA,6,6,"f001","H","visual"
"206","Alien2.bmp",446,"S","",NA,"None",NA,6,6,"f001","H","visual"
"207","Alien3.bmp",447,"S","",NA,"None",NA,6,6,"f001","H","visual"
"208","Alien4.bmp",448,"S","",NA,"None",NA,6,6,"f001","H","visual"
"209","Alien5.bmp",449,"S","",NA,"None",NA,6,6,"f001","H","visual"
"210","Alien6.bmp",450,"S","",NA,"3",0.0753709082492,6,6,"f001","H","visual"
"211","Alien7.bmp",451,"S","",NA,"None",NA,6,6,"f001","H","visual"
"212","Alien8.bmp",452,"S","",NA,"None",NA,6,6,"f001","H","visual"
"213","Alien9.bmp",453,"S","",NA,"None",NA,6,6,"f001","H","visual"
"214","Alien1.bmp",454,"S","",NA,"None",NA,6,6,"f001","H","visual"
"215","Alien2.bmp",455,"S","",NA,"None",NA,6,6,"f001","H","visual"
"216","Alien3.bmp",456,"S","",NA,"None",NA,6,6,"f001","H","visual"
"217","blank.png",0,"B","",NA,"None",NA,6,6,"f001","H","visual"
"218","blank.png",0,"B","",NA,"None",NA,6,6,"f001","H","visual"
"219","blank.png",0,"B","",NA,"None",NA,6,6,"f001","H","visual"
"220","blank.png",0,"B","",NA,"None",NA,6,6,"f001","H","visual"
"221","blank.png",0,"B","",NA,"None",NA,6,6,"f001","H","visual"
"222","blank.png",0,"B","",NA,"None",NA,6,6,"f001","H","visual"
"223","blank.png",0,"B","",NA,"None",NA,6,6,"f001","H","visual"
"224","blank.png",0,"B","",NA,"None",NA,6,6,"f001","H","visual"
"225","blank.png",0,"B","",NA,"None",NA,6,6,"f001","H","visual"
"226","blank.png",0,"B","",NA,"None",NA,6,6,"f001","H","visual"
"227","blank.png",0,"B","",NA,"None",NA,6,6,"f001","H","visual"
"228","blank.png",0,"B","",NA,"None",NA,6,6,"f001","H","visual"
"229","Alien10.bmp",457,"S","",NA,"None",NA,6,6,"f001","H","visual"
"230","Alien11.bmp",458,"S","",NA,"None",NA,6,6,"f001","H","visual"
"231","Alien12.bmp",459,"S","",NA,"None",NA,6,6,"f001","H","visual"
"232","Alien1.bmp",460,"S","",NA,"None",NA,6,6,"f001","H","visual"
"233","Alien2.bmp",461,"S","",NA,"None",NA,6,6,"f001","H","visual"
"234","Alien3.bmp",462,"S","",NA,"None",NA,6,6,"f001","H","visual"
"235","Alien4.bmp",463,"S","",NA,"None",NA,6,6,"f001","H","visual"
"236","Alien5.bmp",464,"S","",NA,"3",0.900461283512,6,6,"f001","H","visual"
"237","Alien6.bmp",465,"S","",NA,"None",NA,6,6,"f001","H","visual"
"238","Alien10.bmp",466,"S","",NA,"None",NA,6,6,"f001","H","visual"
"239","Alien11.bmp",467,"S","",NA,"None",NA,6,6,"f001","H","visual"
"240","Alien12.bmp",468,"S","",NA,"None",NA,6,6,"f001","H","visual"
"241","Alien7.bmp",469,"S","",NA,"None",NA,6,6,"f001","H","visual"
"242","Alien8.bmp",470,"S","",NA,"None",NA,6,6,"f001","H","visual"
"243","Alien9.bmp",471,"S","",NA,"None",NA,6,6,"f001","H","visual"
"244","Alien10.bmp",472,"S","",NA,"None",NA,6,6,"f001","H","visual"
"245","Alien11.bmp",473,"S","",NA,"None",NA,6,6,"f001","H","visual"
"246","Alien12.bmp",474,"S","",NA,"None",NA,6,6,"f001","H","visual"
"247","Alien1.bmp",475,"S","",NA,"None",NA,6,6,"f001","H","visual"
"248","Alien2.bmp",476,"S","",NA,"None",NA,6,6,"f001","H","visual"
"249","Alien3.bmp",477,"S","",NA,"None",NA,6,6,"f001","H","visual"
"250","Alien7.bmp",478,"S","",NA,"None",NA,6,6,"f001","H","visual"
"251","Alien8.bmp",479,"S","",NA,"None",NA,6,6,"f001","H","visual"
"252","Alien9.bmp",480,"S","",NA,"None",NA,6,6,"f001","H","visual"
"253","Alien4.bmp",481,"S","",NA,"None",NA,6,6,"f001","H","visual"
"254","Alien5.bmp",482,"S","",NA,"None",NA,6,6,"f001","H","visual"
"255","Alien6.bmp",483,"S","",NA,"3",0.100360476412,6,6,"f001","H","visual"
"256","Alien7.bmp",484,"S","",NA,"None",NA,6,6,"f001","H","visual"
"257","Alien8.bmp",485,"S","",NA,"None",NA,6,6,"f001","H","visual"
"258","Alien9.bmp",486,"S","",NA,"None",NA,6,6,"f001","H","visual"
"259","Alien1.bmp",487,"S","",NA,"None",NA,6,6,"f001","H","visual"
"260","Alien2.bmp",488,"S","",NA,"None",NA,6,6,"f001","H","visual"
"261","Alien3.bmp",489,"S","",NA,"None",NA,6,6,"f001","H","visual"
"262","Alien10.bmp",490,"S","",NA,"None",NA,6,6,"f001","H","visual"
"263","Alien11.bmp",491,"S","",NA,"None",NA,6,6,"f001","H","visual"
"264","Alien12.bmp",492,"S","",NA,"None",NA,6,6,"f001","H","visual"
"265","Alien7.bmp",493,"S","",NA,"None",NA,6,6,"f001","H","visual"
"266","Alien8.bmp",494,"S","",NA,"None",NA,6,6,"f001","H","visual"
"267","Alien9.bmp",495,"S","",NA,"None",NA,6,6,"f001","H","visual"
"268","Alien4.bmp",496,"S","",NA,"None",NA,6,6,"f001","H","visual"
"269","Alien5.bmp",497,"S","",NA,"3",0.950450659264,6,6,"f001","H","visual"
"270","Alien6.bmp",498,"S","",NA,"None",NA,6,6,"f001","H","visual"
"271","Alien1.bmp",499,"S","",NA,"None",NA,6,6,"f001","H","visual"
"272","Alien2.bmp",500,"S","",NA,"None",NA,6,6,"f001","H","visual"
"273","Alien3.bmp",501,"S","",NA,"None",NA,6,6,"f001","H","visual"
"274","Alien10.bmp",502,"S","",NA,"None",NA,6,6,"f001","H","visual"
"275","Alien11.bmp",503,"S","",NA,"None",NA,6,6,"f001","H","visual"
"276","Alien12.bmp",504,"S","",NA,"None",NA,6,6,"f001","H","visual"
"277","blank.png",0,"B","",NA,"None",NA,6,6,"f001","H","visual"
"278","blank.png",0,"B","",NA,"None",NA,6,6,"f001","H","visual"
"279","blank.png",0,"B","",NA,"None",NA,6,6,"f001","H","visual"
"280","blank.png",0,"B","",NA,"None",NA,6,6,"f001","H","visual"
"281","blank.png",0,"B","",NA,"None",NA,6,6,"f001","H","visual"
"282","blank.png",0,"B","",NA,"None",NA,6,6,"f001","H","visual"
"283","blank.png",0,"B","",NA,"None",NA,6,6,"f001","H","visual"
"284","blank.png",0,"B","",NA,"None",NA,6,6,"f001","H","visual"
"285","blank.png",0,"B","",NA,"None",NA,6,6,"f001","H","visual"
"286","blank.png",0,"B","",NA,"None",NA,6,6,"f001","H","visual"
"287","blank.png",0,"B","",NA,"None",NA,6,6,"f001","H","visual"
"288","blank.png",0,"B","",NA,"None",NA,6,6,"f001","H","visual"
"289","Alien4.bmp",505,"S","",NA,"None",NA,6,6,"f001","H","visual"
"290","Alien5.bmp",506,"S","",NA,"None",NA,6,6,"f001","H","visual"
"291","Alien6.bmp",507,"S","",NA,"3",0.217089014128,6,6,"f001","H","visual"
"292","Alien10.bmp",508,"S","",NA,"None",NA,6,6,"f001","H","visual"
"293","Alien11.bmp",509,"S","",NA,"None",NA,6,6,"f001","H","visual"
"294","Alien12.bmp",510,"S","",NA,"None",NA,6,6,"f001","H","visual"
"295","Alien7.bmp",511,"S","",NA,"None",NA,6,6,"f001","H","visual"
"296","Alien8.bmp",512,"S","",NA,"None",NA,6,6,"f001","H","visual"
"297","Alien9.bmp",513,"S","",NA,"None",NA,6,6,"f001","H","visual"
"298","Alien1.bmp",514,"S","",NA,"None",NA,6,6,"f001","H","visual"
"299","Alien2.bmp",515,"S","",NA,"None",NA,6,6,"f001","H","visual"
"300","Alien3.bmp",516,"S","",NA,"None",NA,6,6,"f001","H","visual"
"301","Alien7.bmp",517,"S","",NA,"None",NA,6,6,"f001","H","visual"
"302","Alien8.bmp",518,"S","",NA,"None",NA,6,6,"f001","H","visual"
"303","Alien9.bmp",519,"S","",NA,"None",NA,6,6,"f001","H","visual"
"304","Alien10.bmp",520,"S","",NA,"None",NA,6,6,"f001","H","visual"
"305","Alien11.bmp",521,"S","",NA,"None",NA,6,6,"f001","H","visual"
"306","Alien12.bmp",522,"S","",NA,"None",NA,6,6,"f001","H","visual"
"307","Alien4.bmp",523,"S","",NA,"None",NA,6,6,"f001","H","visual"
"308","Alien5.bmp",524,"S","",NA,"None",NA,6,6,"f001","H","visual"
"309","Alien6.bmp",525,"S","",NA,"3",0.183617886622,6,6,"f001","H","visual"
"310","Alien1.bmp",526,"S","",NA,"None",NA,6,6,"f001","H","visual"
"311","Alien2.bmp",527,"S","",NA,"None",NA,6,6,"f001","H","visual"
"312","Alien3.bmp",528,"S","",NA,"None",NA,6,6,"f001","H","visual"
"313","D.png",457,"R","None",NA,"",NA,6,6,"f001","H","visual"
"314","A.png",458,"R","None",NA,"",NA,6,6,"f001","H","visual"
"315","F.png",459,"R","None",NA,"",NA,6,6,"f001","H","visual"
"316","G.png",460,"R","None",NA,"",NA,6,6,"f001","H","visual"
"317","H.png",461,"R","3",0.400279949885,"",NA,6,6,"f001","H","visual"
"318","B.png",462,"R","None",NA,"",NA,6,6,"f001","H","visual"
"319","K.png",463,"R","None",NA,"",NA,6,6,"f001","H","visual"
"320","C.png",464,"R","None",NA,"",NA,6,6,"f001","H","visual"
"321","J.png",465,"R","None",NA,"",NA,6,6,"f001","H","visual"
"322","C.png",466,"R","None",NA,"",NA,6,6,"f001","H","visual"
"323","A.png",467,"R","None",NA,"",NA,6,6,"f001","H","visual"
"324","H.png",468,"R","3",0.383962234948,"",NA,6,6,"f001","H","visual"
"325","J.png",469,"R","None",NA,"",NA,6,6,"f001","H","visual"
"326","G.png",470,"R","None",NA,"",NA,6,6,"f001","H","visual"
"327","G.png",471,"R","None",NA,"",NA,6,6,"f001","H","visual"
"328","F.png",472,"R","None",NA,"",NA,6,6,"f001","H","visual"
"329","C.png",473,"R","None",NA,"",NA,6,6,"f001","H","visual"
"330","L.png",474,"R","None",NA,"",NA,6,6,"f001","H","visual"
"331","M.png",475,"R","None",NA,"",NA,6,6,"f001","H","visual"
"332","L.png",476,"R","None",NA,"",NA,6,6,"f001","H","visual"
"333","D.png",477,"R","None",NA,"",NA,6,6,"f001","H","visual"
"334","D.png",478,"R","None",NA,"",NA,6,6,"f001","H","visual"
"335","E.png",479,"R","None",NA,"",NA,6,6,"f001","H","visual"
"336","E.png",480,"R","None",NA,"",NA,6,6,"f001","H","visual"
"337","blank.png",0,"B","",NA,"",NA,6,6,"f001","H","visual"
"338","blank.png",0,"B","",NA,"",NA,6,6,"f001","H","visual"
"339","blank.png",0,"B","",NA,"",NA,6,6,"f001","H","visual"
"340","blank.png",0,"B","",NA,"",NA,6,6,"f001","H","visual"
"341","blank.png",0,"B","",NA,"",NA,6,6,"f001","H","visual"
"342","blank.png",0,"B","",NA,"",NA,6,6,"f001","H","visual"
"343","blank.png",0,"B","",NA,"",NA,6,6,"f001","H","visual"
"344","blank.png",0,"B","",NA,"",NA,6,6,"f001","H","visual"
"345","blank.png",0,"B","",NA,"",NA,6,6,"f001","H","visual"
"346","blank.png",0,"B","",NA,"",NA,6,6,"f001","H","visual"
"347","blank.png",0,"B","",NA,"",NA,6,6,"f001","H","visual"
"348","blank.png",0,"B","",NA,"",NA,6,6,"f001","H","visual"
"349","H.png",481,"R","3",0.827976062428,"",NA,6,6,"f001","H","visual"
"350","F.png",482,"R","None",NA,"",NA,6,6,"f001","H","visual"
"351","D.png",483,"R","None",NA,"",NA,6,6,"f001","H","visual"
"352","F.png",484,"R","None",NA,"",NA,6,6,"f001","H","visual"
"353","K.png",485,"R","None",NA,"",NA,6,6,"f001","H","visual"
"354","A.png",486,"R","None",NA,"",NA,6,6,"f001","H","visual"
"355","B.png",487,"R","None",NA,"",NA,6,6,"f001","H","visual"
"356","D.png",488,"R","None",NA,"",NA,6,6,"f001","H","visual"
"357","E.png",489,"R","None",NA,"",NA,6,6,"f001","H","visual"
"358","L.png",490,"R","None",NA,"",NA,6,6,"f001","H","visual"
"359","C.png",491,"R","None",NA,"",NA,6,6,"f001","H","visual"
"360","B.png",492,"R","None",NA,"",NA,6,6,"f001","H","visual"
"361","K.png",493,"R","None",NA,"",NA,6,6,"f001","H","visual"
"362","M.png",494,"R","None",NA,"",NA,6,6,"f001","H","visual"
"363","M.png",495,"R","None",NA,"",NA,6,6,"f001","H","visual"
"364","L.png",496,"R","None",NA,"",NA,6,6,"f001","H","visual"
"365","J.png",497,"R","None",NA,"",NA,6,6,"f001","H","visual"
"366","C.png",498,"R","None",NA,"",NA,6,6,"f001","H","visual"
"367","E.png",499,"R","None",NA,"",NA,6,6,"f001","H","visual"
"368","G.png",500,"R","None",NA,"",NA,6,6,"f001","H","visual"
"369","J.png",501,"R","None",NA,"",NA,6,6,"f001","H","visual"
"370","H.png",502,"R","3",0.375491484068,"",NA,6,6,"f001","H","visual"
"371","G.png",503,"R","None",NA,"",NA,6,6,"f001","H","visual"
"372","A.png",504,"R","None",NA,"",NA,6,6,"f001","H","visual"
"373","blank.png",0,"B","",NA,"",NA,6,6,"f001","H","visual"
"374","blank.png",0,"B","",NA,"",NA,6,6,"f001","H","visual"
"375","blank.png",0,"B","",NA,"",NA,6,6,"f001","H","visual"
"376","blank.png",0,"B","",NA,"",NA,6,6,"f001","H","visual"
"377","blank.png",0,"B","",NA,"",NA,6,6,"f001","H","visual"
"378","blank.png",0,"B","",NA,"",NA,6,6,"f001","H","visual"
"379","blank.png",0,"B","",NA,"",NA,6,6,"f001","H","visual"
"380","blank.png",0,"B","",NA,"",NA,6,6,"f001","H","visual"
"381","blank.png",0,"B","",NA,"",NA,6,6,"f001","H","visual"
"382","blank.png",0,"B","",NA,"",NA,6,6,"f001","H","visual"
"383","blank.png",0,"B","",NA,"",NA,6,6,"f001","H","visual"
"384","blank.png",0,"B","",NA,"",NA,6,6,"f001","H","visual"
"385","E.png",505,"R","None",NA,"",NA,6,6,"f001","H","visual"
"386","J.png",506,"R","None",NA,"",NA,6,6,"f001","H","visual"
"387","F.png",507,"R","None",NA,"",NA,6,6,"f001","H","visual"
"388","D.png",508,"R","None",NA,"",NA,6,6,"f001","H","visual"
"389","H.png",509,"R","3",0.374538595788,"",NA,6,6,"f001","H","visual"
"390","J.png",510,"R","None",NA,"",NA,6,6,"f001","H","visual"
"391","C.png",511,"R","None",NA,"",NA,6,6,"f001","H","visual"
"392","G.png",512,"R","None",NA,"",NA,6,6,"f001","H","visual"
"393","M.png",513,"R","None",NA,"",NA,6,6,"f001","H","visual"
"394","L.png",514,"R","None",NA,"",NA,6,6,"f001","H","visual"
"395","D.png",515,"R","None",NA,"",NA,6,6,"f001","H","visual"
"396","K.png",516,"R","None",NA,"",NA,6,6,"f001","H","visual"
"397","C.png",517,"R","None",NA,"",NA,6,6,"f001","H","visual"
"398","E.png",518,"R","None",NA,"",NA,6,6,"f001","H","visual"
"399","A.png",519,"R","None",NA,"",NA,6,6,"f001","H","visual"
"400","L.png",520,"R","None",NA,"",NA,6,6,"f001","H","visual"
"401","G.png",521,"R","None",NA,"",NA,6,6,"f001","H","visual"
"402","M.png",522,"R","None",NA,"",NA,6,6,"f001","H","visual"
"403","H.png",523,"R","3",0.33375042351,"",NA,6,6,"f001","H","visual"
"404","F.png",524,"R","None",NA,"",NA,6,6,"f001","H","visual"
"405","B.png",525,"R","None",NA,"",NA,6,6,"f001","H","visual"
"406","A.png",526,"R","None",NA,"",NA,6,6,"f001","H","visual"
"407","B.png",527,"R","None",NA,"",NA,6,6,"f001","H","visual"
"408","K.png",528,"R","None",NA,"",NA,6,6,"f001","H","visual"
"409","F.png",529,"R","None",NA,"",NA,6,6,"f001","H","visual"
"410","E.png",530,"R","None",NA,"",NA,6,6,"f001","H","visual"
"411","D.png",531,"R","None",NA,"",NA,6,6,"f001","H","visual"
"412","B.png",532,"R","None",NA,"",NA,6,6,"f001","H","visual"
"413","H.png",533,"R","3",0.333759525791,"",NA,6,6,"f001","H","visual"
"414","G.png",534,"R","None",NA,"",NA,6,6,"f001","H","visual"
"415","H.png",535,"R","3",0.391671813093,"",NA,6,6,"f001","H","visual"
"416","L.png",536,"R","None",NA,"",NA,6,6,"f001","H","visual"
"417","K.png",537,"R","None",NA,"",NA,6,6,"f001","H","visual"
"418","C.png",538,"R","None",NA,"",NA,6,6,"f001","H","visual"
"419","G.png",539,"R","None",NA,"",NA,6,6,"f001","H","visual"
"420","L.png",540,"R","None",NA,"",NA,6,6,"f001","H","visual"
"421","E.png",541,"R","None",NA,"",NA,6,6,"f001","H","visual"
"422","M.png",542,"R","None",NA,"",NA,6,6,"f001","H","visual"
"423","A.png",543,"R","None",NA,"",NA,6,6,"f001","H","visual"
"424","K.png",544,"R","None",NA,"",NA,6,6,"f001","H","visual"
"425","L.png",545,"R","None",NA,"",NA,6,6,"f001","H","visual"
"426","B.png",546,"R","None",NA,"",NA,6,6,"f001","H","visual"
"427","J.png",547,"R","None",NA,"",NA,6,6,"f001","H","visual"
"428","D.png",548,"R","None",NA,"",NA,6,6,"f001","H","visual"
"429","C.png",549,"R","None",NA,"",NA,6,6,"f001","H","visual"
"430","M.png",550,"R","None",NA,"",NA,6,6,"f001","H","visual"
"431","H.png",551,"R","3",0.342138969805,"",NA,6,6,"f001","H","visual"
"432","E.png",552,"R","None",NA,"",NA,6,6,"f001","H","visual"
"433","Alien7.bmp",529,"S","",NA,"None",NA,6,6,"f001","H","visual"
"434","Alien8.bmp",530,"S","",NA,"None",NA,6,6,"f001","H","visual"
"435","Alien9.bmp",531,"S","",NA,"None",NA,6,6,"f001","H","visual"
"436","Alien4.bmp",532,"S","",NA,"None",NA,6,6,"f001","H","visual"
"437","Alien5.bmp",533,"S","",NA,"3",0.933827735484,6,6,"f001","H","visual"
"438","Alien6.bmp",534,"S","",NA,"None",NA,6,6,"f001","H","visual"
"439","Alien10.bmp",535,"S","",NA,"None",NA,6,6,"f001","H","visual"
"440","Alien11.bmp",536,"S","",NA,"None",NA,6,6,"f001","H","visual"
"441","Alien12.bmp",537,"S","",NA,"None",NA,6,6,"f001","H","visual"
"442","Alien7.bmp",538,"S","",NA,"None",NA,6,6,"f001","H","visual"
"443","Alien8.bmp",539,"S","",NA,"None",NA,6,6,"f001","H","visual"
"444","Alien9.bmp",540,"S","",NA,"None",NA,6,6,"f001","H","visual"
"445","Alien4.bmp",541,"S","",NA,"None",NA,6,6,"f001","H","visual"
"446","Alien5.bmp",542,"S","",NA,"3",0.925582549069,6,6,"f001","H","visual"
"447","Alien6.bmp",543,"S","",NA,"None",NA,6,6,"f001","H","visual"
"448","Alien10.bmp",544,"S","",NA,"None",NA,6,6,"f001","H","visual"
"449","Alien11.bmp",545,"S","",NA,"None",NA,6,6,"f001","H","visual"
"450","Alien12.bmp",546,"S","",NA,"None",NA,6,6,"f001","H","visual"
"451","Alien1.bmp",547,"S","",NA,"None",NA,6,6,"f001","H","visual"
"452","Alien2.bmp",548,"S","",NA,"None",NA,6,6,"f001","H","visual"
"453","Alien3.bmp",549,"S","",NA,"None",NA,6,6,"f001","H","visual"
"454","Alien7.bmp",550,"S","",NA,"None",NA,6,6,"f001","H","visual"
"455","Alien8.bmp",551,"S","",NA,"None",NA,6,6,"f001","H","visual"
"456","Alien9.bmp",552,"S","",NA,"None",NA,6,6,"f001","H","visual"
"457","Alien1.bmp",553,"S","",NA,"None",NA,6,6,"f001","H","visual"
"458","Alien2.bmp",554,"S","",NA,"None",NA,6,6,"f001","H","visual"
"459","Alien3.bmp",555,"S","",NA,"None",NA,6,6,"f001","H","visual"
"460","Alien10.bmp",556,"S","",NA,"None",NA,6,6,"f001","H","visual"
"461","Alien11.bmp",557,"S","",NA,"None",NA,6,6,"f001","H","visual"
"462","Alien12.bmp",558,"S","",NA,"None",NA,6,6,"f001","H","visual"
"463","Alien4.bmp",559,"S","",NA,"None",NA,6,6,"f001","H","visual"
"464","Alien5.bmp",560,"S","",NA,"None",NA,6,6,"f001","H","visual"
"465","Alien6.bmp",561,"S","",NA,"3",0.0503082377836,6,6,"f001","H","visual"
"466","Alien1.bmp",562,"S","",NA,"None",NA,6,6,"f001","H","visual"
"467","Alien2.bmp",563,"S","",NA,"None",NA,6,6,"f001","H","visual"
"468","Alien3.bmp",564,"S","",NA,"None",NA,6,6,"f001","H","visual"
"469","Alien10.bmp",565,"S","",NA,"None",NA,6,6,"f001","H","visual"
"470","Alien11.bmp",566,"S","",NA,"None",NA,6,6,"f001","H","visual"
"471","Alien12.bmp",567,"S","",NA,"None",NA,6,6,"f001","H","visual"
"472","Alien7.bmp",568,"S","",NA,"None",NA,6,6,"f001","H","visual"
"473","Alien8.bmp",569,"S","",NA,"None",NA,6,6,"f001","H","visual"
"474","Alien9.bmp",570,"S","",NA,"None",NA,6,6,"f001","H","visual"
"475","Alien4.bmp",571,"S","",NA,"None",NA,6,6,"f001","H","visual"
"476","Alien5.bmp",572,"S","",NA,"None",NA,6,6,"f001","H","visual"
"477","Alien6.bmp",573,"S","",NA,"3",0.041985114105,6,6,"f001","H","visual"
"478","Alien1.bmp",574,"S","",NA,"None",NA,6,6,"f001","H","visual"
"479","Alien2.bmp",575,"S","",NA,"None",NA,6,6,"f001","H","visual"
"480","Alien3.bmp",576,"S","",NA,"None",NA,6,6,"f001","H","visual"
"481","A.png",553,"R","None",NA,"",NA,6,6,"f001","H","visual"
"482","A.png",554,"R","None",NA,"",NA,6,6,"f001","H","visual"
"483","L.png",555,"R","None",NA,"",NA,6,6,"f001","H","visual"
"484","K.png",556,"R","None",NA,"",NA,6,6,"f001","H","visual"
"485","F.png",557,"R","None",NA,"",NA,6,6,"f001","H","visual"
"486","D.png",558,"R","None",NA,"",NA,6,6,"f001","H","visual"
"487","B.png",559,"R","None",NA,"",NA,6,6,"f001","H","visual"
"488","J.png",560,"R","None",NA,"",NA,6,6,"f001","H","visual"
"489","J.png",561,"R","None",NA,"",NA,6,6,"f001","H","visual"
"490","G.png",562,"R","None",NA,"",NA,6,6,"f001","H","visual"
"491","M.png",563,"R","None",NA,"",NA,6,6,"f001","H","visual"
"492","H.png",564,"R","3",0.357725379057,"",NA,6,6,"f001","H","visual"
"493","J.png",565,"R","None",NA,"",NA,6,6,"f001","H","visual"
"494","A.png",566,"R","None",NA,"",NA,6,6,"f001","H","visual"
"495","M.png",567,"R","None",NA,"",NA,6,6,"f001","H","visual"
"496","C.png",568,"R","None",NA,"",NA,6,6,"f001","H","visual"
"497","E.png",569,"R","None",NA,"",NA,6,6,"f001","H","visual"
"498","D.png",570,"R","None",NA,"",NA,6,6,"f001","H","visual"
"499","F.png",571,"R","None",NA,"",NA,6,6,"f001","H","visual"
"500","C.png",572,"R","None",NA,"",NA,6,6,"f001","H","visual"
"501","K.png",573,"R","None",NA,"",NA,6,6,"f001","H","visual"
"502","B.png",574,"R","None",NA,"",NA,6,6,"f001","H","visual"
"503","G.png",575,"R","None",NA,"",NA,6,6,"f001","H","visual"
"504","F.png",576,"R","None",NA,"",NA,6,6,"f001","H","visual"
"505","",NA,"","",NA,"",NA,6,6,"f001","H","visual"
"506","",NA,"","",NA,"",NA,6,6,"f001","H","visual"
"507","",NA,"","",NA,"",NA,6,6,"f001","H","visual"
"508","",NA,"","",NA,"",NA,6,6,"f001","H","visual"
"509","",NA,"","",NA,"",NA,6,6,"f001","H","visual"
"510","",NA,"","",NA,"",NA,6,6,"f001","H","visual"
"511","",NA,"","",NA,"",NA,6,6,"f001","H","visual"
"512","",NA,"","",NA,"",NA,6,6,"f001","H","visual"
"513","",NA,"","",NA,"",NA,6,6,"f001","H","visual"
"514","",NA,"","",NA,"",NA,6,6,"f001","H","visual"
"515","",NA,"","",NA,"",NA,6,6,"f001","H","visual"
"516","",NA,"","",NA,"",NA,6,6,"f001","H","visual"
"517","",NA,"","",NA,"",NA,6,6,"f001","H","visual"
"518","",NA,"","",NA,"",NA,6,6,"f001","H","visual"
"519","",NA,"","",NA,"",NA,6,6,"f001","H","visual"
"520","",NA,"","",NA,"",NA,6,6,"f001","H","visual"
"521","",NA,"","",NA,"",NA,6,6,"f001","H","visual"
"522","",NA,"","",NA,"",NA,6,6,"f001","H","visual"
"523","",NA,"","",NA,"",NA,6,6,"f001","H","visual"
"524","",NA,"","",NA,"",NA,6,6,"f001","H","visual"
"525","",NA,"","",NA,"",NA,6,6,"f001","H","visual"
"526","",NA,"","",NA,"",NA,6,6,"f001","H","visual"
"527","",NA,"","",NA,"",NA,6,6,"f001","H","visual"
"528","",NA,"","",NA,"",NA,6,6,"f001","H","visual"
"529","",NA,"","",NA,"",NA,6,6,"f001","H","visual"
"530","",NA,"","",NA,"",NA,6,6,"f001","H","visual"
"531","",NA,"","",NA,"",NA,6,6,"f001","H","visual"
"532","",NA,"","",NA,"",NA,6,6,"f001","H","visual"
"533","",NA,"","",NA,"",NA,6,6,"f001","H","visual"
"534","",NA,"","",NA,"",NA,6,6,"f001","H","visual"
"535","",NA,"","",NA,"",NA,6,6,"f001","H","visual"
"536","",NA,"","",NA,"",NA,6,6,"f001","H","visual"
"537","",NA,"","",NA,"",NA,6,6,"f001","H","visual"
