"","image","trialnum","condition","l_block_trial_key_resp.keys","l_block_trial_key_resp.rt","v_block_trial_key_resp.keys","v_block_trial_key_resp.rt","vtarget","Run","PartID","ltarget","expName"
"1","M.png",379,"S","None",NA,"",NA,6,3,"f001","h","visual"
"2","K.png",380,"S","None",NA,"",NA,6,3,"f001","h","visual"
"3","B.png",381,"S","None",NA,"",NA,6,3,"f001","h","visual"
"4","M.png",385,"S","None",NA,"",NA,6,3,"f001","h","visual"
"5","K.png",386,"S","None",NA,"",NA,6,3,"f001","h","visual"
"6","B.png",387,"S","None",NA,"",NA,6,3,"f001","h","visual"
"7","E.png",391,"S","None",NA,"",NA,6,3,"f001","h","visual"
"8","L.png",392,"S","None",NA,"",NA,6,3,"f001","h","visual"
"9","H.png",393,"S","3",0.125172835309,"",NA,6,3,"f001","h","visual"
"10","D.png",394,"S","None",NA,"",NA,6,3,"f001","h","visual"
"11","G.png",395,"S","None",NA,"",NA,6,3,"f001","h","visual"
"12","C.png",396,"S","None",NA,"",NA,6,3,"f001","h","visual"
"13","A.png",397,"S","None",NA,"",NA,6,3,"f001","h","visual"
"14","J.png",398,"S","None",NA,"",NA,6,3,"f001","h","visual"
"15","F.png",399,"S","None",NA,"",NA,6,3,"f001","h","visual"
"16","M.png",400,"S","None",NA,"",NA,6,3,"f001","h","visual"
"17","K.png",401,"S","None",NA,"",NA,6,3,"f001","h","visual"
"18","B.png",402,"S","None",NA,"",NA,6,3,"f001","h","visual"
"19","D.png",403,"S","None",NA,"",NA,6,3,"f001","h","visual"
"20","G.png",404,"S","None",NA,"",NA,6,3,"f001","h","visual"
"21","C.png",405,"S","None",NA,"",NA,6,3,"f001","h","visual"
"22","E.png",406,"S","None",NA,"",NA,6,3,"f001","h","visual"
"23","L.png",407,"S","None",NA,"",NA,6,3,"f001","h","visual"
"24","H.png",408,"S","3",0.142085608095,"",NA,6,3,"f001","h","visual"
"25","A.png",409,"S","None",NA,"",NA,6,3,"f001","h","visual"
"26","J.png",410,"S","None",NA,"",NA,6,3,"f001","h","visual"
"27","F.png",411,"S","None",NA,"",NA,6,3,"f001","h","visual"
"28","M.png",412,"S","None",NA,"",NA,6,3,"f001","h","visual"
"29","K.png",413,"S","None",NA,"",NA,6,3,"f001","h","visual"
"30","B.png",414,"S","None",NA,"",NA,6,3,"f001","h","visual"
"31","A.png",415,"S","None",NA,"",NA,6,3,"f001","h","visual"
"32","J.png",416,"S","None",NA,"",NA,6,3,"f001","h","visual"
"33","F.png",417,"S","None",NA,"",NA,6,3,"f001","h","visual"
"34","E.png",418,"S","None",NA,"",NA,6,3,"f001","h","visual"
"35","L.png",419,"S","3",0.950512952637,"",NA,6,3,"f001","h","visual"
"36","H.png",420,"S","None",NA,"",NA,6,3,"f001","h","visual"
"37","D.png",421,"S","None",NA,"",NA,6,3,"f001","h","visual"
"38","G.png",422,"S","None",NA,"",NA,6,3,"f001","h","visual"
"39","C.png",423,"S","None",NA,"",NA,6,3,"f001","h","visual"
"40","E.png",424,"S","None",NA,"",NA,6,3,"f001","h","visual"
"41","L.png",425,"S","None",NA,"",NA,6,3,"f001","h","visual"
"42","H.png",426,"S","3",0.0170689322986,"",NA,6,3,"f001","h","visual"
"43","D.png",427,"S","None",NA,"",NA,6,3,"f001","h","visual"
"44","G.png",428,"S","None",NA,"",NA,6,3,"f001","h","visual"
"45","C.png",429,"S","None",NA,"",NA,6,3,"f001","h","visual"
"46","A.png",430,"S","None",NA,"",NA,6,3,"f001","h","visual"
"47","J.png",431,"S","None",NA,"",NA,6,3,"f001","h","visual"
"48","F.png",432,"S","None",NA,"",NA,6,3,"f001","h","visual"
"49","blank.png",0,"B","",NA,"",NA,6,3,"f001","h","visual"
"50","blank.png",0,"B","",NA,"",NA,6,3,"f001","h","visual"
"51","blank.png",0,"B","",NA,"",NA,6,3,"f001","h","visual"
"52","blank.png",0,"B","",NA,"",NA,6,3,"f001","h","visual"
"53","blank.png",0,"B","",NA,"",NA,6,3,"f001","h","visual"
"54","blank.png",0,"B","",NA,"",NA,6,3,"f001","h","visual"
"55","blank.png",0,"B","",NA,"",NA,6,3,"f001","h","visual"
"56","blank.png",0,"B","",NA,"",NA,6,3,"f001","h","visual"
"57","blank.png",0,"B","",NA,"",NA,6,3,"f001","h","visual"
"58","blank.png",0,"B","",NA,"",NA,6,3,"f001","h","visual"
"59","blank.png",0,"B","",NA,"",NA,6,3,"f001","h","visual"
"60","blank.png",0,"B","",NA,"",NA,6,3,"f001","h","visual"
"61","Alien5.bmp",385,"R","",NA,"None",NA,6,3,"f001","h","visual"
"62","Alien7.bmp",386,"R","",NA,"None",NA,6,3,"f001","h","visual"
"63","Alien7.bmp",387,"R","",NA,"None",NA,6,3,"f001","h","visual"
"64","Alien9.bmp",388,"R","",NA,"None",NA,6,3,"f001","h","visual"
"65","Alien5.bmp",389,"R","",NA,"None",NA,6,3,"f001","h","visual"
"66","Alien12.bmp",390,"R","",NA,"None",NA,6,3,"f001","h","visual"
"67","Alien8.bmp",391,"R","",NA,"None",NA,6,3,"f001","h","visual"
"68","Alien4.bmp",392,"R","",NA,"None",NA,6,3,"f001","h","visual"
"69","Alien5.bmp",393,"R","",NA,"None",NA,6,3,"f001","h","visual"
"70","Alien10.bmp",394,"R","",NA,"None",NA,6,3,"f001","h","visual"
"71","Alien11.bmp",395,"R","",NA,"None",NA,6,3,"f001","h","visual"
"72","Alien6.bmp",396,"R","",NA,"3",0.500310471281,6,3,"f001","h","visual"
"73","Alien10.bmp",397,"R","",NA,"None",NA,6,3,"f001","h","visual"
"74","Alien8.bmp",398,"R","",NA,"None",NA,6,3,"f001","h","visual"
"75","Alien1.bmp",399,"R","",NA,"None",NA,6,3,"f001","h","visual"
"76","Alien9.bmp",400,"R","",NA,"None",NA,6,3,"f001","h","visual"
"77","Alien11.bmp",401,"R","",NA,"None",NA,6,3,"f001","h","visual"
"78","Alien4.bmp",402,"R","",NA,"None",NA,6,3,"f001","h","visual"
"79","Alien6.bmp",403,"R","",NA,"3",0.408691252116,6,3,"f001","h","visual"
"80","Alien12.bmp",404,"R","",NA,"None",NA,6,3,"f001","h","visual"
"81","Alien4.bmp",405,"R","",NA,"None",NA,6,3,"f001","h","visual"
"82","Alien3.bmp",406,"R","",NA,"None",NA,6,3,"f001","h","visual"
"83","Alien6.bmp",407,"R","",NA,"3",0.367224395741,6,3,"f001","h","visual"
"84","Alien2.bmp",408,"R","",NA,"None",NA,6,3,"f001","h","visual"
"85","blank.png",0,"B","",NA,"None",NA,6,3,"f001","h","visual"
"86","blank.png",0,"B","",NA,"None",NA,6,3,"f001","h","visual"
"87","blank.png",0,"B","",NA,"None",NA,6,3,"f001","h","visual"
"88","blank.png",0,"B","",NA,"None",NA,6,3,"f001","h","visual"
"89","blank.png",0,"B","",NA,"None",NA,6,3,"f001","h","visual"
"90","blank.png",0,"B","",NA,"None",NA,6,3,"f001","h","visual"
"91","blank.png",0,"B","",NA,"None",NA,6,3,"f001","h","visual"
"92","blank.png",0,"B","",NA,"None",NA,6,3,"f001","h","visual"
"93","blank.png",0,"B","",NA,"None",NA,6,3,"f001","h","visual"
"94","blank.png",0,"B","",NA,"None",NA,6,3,"f001","h","visual"
"95","blank.png",0,"B","",NA,"None",NA,6,3,"f001","h","visual"
"96","blank.png",0,"B","",NA,"None",NA,6,3,"f001","h","visual"
"97","Alien2.bmp",409,"R","",NA,"None",NA,6,3,"f001","h","visual"
"98","Alien6.bmp",410,"R","",NA,"3",0.408850540873,6,3,"f001","h","visual"
"99","Alien1.bmp",411,"R","",NA,"None",NA,6,3,"f001","h","visual"
"100","Alien5.bmp",412,"R","",NA,"None",NA,6,3,"f001","h","visual"
"101","Alien3.bmp",413,"R","",NA,"None",NA,6,3,"f001","h","visual"
"102","Alien3.bmp",414,"R","",NA,"None",NA,6,3,"f001","h","visual"
"103","Alien7.bmp",415,"R","",NA,"None",NA,6,3,"f001","h","visual"
"104","Alien4.bmp",416,"R","",NA,"None",NA,6,3,"f001","h","visual"
"105","Alien2.bmp",417,"R","",NA,"None",NA,6,3,"f001","h","visual"
"106","Alien12.bmp",418,"R","",NA,"None",NA,6,3,"f001","h","visual"
"107","Alien9.bmp",419,"R","",NA,"None",NA,6,3,"f001","h","visual"
"108","Alien11.bmp",420,"R","",NA,"None",NA,6,3,"f001","h","visual"
"109","Alien12.bmp",421,"R","",NA,"None",NA,6,3,"f001","h","visual"
"110","Alien7.bmp",422,"R","",NA,"None",NA,6,3,"f001","h","visual"
"111","Alien8.bmp",423,"R","",NA,"None",NA,6,3,"f001","h","visual"
"112","Alien10.bmp",424,"R","",NA,"None",NA,6,3,"f001","h","visual"
"113","Alien11.bmp",425,"R","",NA,"None",NA,6,3,"f001","h","visual"
"114","Alien3.bmp",426,"R","",NA,"None",NA,6,3,"f001","h","visual"
"115","Alien1.bmp",427,"R","",NA,"None",NA,6,3,"f001","h","visual"
"116","Alien10.bmp",428,"R","",NA,"None",NA,6,3,"f001","h","visual"
"117","Alien2.bmp",429,"R","",NA,"None",NA,6,3,"f001","h","visual"
"118","Alien9.bmp",430,"R","",NA,"None",NA,6,3,"f001","h","visual"
"119","Alien8.bmp",431,"R","",NA,"None",NA,6,3,"f001","h","visual"
"120","Alien1.bmp",432,"R","",NA,"None",NA,6,3,"f001","h","visual"
"121","blank.png",0,"B","",NA,"None",NA,6,3,"f001","h","visual"
"122","blank.png",0,"B","",NA,"None",NA,6,3,"f001","h","visual"
"123","blank.png",0,"B","",NA,"None",NA,6,3,"f001","h","visual"
"124","blank.png",0,"B","",NA,"None",NA,6,3,"f001","h","visual"
"125","blank.png",0,"B","",NA,"None",NA,6,3,"f001","h","visual"
"126","blank.png",0,"B","",NA,"None",NA,6,3,"f001","h","visual"
"127","blank.png",0,"B","",NA,"None",NA,6,3,"f001","h","visual"
"128","blank.png",0,"B","",NA,"None",NA,6,3,"f001","h","visual"
"129","blank.png",0,"B","",NA,"None",NA,6,3,"f001","h","visual"
"130","blank.png",0,"B","",NA,"None",NA,6,3,"f001","h","visual"
"131","blank.png",0,"B","",NA,"None",NA,6,3,"f001","h","visual"
"132","blank.png",0,"B","",NA,"None",NA,6,3,"f001","h","visual"
"133","Alien7.bmp",433,"R","",NA,"None",NA,6,3,"f001","h","visual"
"134","Alien11.bmp",434,"R","",NA,"None",NA,6,3,"f001","h","visual"
"135","Alien9.bmp",435,"R","",NA,"None",NA,6,3,"f001","h","visual"
"136","Alien10.bmp",436,"R","",NA,"None",NA,6,3,"f001","h","visual"
"137","Alien6.bmp",437,"R","",NA,"3",0.475499249529,6,3,"f001","h","visual"
"138","Alien4.bmp",438,"R","",NA,"None",NA,6,3,"f001","h","visual"
"139","Alien1.bmp",439,"R","",NA,"None",NA,6,3,"f001","h","visual"
"140","Alien5.bmp",440,"R","",NA,"None",NA,6,3,"f001","h","visual"
"141","Alien2.bmp",441,"R","",NA,"None",NA,6,3,"f001","h","visual"
"142","Alien4.bmp",442,"R","",NA,"None",NA,6,3,"f001","h","visual"
"143","Alien8.bmp",443,"R","",NA,"None",NA,6,3,"f001","h","visual"
"144","Alien1.bmp",444,"R","",NA,"None",NA,6,3,"f001","h","visual"
"145","Alien9.bmp",445,"R","",NA,"None",NA,6,3,"f001","h","visual"
"146","Alien8.bmp",446,"R","",NA,"None",NA,6,3,"f001","h","visual"
"147","Alien3.bmp",447,"R","",NA,"None",NA,6,3,"f001","h","visual"
"148","Alien3.bmp",448,"R","",NA,"None",NA,6,3,"f001","h","visual"
"149","Alien6.bmp",449,"R","",NA,"3",0.533879162744,6,3,"f001","h","visual"
"150","Alien6.bmp",450,"R","",NA,"3",0.425407188945,6,3,"f001","h","visual"
"151","Alien5.bmp",451,"R","",NA,"None",NA,6,3,"f001","h","visual"
"152","Alien12.bmp",452,"R","",NA,"None",NA,6,3,"f001","h","visual"
"153","Alien5.bmp",453,"R","",NA,"None",NA,6,3,"f001","h","visual"
"154","Alien7.bmp",454,"R","",NA,"None",NA,6,3,"f001","h","visual"
"155","Alien2.bmp",455,"R","",NA,"None",NA,6,3,"f001","h","visual"
"156","Alien4.bmp",456,"R","",NA,"None",NA,6,3,"f001","h","visual"
"157","blank.png",0,"B","",NA,"None",NA,6,3,"f001","h","visual"
"158","blank.png",0,"B","",NA,"None",NA,6,3,"f001","h","visual"
"159","blank.png",0,"B","",NA,"None",NA,6,3,"f001","h","visual"
"160","blank.png",0,"B","",NA,"None",NA,6,3,"f001","h","visual"
"161","blank.png",0,"B","",NA,"None",NA,6,3,"f001","h","visual"
"162","blank.png",0,"B","",NA,"None",NA,6,3,"f001","h","visual"
"163","blank.png",0,"B","",NA,"None",NA,6,3,"f001","h","visual"
"164","blank.png",0,"B","",NA,"None",NA,6,3,"f001","h","visual"
"165","blank.png",0,"B","",NA,"None",NA,6,3,"f001","h","visual"
"166","blank.png",0,"B","",NA,"None",NA,6,3,"f001","h","visual"
"167","blank.png",0,"B","",NA,"None",NA,6,3,"f001","h","visual"
"168","blank.png",0,"B","",NA,"None",NA,6,3,"f001","h","visual"
"169","M.png",433,"S","None",NA,"",NA,6,3,"f001","h","visual"
"170","K.png",434,"S","None",NA,"",NA,6,3,"f001","h","visual"
"171","B.png",435,"S","None",NA,"",NA,6,3,"f001","h","visual"
"172","D.png",436,"S","None",NA,"",NA,6,3,"f001","h","visual"
"173","G.png",437,"S","None",NA,"",NA,6,3,"f001","h","visual"
"174","C.png",438,"S","None",NA,"",NA,6,3,"f001","h","visual"
"175","M.png",439,"S","None",NA,"",NA,6,3,"f001","h","visual"
"176","K.png",440,"S","None",NA,"",NA,6,3,"f001","h","visual"
"177","B.png",441,"S","None",NA,"",NA,6,3,"f001","h","visual"
"178","E.png",442,"S","None",NA,"",NA,6,3,"f001","h","visual"
"179","L.png",443,"S","None",NA,"",NA,6,3,"f001","h","visual"
"180","H.png",444,"S","3",0.00870740832761,"",NA,6,3,"f001","h","visual"
"181","A.png",445,"S","None",NA,"",NA,6,3,"f001","h","visual"
"182","J.png",446,"S","None",NA,"",NA,6,3,"f001","h","visual"
"183","F.png",447,"S","None",NA,"",NA,6,3,"f001","h","visual"
"184","M.png",448,"S","None",NA,"",NA,6,3,"f001","h","visual"
"185","K.png",449,"S","None",NA,"",NA,6,3,"f001","h","visual"
"186","B.png",450,"S","None",NA,"",NA,6,3,"f001","h","visual"
"187","E.png",451,"S","None",NA,"",NA,6,3,"f001","h","visual"
"188","L.png",452,"S","3",0.982941307593,"",NA,6,3,"f001","h","visual"
"189","H.png",453,"S","None",NA,"",NA,6,3,"f001","h","visual"
"190","A.png",454,"S","None",NA,"",NA,6,3,"f001","h","visual"
"191","J.png",455,"S","None",NA,"",NA,6,3,"f001","h","visual"
"192","F.png",456,"S","None",NA,"",NA,6,3,"f001","h","visual"
"193","blank.png",0,"B","",NA,"",NA,6,3,"f001","h","visual"
"194","blank.png",0,"B","",NA,"",NA,6,3,"f001","h","visual"
"195","blank.png",0,"B","",NA,"",NA,6,3,"f001","h","visual"
"196","blank.png",0,"B","",NA,"",NA,6,3,"f001","h","visual"
"197","blank.png",0,"B","",NA,"",NA,6,3,"f001","h","visual"
"198","blank.png",0,"B","",NA,"",NA,6,3,"f001","h","visual"
"199","blank.png",0,"B","",NA,"",NA,6,3,"f001","h","visual"
"200","blank.png",0,"B","",NA,"",NA,6,3,"f001","h","visual"
"201","blank.png",0,"B","",NA,"",NA,6,3,"f001","h","visual"
"202","blank.png",0,"B","",NA,"",NA,6,3,"f001","h","visual"
"203","blank.png",0,"B","",NA,"",NA,6,3,"f001","h","visual"
"204","blank.png",0,"B","",NA,"",NA,6,3,"f001","h","visual"
"205","D.png",457,"S","None",NA,"",NA,6,3,"f001","h","visual"
"206","G.png",458,"S","None",NA,"",NA,6,3,"f001","h","visual"
"207","C.png",459,"S","None",NA,"",NA,6,3,"f001","h","visual"
"208","A.png",460,"S","None",NA,"",NA,6,3,"f001","h","visual"
"209","J.png",461,"S","None",NA,"",NA,6,3,"f001","h","visual"
"210","F.png",462,"S","None",NA,"",NA,6,3,"f001","h","visual"
"211","M.png",463,"S","None",NA,"",NA,6,3,"f001","h","visual"
"212","K.png",464,"S","None",NA,"",NA,6,3,"f001","h","visual"
"213","B.png",465,"S","None",NA,"",NA,6,3,"f001","h","visual"
"214","D.png",466,"S","None",NA,"",NA,6,3,"f001","h","visual"
"215","G.png",467,"S","None",NA,"",NA,6,3,"f001","h","visual"
"216","C.png",468,"S","None",NA,"",NA,6,3,"f001","h","visual"
"217","E.png",469,"S","None",NA,"",NA,6,3,"f001","h","visual"
"218","L.png",470,"S","None",NA,"",NA,6,3,"f001","h","visual"
"219","H.png",471,"S","3",0.0082727773115,"",NA,6,3,"f001","h","visual"
"220","D.png",472,"S","None",NA,"",NA,6,3,"f001","h","visual"
"221","G.png",473,"S","None",NA,"",NA,6,3,"f001","h","visual"
"222","C.png",474,"S","None",NA,"",NA,6,3,"f001","h","visual"
"223","A.png",475,"S","None",NA,"",NA,6,3,"f001","h","visual"
"224","J.png",476,"S","None",NA,"",NA,6,3,"f001","h","visual"
"225","F.png",477,"S","None",NA,"",NA,6,3,"f001","h","visual"
"226","E.png",478,"S","None",NA,"",NA,6,3,"f001","h","visual"
"227","L.png",479,"S","3",0.983878551051,"",NA,6,3,"f001","h","visual"
"228","H.png",480,"S","None",NA,"",NA,6,3,"f001","h","visual"
"229","M.png",481,"S","None",NA,"",NA,6,3,"f001","h","visual"
"230","K.png",482,"S","None",NA,"",NA,6,3,"f001","h","visual"
"231","B.png",483,"S","None",NA,"",NA,6,3,"f001","h","visual"
"232","E.png",484,"S","None",NA,"",NA,6,3,"f001","h","visual"
"233","L.png",485,"S","None",NA,"",NA,6,3,"f001","h","visual"
"234","H.png",486,"S","3",0.158703411929,"",NA,6,3,"f001","h","visual"
"235","A.png",487,"S","None",NA,"",NA,6,3,"f001","h","visual"
"236","J.png",488,"S","None",NA,"",NA,6,3,"f001","h","visual"
"237","F.png",489,"S","None",NA,"",NA,6,3,"f001","h","visual"
"238","D.png",490,"S","None",NA,"",NA,6,3,"f001","h","visual"
"239","G.png",491,"S","None",NA,"",NA,6,3,"f001","h","visual"
"240","C.png",492,"S","None",NA,"",NA,6,3,"f001","h","visual"
"241","E.png",493,"S","None",NA,"",NA,6,3,"f001","h","visual"
"242","L.png",494,"S","None",NA,"",NA,6,3,"f001","h","visual"
"243","H.png",495,"S","3",0.0336983986199,"",NA,6,3,"f001","h","visual"
"244","M.png",496,"S","None",NA,"",NA,6,3,"f001","h","visual"
"245","K.png",497,"S","None",NA,"",NA,6,3,"f001","h","visual"
"246","B.png",498,"S","None",NA,"",NA,6,3,"f001","h","visual"
"247","A.png",499,"S","None",NA,"",NA,6,3,"f001","h","visual"
"248","J.png",500,"S","None",NA,"",NA,6,3,"f001","h","visual"
"249","F.png",501,"S","None",NA,"",NA,6,3,"f001","h","visual"
"250","D.png",502,"S","None",NA,"",NA,6,3,"f001","h","visual"
"251","G.png",503,"S","None",NA,"",NA,6,3,"f001","h","visual"
"252","C.png",504,"S","None",NA,"",NA,6,3,"f001","h","visual"
"253","blank.png",0,"B","",NA,"",NA,6,3,"f001","h","visual"
"254","blank.png",0,"B","",NA,"",NA,6,3,"f001","h","visual"
"255","blank.png",0,"B","",NA,"",NA,6,3,"f001","h","visual"
"256","blank.png",0,"B","",NA,"",NA,6,3,"f001","h","visual"
"257","blank.png",0,"B","",NA,"",NA,6,3,"f001","h","visual"
"258","blank.png",0,"B","",NA,"",NA,6,3,"f001","h","visual"
"259","blank.png",0,"B","",NA,"",NA,6,3,"f001","h","visual"
"260","blank.png",0,"B","",NA,"",NA,6,3,"f001","h","visual"
"261","blank.png",0,"B","",NA,"",NA,6,3,"f001","h","visual"
"262","blank.png",0,"B","",NA,"",NA,6,3,"f001","h","visual"
"263","blank.png",0,"B","",NA,"",NA,6,3,"f001","h","visual"
"264","blank.png",0,"B","",NA,"",NA,6,3,"f001","h","visual"
"265","M.png",505,"S","None",NA,"",NA,6,3,"f001","h","visual"
"266","K.png",506,"S","None",NA,"",NA,6,3,"f001","h","visual"
"267","B.png",507,"S","None",NA,"",NA,6,3,"f001","h","visual"
"268","D.png",508,"S","None",NA,"",NA,6,3,"f001","h","visual"
"269","G.png",509,"S","None",NA,"",NA,6,3,"f001","h","visual"
"270","C.png",510,"S","None",NA,"",NA,6,3,"f001","h","visual"
"271","E.png",511,"S","None",NA,"",NA,6,3,"f001","h","visual"
"272","L.png",512,"S","None",NA,"",NA,6,3,"f001","h","visual"
"273","H.png",513,"S","3",0.0170390657149,"",NA,6,3,"f001","h","visual"
"274","A.png",514,"S","None",NA,"",NA,6,3,"f001","h","visual"
"275","J.png",515,"S","None",NA,"",NA,6,3,"f001","h","visual"
"276","F.png",516,"S","None",NA,"",NA,6,3,"f001","h","visual"
"277","E.png",517,"S","None",NA,"",NA,6,3,"f001","h","visual"
"278","L.png",518,"S","None",NA,"",NA,6,3,"f001","h","visual"
"279","H.png",519,"S","3",0.266960914712,"",NA,6,3,"f001","h","visual"
"280","D.png",520,"S","None",NA,"",NA,6,3,"f001","h","visual"
"281","G.png",521,"S","None",NA,"",NA,6,3,"f001","h","visual"
"282","C.png",522,"S","None",NA,"",NA,6,3,"f001","h","visual"
"283","M.png",523,"S","None",NA,"",NA,6,3,"f001","h","visual"
"284","K.png",524,"S","None",NA,"",NA,6,3,"f001","h","visual"
"285","B.png",525,"S","None",NA,"",NA,6,3,"f001","h","visual"
"286","A.png",526,"S","None",NA,"",NA,6,3,"f001","h","visual"
"287","J.png",527,"S","None",NA,"",NA,6,3,"f001","h","visual"
"288","F.png",528,"S","None",NA,"",NA,6,3,"f001","h","visual"
"289","Alien11.bmp",457,"R","",NA,"None",NA,6,3,"f001","h","visual"
"290","Alien8.bmp",458,"R","",NA,"None",NA,6,3,"f001","h","visual"
"291","Alien12.bmp",459,"R","",NA,"None",NA,6,3,"f001","h","visual"
"292","Alien6.bmp",460,"R","",NA,"3",0.367298920173,6,3,"f001","h","visual"
"293","Alien10.bmp",461,"R","",NA,"None",NA,6,3,"f001","h","visual"
"294","Alien2.bmp",462,"R","",NA,"None",NA,6,3,"f001","h","visual"
"295","Alien12.bmp",463,"R","",NA,"None",NA,6,3,"f001","h","visual"
"296","Alien4.bmp",464,"R","",NA,"None",NA,6,3,"f001","h","visual"
"297","Alien12.bmp",465,"R","",NA,"None",NA,6,3,"f001","h","visual"
"298","Alien7.bmp",466,"R","",NA,"None",NA,6,3,"f001","h","visual"
"299","Alien3.bmp",467,"R","",NA,"None",NA,6,3,"f001","h","visual"
"300","Alien1.bmp",468,"R","",NA,"None",NA,6,3,"f001","h","visual"
"301","Alien11.bmp",469,"R","",NA,"None",NA,6,3,"f001","h","visual"
"302","Alien10.bmp",470,"R","",NA,"None",NA,6,3,"f001","h","visual"
"303","Alien1.bmp",471,"R","",NA,"None",NA,6,3,"f001","h","visual"
"304","Alien11.bmp",472,"R","",NA,"None",NA,6,3,"f001","h","visual"
"305","Alien10.bmp",473,"R","",NA,"None",NA,6,3,"f001","h","visual"
"306","Alien7.bmp",474,"R","",NA,"None",NA,6,3,"f001","h","visual"
"307","Alien2.bmp",475,"R","",NA,"None",NA,6,3,"f001","h","visual"
"308","Alien3.bmp",476,"R","",NA,"None",NA,6,3,"f001","h","visual"
"309","Alien5.bmp",477,"R","",NA,"None",NA,6,3,"f001","h","visual"
"310","Alien9.bmp",478,"R","",NA,"None",NA,6,3,"f001","h","visual"
"311","Alien9.bmp",479,"R","",NA,"None",NA,6,3,"f001","h","visual"
"312","Alien8.bmp",480,"R","",NA,"None",NA,6,3,"f001","h","visual"
"313","blank.png",0,"B","",NA,"None",NA,6,3,"f001","h","visual"
"314","blank.png",0,"B","",NA,"None",NA,6,3,"f001","h","visual"
"315","blank.png",0,"B","",NA,"None",NA,6,3,"f001","h","visual"
"316","blank.png",0,"B","",NA,"None",NA,6,3,"f001","h","visual"
"317","blank.png",0,"B","",NA,"None",NA,6,3,"f001","h","visual"
"318","blank.png",0,"B","",NA,"None",NA,6,3,"f001","h","visual"
"319","blank.png",0,"B","",NA,"None",NA,6,3,"f001","h","visual"
"320","blank.png",0,"B","",NA,"None",NA,6,3,"f001","h","visual"
"321","blank.png",0,"B","",NA,"None",NA,6,3,"f001","h","visual"
"322","blank.png",0,"B","",NA,"None",NA,6,3,"f001","h","visual"
"323","blank.png",0,"B","",NA,"None",NA,6,3,"f001","h","visual"
"324","blank.png",0,"B","",NA,"None",NA,6,3,"f001","h","visual"
"325","Alien6.bmp",481,"R","",NA,"3",0.892187936697,6,3,"f001","h","visual"
"326","Alien12.bmp",482,"R","",NA,"None",NA,6,3,"f001","h","visual"
"327","Alien2.bmp",483,"R","",NA,"None",NA,6,3,"f001","h","visual"
"328","Alien5.bmp",484,"R","",NA,"None",NA,6,3,"f001","h","visual"
"329","Alien7.bmp",485,"R","",NA,"None",NA,6,3,"f001","h","visual"
"330","Alien4.bmp",486,"R","",NA,"None",NA,6,3,"f001","h","visual"
"331","Alien10.bmp",487,"R","",NA,"None",NA,6,3,"f001","h","visual"
"332","Alien9.bmp",488,"R","",NA,"None",NA,6,3,"f001","h","visual"
"333","Alien8.bmp",489,"R","",NA,"None",NA,6,3,"f001","h","visual"
"334","Alien10.bmp",490,"R","",NA,"None",NA,6,3,"f001","h","visual"
"335","Alien6.bmp",491,"R","",NA,"3",0.467069743201,6,3,"f001","h","visual"
"336","Alien11.bmp",492,"R","",NA,"None",NA,6,3,"f001","h","visual"
"337","Alien3.bmp",493,"R","",NA,"None",NA,6,3,"f001","h","visual"
"338","Alien1.bmp",494,"R","",NA,"None",NA,6,3,"f001","h","visual"
"339","Alien7.bmp",495,"R","",NA,"None",NA,6,3,"f001","h","visual"
"340","Alien4.bmp",496,"R","",NA,"None",NA,6,3,"f001","h","visual"
"341","Alien9.bmp",497,"R","",NA,"None",NA,6,3,"f001","h","visual"
"342","Alien1.bmp",498,"R","",NA,"None",NA,6,3,"f001","h","visual"
"343","Alien12.bmp",499,"R","",NA,"None",NA,6,3,"f001","h","visual"
"344","Alien5.bmp",500,"R","",NA,"None",NA,6,3,"f001","h","visual"
"345","Alien2.bmp",501,"R","",NA,"None",NA,6,3,"f001","h","visual"
"346","Alien8.bmp",502,"R","",NA,"None",NA,6,3,"f001","h","visual"
"347","Alien3.bmp",503,"R","",NA,"None",NA,6,3,"f001","h","visual"
"348","Alien11.bmp",504,"R","",NA,"None",NA,6,3,"f001","h","visual"
"349","blank.png",0,"B","",NA,"None",NA,6,3,"f001","h","visual"
"350","blank.png",0,"B","",NA,"None",NA,6,3,"f001","h","visual"
"351","blank.png",0,"B","",NA,"None",NA,6,3,"f001","h","visual"
"352","blank.png",0,"B","",NA,"None",NA,6,3,"f001","h","visual"
"353","blank.png",0,"B","",NA,"None",NA,6,3,"f001","h","visual"
"354","blank.png",0,"B","",NA,"None",NA,6,3,"f001","h","visual"
"355","blank.png",0,"B","",NA,"None",NA,6,3,"f001","h","visual"
"356","blank.png",0,"B","",NA,"None",NA,6,3,"f001","h","visual"
"357","blank.png",0,"B","",NA,"None",NA,6,3,"f001","h","visual"
"358","blank.png",0,"B","",NA,"None",NA,6,3,"f001","h","visual"
"359","blank.png",0,"B","",NA,"None",NA,6,3,"f001","h","visual"
"360","blank.png",0,"B","",NA,"None",NA,6,3,"f001","h","visual"
"361","Alien4.bmp",505,"R","",NA,"None",NA,6,3,"f001","h","visual"
"362","Alien2.bmp",506,"R","",NA,"None",NA,6,3,"f001","h","visual"
"363","Alien1.bmp",507,"R","",NA,"None",NA,6,3,"f001","h","visual"
"364","Alien1.bmp",508,"R","",NA,"None",NA,6,3,"f001","h","visual"
"365","Alien8.bmp",509,"R","",NA,"None",NA,6,3,"f001","h","visual"
"366","Alien6.bmp",510,"R","",NA,"3",0.492076946888,6,3,"f001","h","visual"
"367","Alien11.bmp",511,"R","",NA,"None",NA,6,3,"f001","h","visual"
"368","Alien5.bmp",512,"R","",NA,"None",NA,6,3,"f001","h","visual"
"369","Alien5.bmp",513,"R","",NA,"None",NA,6,3,"f001","h","visual"
"370","Alien9.bmp",514,"R","",NA,"None",NA,6,3,"f001","h","visual"
"371","Alien7.bmp",515,"R","",NA,"None",NA,6,3,"f001","h","visual"
"372","Alien11.bmp",516,"R","",NA,"None",NA,6,3,"f001","h","visual"
"373","Alien8.bmp",517,"R","",NA,"None",NA,6,3,"f001","h","visual"
"374","Alien2.bmp",518,"R","",NA,"None",NA,6,3,"f001","h","visual"
"375","Alien9.bmp",519,"R","",NA,"None",NA,6,3,"f001","h","visual"
"376","Alien10.bmp",520,"R","",NA,"None",NA,6,3,"f001","h","visual"
"377","Alien12.bmp",521,"R","",NA,"None",NA,6,3,"f001","h","visual"
"378","Alien3.bmp",522,"R","",NA,"None",NA,6,3,"f001","h","visual"
"379","Alien10.bmp",523,"R","",NA,"None",NA,6,3,"f001","h","visual"
"380","Alien12.bmp",524,"R","",NA,"None",NA,6,3,"f001","h","visual"
"381","Alien7.bmp",525,"R","",NA,"None",NA,6,3,"f001","h","visual"
"382","Alien4.bmp",526,"R","",NA,"None",NA,6,3,"f001","h","visual"
"383","Alien6.bmp",527,"R","",NA,"3",0.392033056822,6,3,"f001","h","visual"
"384","Alien3.bmp",528,"R","",NA,"None",NA,6,3,"f001","h","visual"
"385","Alien3.bmp",529,"R","",NA,"None",NA,6,3,"f001","h","visual"
"386","Alien4.bmp",530,"R","",NA,"None",NA,6,3,"f001","h","visual"
"387","Alien10.bmp",531,"R","",NA,"None",NA,6,3,"f001","h","visual"
"388","Alien7.bmp",532,"R","",NA,"None",NA,6,3,"f001","h","visual"
"389","Alien7.bmp",533,"R","",NA,"None",NA,6,3,"f001","h","visual"
"390","Alien12.bmp",534,"R","",NA,"None",NA,6,3,"f001","h","visual"
"391","Alien8.bmp",535,"R","",NA,"None",NA,6,3,"f001","h","visual"
"392","Alien5.bmp",536,"R","",NA,"None",NA,6,3,"f001","h","visual"
"393","Alien11.bmp",537,"R","",NA,"None",NA,6,3,"f001","h","visual"
"394","Alien6.bmp",538,"R","",NA,"3",0.375444550999,6,3,"f001","h","visual"
"395","Alien9.bmp",539,"R","",NA,"None",NA,6,3,"f001","h","visual"
"396","Alien4.bmp",540,"R","",NA,"None",NA,6,3,"f001","h","visual"
"397","Alien1.bmp",541,"R","",NA,"None",NA,6,3,"f001","h","visual"
"398","Alien5.bmp",542,"R","",NA,"None",NA,6,3,"f001","h","visual"
"399","Alien12.bmp",543,"R","",NA,"None",NA,6,3,"f001","h","visual"
"400","Alien9.bmp",544,"R","",NA,"None",NA,6,3,"f001","h","visual"
"401","Alien9.bmp",545,"R","",NA,"None",NA,6,3,"f001","h","visual"
"402","Alien2.bmp",546,"R","",NA,"None",NA,6,3,"f001","h","visual"
"403","Alien8.bmp",547,"R","",NA,"None",NA,6,3,"f001","h","visual"
"404","Alien11.bmp",548,"R","",NA,"None",NA,6,3,"f001","h","visual"
"405","Alien6.bmp",549,"R","",NA,"3",0.400412216783,6,3,"f001","h","visual"
"406","Alien8.bmp",550,"R","",NA,"None",NA,6,3,"f001","h","visual"
"407","Alien7.bmp",551,"R","",NA,"None",NA,6,3,"f001","h","visual"
"408","Alien10.bmp",552,"R","",NA,"None",NA,6,3,"f001","h","visual"
"409","E.png",529,"S","None",NA,"",NA,6,3,"f001","h","visual"
"410","L.png",530,"S","None",NA,"",NA,6,3,"f001","h","visual"
"411","H.png",531,"S","3",0.100303871557,"",NA,6,3,"f001","h","visual"
"412","M.png",532,"S","None",NA,"",NA,6,3,"f001","h","visual"
"413","K.png",533,"S","None",NA,"",NA,6,3,"f001","h","visual"
"414","B.png",534,"S","None",NA,"",NA,6,3,"f001","h","visual"
"415","D.png",535,"S","None",NA,"",NA,6,3,"f001","h","visual"
"416","G.png",536,"S","None",NA,"",NA,6,3,"f001","h","visual"
"417","C.png",537,"S","None",NA,"",NA,6,3,"f001","h","visual"
"418","E.png",538,"S","None",NA,"",NA,6,3,"f001","h","visual"
"419","L.png",539,"S","3",0.983876844868,"",NA,6,3,"f001","h","visual"
"420","H.png",540,"S","None",NA,"",NA,6,3,"f001","h","visual"
"421","M.png",541,"S","None",NA,"",NA,6,3,"f001","h","visual"
"422","K.png",542,"S","None",NA,"",NA,6,3,"f001","h","visual"
"423","B.png",543,"S","None",NA,"",NA,6,3,"f001","h","visual"
"424","D.png",544,"S","None",NA,"",NA,6,3,"f001","h","visual"
"425","G.png",545,"S","None",NA,"",NA,6,3,"f001","h","visual"
"426","C.png",546,"S","None",NA,"",NA,6,3,"f001","h","visual"
"427","A.png",547,"S","None",NA,"",NA,6,3,"f001","h","visual"
"428","J.png",548,"S","None",NA,"",NA,6,3,"f001","h","visual"
"429","F.png",549,"S","None",NA,"",NA,6,3,"f001","h","visual"
"430","E.png",550,"S","None",NA,"",NA,6,3,"f001","h","visual"
"431","L.png",551,"S","None",NA,"",NA,6,3,"f001","h","visual"
"432","H.png",552,"S","3",0.0920060630888,"",NA,6,3,"f001","h","visual"
"433","A.png",553,"S","None",NA,"",NA,6,3,"f001","h","visual"
"434","J.png",554,"S","None",NA,"",NA,6,3,"f001","h","visual"
"435","F.png",555,"S","None",NA,"",NA,6,3,"f001","h","visual"
"436","D.png",556,"S","None",NA,"",NA,6,3,"f001","h","visual"
"437","G.png",557,"S","None",NA,"",NA,6,3,"f001","h","visual"
"438","C.png",558,"S","None",NA,"",NA,6,3,"f001","h","visual"
"439","M.png",559,"S","None",NA,"",NA,6,3,"f001","h","visual"
"440","K.png",560,"S","None",NA,"",NA,6,3,"f001","h","visual"
"441","B.png",561,"S","None",NA,"",NA,6,3,"f001","h","visual"
"442","A.png",562,"S","None",NA,"",NA,6,3,"f001","h","visual"
"443","J.png",563,"S","None",NA,"",NA,6,3,"f001","h","visual"
"444","F.png",564,"S","None",NA,"",NA,6,3,"f001","h","visual"
"445","D.png",565,"S","None",NA,"",NA,6,3,"f001","h","visual"
"446","G.png",566,"S","None",NA,"",NA,6,3,"f001","h","visual"
"447","C.png",567,"S","None",NA,"",NA,6,3,"f001","h","visual"
"448","E.png",568,"S","None",NA,"",NA,6,3,"f001","h","visual"
"449","L.png",569,"S","3",0.967123076785,"",NA,6,3,"f001","h","visual"
"450","H.png",570,"S","None",NA,"",NA,6,3,"f001","h","visual"
"451","M.png",571,"S","None",NA,"",NA,6,3,"f001","h","visual"
"452","K.png",572,"S","None",NA,"",NA,6,3,"f001","h","visual"
"453","B.png",573,"S","None",NA,"",NA,6,3,"f001","h","visual"
"454","A.png",574,"S","None",NA,"",NA,6,3,"f001","h","visual"
"455","J.png",575,"S","None",NA,"",NA,6,3,"f001","h","visual"
"456","F.png",576,"S","None",NA,"",NA,6,3,"f001","h","visual"
"457","Alien10.bmp",553,"R","",NA,"None",NA,6,3,"f001","h","visual"
"458","Alien2.bmp",554,"R","",NA,"None",NA,6,3,"f001","h","visual"
"459","Alien10.bmp",555,"R","",NA,"None",NA,6,3,"f001","h","visual"
"460","Alien5.bmp",556,"R","",NA,"None",NA,6,3,"f001","h","visual"
"461","Alien2.bmp",557,"R","",NA,"None",NA,6,3,"f001","h","visual"
"462","Alien6.bmp",558,"R","",NA,"3",0.417078944854,6,3,"f001","h","visual"
"463","Alien3.bmp",559,"R","",NA,"None",NA,6,3,"f001","h","visual"
"464","Alien3.bmp",560,"R","",NA,"None",NA,6,3,"f001","h","visual"
"465","Alien3.bmp",561,"R","",NA,"None",NA,6,3,"f001","h","visual"
"466","Alien12.bmp",562,"R","",NA,"None",NA,6,3,"f001","h","visual"
"467","Alien1.bmp",563,"R","",NA,"None",NA,6,3,"f001","h","visual"
"468","Alien7.bmp",564,"R","",NA,"None",NA,6,3,"f001","h","visual"
"469","Alien4.bmp",565,"R","",NA,"None",NA,6,3,"f001","h","visual"
"470","Alien2.bmp",566,"R","",NA,"None",NA,6,3,"f001","h","visual"
"471","Alien4.bmp",567,"R","",NA,"None",NA,6,3,"f001","h","visual"
"472","Alien11.bmp",568,"R","",NA,"None",NA,6,3,"f001","h","visual"
"473","Alien9.bmp",569,"R","",NA,"None",NA,6,3,"f001","h","visual"
"474","Alien6.bmp",570,"R","",NA,"3",0.542055798229,6,3,"f001","h","visual"
"475","Alien1.bmp",571,"R","",NA,"None",NA,6,3,"f001","h","visual"
"476","Alien12.bmp",572,"R","",NA,"None",NA,6,3,"f001","h","visual"
"477","Alien11.bmp",573,"R","",NA,"None",NA,6,3,"f001","h","visual"
"478","Alien8.bmp",574,"R","",NA,"None",NA,6,3,"f001","h","visual"
"479","Alien5.bmp",575,"R","",NA,"None",NA,6,3,"f001","h","visual"
"480","Alien1.bmp",576,"R","",NA,"None",NA,6,3,"f001","h","visual"
"481","",NA,"","",NA,"",NA,6,3,"f001","h","visual"
"482","",NA,"","",NA,"",NA,6,3,"f001","h","visual"
"483","",NA,"","",NA,"",NA,6,3,"f001","h","visual"
"484","",NA,"","",NA,"",NA,6,3,"f001","h","visual"
"485","",NA,"","",NA,"",NA,6,3,"f001","h","visual"
"486","",NA,"","",NA,"",NA,6,3,"f001","h","visual"
"487","",NA,"","",NA,"",NA,6,3,"f001","h","visual"
"488","",NA,"","",NA,"",NA,6,3,"f001","h","visual"
"489","",NA,"","",NA,"",NA,6,3,"f001","h","visual"
"490","",NA,"","",NA,"",NA,6,3,"f001","h","visual"
"491","",NA,"","",NA,"",NA,6,3,"f001","h","visual"
"492","",NA,"","",NA,"",NA,6,3,"f001","h","visual"
"493","",NA,"","",NA,"",NA,6,3,"f001","h","visual"
"494","",NA,"","",NA,"",NA,6,3,"f001","h","visual"
"495","",NA,"","",NA,"",NA,6,3,"f001","h","visual"
"496","",NA,"","",NA,"",NA,6,3,"f001","h","visual"
"497","",NA,"","",NA,"",NA,6,3,"f001","h","visual"
"498","",NA,"","",NA,"",NA,6,3,"f001","h","visual"
"499","",NA,"","",NA,"",NA,6,3,"f001","h","visual"
"500","",NA,"","",NA,"",NA,6,3,"f001","h","visual"
"501","",NA,"","",NA,"",NA,6,3,"f001","h","visual"
"502","",NA,"","",NA,"",NA,6,3,"f001","h","visual"
"503","",NA,"","",NA,"",NA,6,3,"f001","h","visual"
"504","",NA,"","",NA,"",NA,6,3,"f001","h","visual"
"505","",NA,"","",NA,"",NA,6,3,"f001","h","visual"
"506","",NA,"","",NA,"",NA,6,3,"f001","h","visual"
"507","",NA,"","",NA,"",NA,6,3,"f001","h","visual"
"508","",NA,"","",NA,"",NA,6,3,"f001","h","visual"
"509","",NA,"","",NA,"",NA,6,3,"f001","h","visual"
"510","",NA,"","",NA,"",NA,6,3,"f001","h","visual"
"511","",NA,"","",NA,"",NA,6,3,"f001","h","visual"
"512","",NA,"","",NA,"",NA,6,3,"f001","h","visual"
